time,seconds_elapsed,z,y,x
1705060351319410700,0.06341064453125,0.10247645060424693,0.11004446557257323,-0.023075793976953717
1705060351459470800,0.203470947265625,-0.3789829504847526,0.08344060021745972,-0.16294086531130597
1705060351509916000,0.253916015625,-0.1390473822928965,0.12835140802976674,-0.07062753790223505
1705060351560330800,0.304330810546875,-0.1725696396011859,0.1889296401085332,-0.19947322768839074
1705060351610744800,0.354744873046875,0.034984740209439764,0.02912561380151892,-0.08844826317848638
1705060351661190700,0.405190673828125,-0.16215040905335917,-0.010820951208024052,-0.12585456797904335
1705060351711623000,0.455622802734375,-0.08548842699220403,0.3415384051661938,0.1952367591624148
1705060351762032600,0.50603271484375,0.03864898007172159,0.68278096919097,0.8272267764613032
1705060351812483800,0.55648388671875,0.17745087230410425,0.4997851030455902,0.8509645757276564
1705060351862898000,0.60689794921875,-0.6379722517799585,0.04357860936047509,0.4472213875936344
1705060351913326800,0.657326904296875,0.7696070197287946,-0.3396014092216268,0.2505371695692651
1705060351963758800,0.7077587890625,-0.544830661419779,0.6768364546380937,0.05629502006792463
1705060352014173700,0.758173583984375,0.37800566641781475,-0.10813454943117685,0.7396888513270765
1705060352064619800,0.808619873046875,-1.0815835956502706,0.6969530677326023,1.1323721181232482
1705060352115035000,0.859034912109375,-1.3246275781862438,-0.7202315058588982,1.6885077982157468
1705060352165450000,0.909449951171875,-0.9490197301577776,0.5594519650336355,0.550856497580558
1705060352215878000,0.9598779296875,-0.9001905981242656,3.0096801213815807,-0.332614253748022
1705060352266323700,1.01032373046875,2.8716119593843814,0.5766362510032952,-0.1754386556988582
1705060352316739800,1.06073974609375,-0.8298270951528102,0.29016592705911026,-2.19434295854792
1705060352367170800,1.1111708984375,0.42013526428006587,0.6250640356943011,0.8933736846510321
1705060352417586000,1.1615859375,-1.5104299896523357,0.11709861273462883,0.6227483791630715
1705060352468022800,1.212022705078125,2.13143072143048,2.333742661409825,-1.3971971398346126
1705060352518446800,1.26244677734375,-0.7713416615016758,1.640673010981828,-1.6733873859733341
1705060352568874800,1.312874755859375,-1.6142818476624785,1.8673668202847242,-3.618228491082787
1705060352619306800,1.363306640625,-0.6899969649843871,0.7023067767854779,-3.9488565759822722
1705060352669723000,1.413722900390625,-0.4991202824613079,-2.207450423532724,-1.7252733482941984
1705060352720168000,1.46416796875,1.6615199841775,-0.9605261896867304,-0.603586984434165
1705060352770589000,1.5145888671875,2.882046259637177,-0.8967323474291712,0.6568390109438449
1705060352821027800,1.56502783203125,-9.7045597448349,1.8074831372082232,5.147320803368092
1705060352871443700,1.615443603515625,-1.7546940885677933,1.6025352957673369,-0.2734698264651932
1705060352921858800,1.66585888671875,5.482093440726399,-2.160408540242165,0.826569993053004
1705060352972309000,1.71630908203125,-0.9659009415276348,-1.2895653248943388,-1.2253547915946692
1705060353022732800,1.76673291015625,2.872564145542681,-0.6668611501991748,-1.765126781385392
1705060353073147600,1.817147705078125,0.2916306110505015,-0.3896350216740742,-0.7154496053446083
1705060353123563800,1.867563720703125,-4.800728548878431,0.26225288793472573,1.0524562853652983
1705060353173993700,1.91799365234375,-1.9090597437627612,1.641248326651752,0.2927192282711156
1705060353224439800,1.968439697265625,-1.9862651485182343,3.874055602020025,-1.9574894281499087
1705060353274852900,2.018852783203125,-2.3597042011402545,0.8383148644477129,0.061643135063652876
1705060353325291000,2.069291015625,0.4652366444947198,-1.029969582138583,1.2570571399994195
1705060353375710700,2.119710693359375,-3.879709682258963,-2.5556442680001257,1.8173820154100655
1705060353426130000,2.1701298828125,-0.6551826220389455,-1.0123214049842209,1.398761028150469
1705060353476576800,2.22057666015625,2.0842469454512,-0.8747567355297505,1.3685245875798164
1705060353526992000,2.270991943359375,-0.44411954912077634,0.877980666012317,1.6338469643540678
1705060353577435600,2.321435546875,0.7539024509228766,2.8712708908617497,0.5908760810188949
1705060353627852800,2.371852783203125,0.9007560499873012,2.0853009845487773,-0.4218429815134033
1705060353678261800,2.42226171875,-1.9115305177904665,0.45141935074012723,-1.2145320765461771
1705060353728692700,2.472692626953125,-1.8105843180939554,-0.6572481032013893,-2.070260359544307
1705060353779140900,2.523140869140625,-2.944747338221967,0.003682538137375377,-2.540228964464366
1705060353829557000,2.573556884765625,-0.6717156044930219,0.0810826571807731,-1.8333862247496842
1705060353879989000,2.623989013671875,0.08563246597223914,0.20463506743097676,-1.3245470602959393
1705060353930402800,2.67440283203125,-1.590144016227871,-0.016837472692830487,-0.3815736610976979
1705060353980843800,2.72484375,-0.8308668134640902,0.15196352595668286,-0.5639477786155417
1705060354031263700,2.775263671875,1.8117501470029354,-1.3184224399358033,-0.5429323535177857
1705060354081678800,2.825678955078125,2.2911336460001763,-1.9386309984229504,-0.47222222906574607
1705060354132125000,2.876125,0.17250565272057428,-1.1571226015634835,-0.02156052372592967
1705060354182540000,2.9265400390625,0.09084629163038917,-1.611998412900418,0.5816077923381701
1705060354232984800,2.97698486328125,0.5026182075796649,-0.9686688718710094,0.6544583263523877
1705060354283401700,3.027401611328125,1.8377229387797414,-0.009732154749252367,0.23430846729138866
1705060354333815800,3.07781591796875,1.1278204461682588,-0.260332623929251,0.524300133762136
1705060354384260900,3.1282607421875,-0.16282883803788573,-0.192303445656877,0.9518526154961436
1705060354434677800,3.178677734375,-0.9707157213982194,-1.0307626322124153,1.7861922196373343
1705060354485103900,3.229103759765625,-1.0506689635571091,0.18763598356880246,2.0073495837315916
1705060354535550000,3.279550048828125,0.09072702176542952,-0.3404068438529968,1.5838605520442128
1705060354585961000,3.3299609375,-0.1599143022980541,-0.716890524867922,1.9384442436791955
1705060354636381000,3.380380859375,-0.6535281328301876,-0.8348086829576641,1.1691815073434262
1705060354686810600,3.430810546875,0.7172863923177123,-1.047792019881308,-0.18917493837280197
1705060354737256700,3.481256591796875,0.6776059777058661,-0.16657233541514724,-1.107028344964981
1705060354787672800,3.5316728515625,-0.37740499711092557,-0.3501528695806861,-1.0872593031991273
1705060354838087700,3.582087646484375,1.474510096617788,-0.19260131435859948,-1.2476273406140506
1705060354888516900,3.632516845703125,1.1304252218391746,0.7840306818787008,-1.146188827355951
1705060354938947800,3.68294775390625,0.39179808145947753,1.5147664114214479,-0.6669607381161302
1705060354989434000,3.73343408203125,-0.5310230488089844,-0.6851932910297066,0.2764412069587968
1705060355039848200,3.78384814453125,-0.7217598114047199,0.166282522155717,-0.4703897894741967
1705060355090264000,3.83426416015625,0.1438390096167568,1.6775712475292384,-1.5503297461032866
1705060355140710100,3.884710205078125,0.07045288002165034,0.08070458111600018,-0.029551161720231173
1705060355191138000,3.935137939453125,0.8557445034805685,0.40283714267238974,0.038293638711853414
1705060355241553200,3.98555322265625,0.034246694558742456,0.0731500558169093,-0.48296347637586295
1705060355291999000,4.0359990234375,0.5604286645786837,-1.0801623306754975,-1.4720121423222123
1705060355342414000,4.0864140625,-0.5292946175811812,-0.5451188307113946,-0.30741365192010994
1705060355392845000,4.136844970703125,0.2449371028061956,-0.5707110622053966,-0.23213855764009056
1705060355443281200,4.18728125,0.5002311663126573,-0.28201685166666285,-0.24971224478613585
1705060355493707300,4.237707275390625,0.279743755635526,-0.41666645565833893,0.2415421996708959
1705060355544121000,4.28812109375,0.006297260384392575,-0.029520065612357572,0.2675725485875271
1705060355594537000,4.338536865234375,-0.8055401375710963,-0.4605369789037853,0.1498800250803586
1705060355644982000,4.38898193359375,-0.4434665651047602,0.18060120782749725,0.3911850275950506
1705060355695397000,4.439397216796875,-0.35610037980824705,-0.004256277481910365,0.3692809465618804
1705060355745825000,4.489824951171875,-0.26048264512550084,0.06069802710011135,0.8568813254907727
1705060355796257000,4.540257080078125,-0.2148713060947135,0.8266260340891778,-0.05323845464205369
1705060355846673000,4.5906728515625,0.5439668841972947,-0.271606955202762,0.08857798137222417
1705060355897119000,4.641118896484375,-0.4684891800172627,-0.3333685061814263,-0.09776005307422019
1705060355947547100,4.691547119140625,0.40985374343618747,1.0886422819901258,-0.4493236205698922
1705060355997962000,4.7419619140625,0.21804034631857647,-0.4048473865162581,0.26338320713890717
1705060356048406000,4.792406005859375,0.8925050851229578,0.7768112520191818,0.4083404162637889
1705060356098823200,4.8428232421875,0.023056612069159745,0.3580999926602468,0.8676697729434818
1705060356149254100,4.893254150390625,0.5935690098972991,-0.28365457240371034,0.11021963947638869
1705060356199670000,4.943669921875,-0.6553058830924332,0.1983202034620568,0.2738687809212133
1705060356250085000,4.994085205078125,-0.16169077391866593,0.6443201595019549,-0.30690646958295253
1705060356300529000,5.04452880859375,-0.3267997587829828,-0.33742318839970975,0.04957667616491671
1705060356350942200,5.094942138671875,-0.18117376528475432,-0.8540401837807148,0.35961766721419985
1705060356401391000,5.14539111328125,-0.37515188442189246,0.23798881803825497,0.677739029501006
1705060356451806000,5.195805908203125,-0.19443327902611343,-0.12550119709726423,-0.06537185956346803
1705060356502220000,5.246219970703125,0.28926358965821564,-0.6191492586925625,0.5704961408130824
1705060356552666000,5.296666015625,0.7796238982871174,-0.07518111868652048,0.8029073779147118
1705060356603082200,5.347082275390625,0.019828446086181794,0.22552063733767716,0.26079737363047895
1705060356653527000,5.397527099609375,1.0443809693288058,0.7430624924786389,0.14965829948792234
1705060356703941000,5.447941162109375,-0.7852694298934191,0.6414965534485876,0.5012395031049848
1705060356754357000,5.49835693359375,0.2656877394879237,-0.3021516397386789,0.8655704625766724
1705060356804802300,5.54880224609375,0.043044438551692286,-0.5553109927713871,1.323294429886341
1705060356855231000,5.59923095703125,-2.115746099434048,0.7472637435607612,0.5868637401049956
1705060356905646000,5.64964599609375,0.46994573550112545,1.406274764781445,-0.22430481354082002
1705060356956092200,5.700092041015625,-2.8619886832535264,1.648695135526359,0.9227688520919531
1705060357006507300,5.75050732421875,-6.437356522253156,2.7019801998659965,0.3442683050541207
1705060357056938200,5.800938232421875,1.6186542175278067,-3.4557243914872404,1.1559775231815874
1705060357107354000,5.85135400390625,-4.074038952921331,-1.1675652312532068,1.8214410815425217
1705060357157799000,5.901798828125,0.5054796979580074,-2.1859655908249316,1.2164249045554547
1705060357208211200,5.952211181640625,2.0108432710662485,-2.134903950498998,-0.26994605451952663
1705060357258630100,6.002630126953125,2.9960879416197534,0.15505396625269202,-2.66075737811774
1705060357309075200,6.0530751953125,0.9622206455796957,0.34956279473304747,-4.536318318513035
1705060357359489300,6.1034892578125,0.7494174144633113,-0.6857528246086091,-5.341722847005725
1705060357409936100,6.15393603515625,1.7841174591898916,-4.2535996935188765,-4.175726180243492
1705060357460351000,6.20435107421875,0.07137731965649873,-3.1672733603209253,-2.368599893648922
1705060357510780200,6.2547802734375,4.049996106293797,-3.0661338300094005,0.4390773902351036
1705060357561212200,6.305212158203125,1.0258974373288452,1.7482447662979363,3.72347545671314
1705060357611639000,6.35563916015625,0.6331465121239424,0.7986255358770489,4.548230582363903
1705060357662055000,6.406054931640625,-2.830530299672484,-1.6681047693952917,2.364052021086216
1705060357712470000,6.456469970703125,-7.477772168147563,0.6665683777976781,0.14790340037830174
1705060357762916000,6.506916015625,-1.289521778013557,-2.1879310456790027,-0.0008910424715035332
1705060357813329000,6.557328857421875,-3.164868052744865,0.6260141029607504,0.0020579757073006474
1705060357863763200,6.60776318359375,-0.3719624772634357,-0.14727629058905875,-1.262968117608875
1705060357914178000,6.658177978515625,-2.2051896389938888,-0.7104046699799597,-3.395718543335795
1705060357964622800,6.708622802734375,-1.4034304812662302,-2.973699876461923,-2.8061633356571196
1705060358015038000,6.759037841796875,0.8130302741307764,-3.6422909191936252,-2.2435358823925253
1705060358065484000,6.809484130859375,-0.31704101970419285,-1.700204665750265,0.31787275782059876
1705060358115899100,6.859899169921875,4.392897689571976,4.413616652473807,5.0602621131181715
1705060358166313200,6.910313232421875,-6.987119233247637,-1.6690106321938334,-0.2596390339082107
1705060358216759300,6.96075927734375,7.386403213483095,2.9431951403439043,0.328868856674619
1705060358267174000,7.011173828125,-2.859882066363096,1.1167913948927075,1.571076327664405
1705060358317620000,7.061619873046875,-5.032298585915565,-0.7020674150716513,1.06697683201842
1705060358368031000,7.112031005859375,-1.8241532631106674,-0.7262346187312155,1.9526574779488146
1705060358418455000,7.162455078125,11.251630196881294,1.981379714564234,0.5221231915818527
1705060358468876000,7.2128759765625,0.24997577282683922,-0.102455508280918,2.078522430324554
1705060358519324200,7.26332421875,-7.259441551911831,-1.8053965401925145,1.6388305979855358
1705060358569757000,7.3137568359375,12.257886968064307,-0.8327882830459624,-2.7953385747820136
1705060358620167000,7.3641669921875,-22.984883049988746,-3.697868429508805,1.3348669403888285
1705060358670601200,7.414601318359375,7.6739862296432255,-0.9021882016822695,0.1118189004997257
1705060358721015000,7.46501513671875,2.8591593050464987,4.323917092326283,-0.5513352210082113
1705060358771442200,7.515442138671875,-7.636448233887553,1.8713345548719167,0.5667254266353323
1705060358821870000,7.5658701171875,1.9811688482925294,-2.213504316744208,-0.8285764375045895
1705060358872307000,7.616306884765625,2.0322559153206647,-5.622659264758229,1.8557894874766467
1705060358922722000,7.66672216796875,-0.7521405558168888,-0.15989700410338117,-1.0690697126444428
1705060358973167000,7.7171669921875,0.5277916291397065,0.5346595421478152,-1.442292126841098
1705060359023596000,7.767595947265625,-0.9913252325762063,-2.336367749216407,2.1127406340077517
1705060359074028000,7.818028076171875,2.0747584016159175,-1.1481713794752955,2.4444193970039487
1705060359124436200,7.868436279296875,-0.6931186772014946,2.3081349035531282,0.8779295934122056
1705060359174872000,7.9188720703125,2.8839567694336172,1.8517161005578935,1.3596027377165854
1705060359225288200,7.9692880859375,0.9876748933751135,2.200903193846345,1.12430944237262
1705060359275734300,8.019734375,-0.08737451473344117,0.7549484528444707,-0.29918899054080245
1705060359326148000,8.070148193359374,-1.5802898539505899,-1.2111233640812338,0.5790278588475659
1705060359376583200,8.120583251953125,-1.3665231846295296,-1.8775274181626735,0.4704173350682482
1705060359426994200,8.170994140625,-0.6717955378614365,0.2754321395141072,0.515983775511384
1705060359477441000,8.22144091796875,0.23520099568432196,0.0245817278607632,0.4768555879548192
1705060359527856000,8.271856201171875,0.7450928292624652,0.7933142777264117,0.34078879237528886
1705060359578270200,8.322270263671875,0.4820588556863367,1.7612794583074747,0.09033260648720898
1705060359628700000,8.372699951171874,0.1532953773486428,2.460651569880545,0.5613020864123478
1705060359679131100,8.423131103515624,0.9635247139155864,-1.2577072744712232,1.3930973033003509
1705060359729577000,8.473576904296875,1.35494088338539,-4.401696497577428,0.6336698784109205
1705060359779992000,8.523991943359375,1.1057950768429785,-4.699359301464259,-0.9657868136286735
1705060359830407200,8.5744072265625,-0.8684948255907744,-3.1376714182615277,-2.6865906152933836
1705060359880848100,8.62484814453125,-0.6121365303862839,-0.7658713403318077,-1.0602989616896956
1705060359931281200,8.67528125,1.1584265237689018,1.8625357468664645,0.5832319594739005
1705060359981724000,8.725723876953126,-1.3862724257163703,-1.127062978864461,-1.471452316482365
1705060360032164000,8.7761640625,0.015086274794081691,1.3779963264107704,0.43084728549569845
1705060360082569200,8.8265693359375,-0.5079136836392805,0.3682947120035067,0.8998786826308817
1705060360133015000,8.87701513671875,-0.39889278896078467,0.4141130083158612,0.4671663704482838
1705060360183431000,8.927430908203124,1.0010374290995299,-1.5412326858036218,1.4112759340696035
1705060360233864200,8.9778642578125,-1.0327215111952275,-0.3134815005917102,1.2491557192251086
1705060360284292000,9.0282919921875,0.3922937560219317,-0.5559416553577408,1.3121117954842745
1705060360334707000,9.07870703125,-0.4793586568169296,-0.7651594657354056,0.886701148084551
1705060360385152000,9.129152099609374,-2.1486279399469494,-1.2719995653264224,0.844781941569969
1705060360435566800,9.17956689453125,-1.174270793306455,-2.610177237698436,1.2350683032922447
1705060360486013000,9.230012939453125,1.678063561090827,-0.7766036736831069,0.9244612621583044
1705060360536441000,9.280441162109375,0.6855621243420988,2.939255170546472,0.9210410053860396
1705060360586856000,9.33085595703125,1.2791475373849273,1.8164387432105837,0.49035168693102893
1705060360637268000,9.38126806640625,0.7628836297579109,0.17436470632441342,0.7999030815321951
1705060360687716000,9.431716064453125,-0.09366100199124776,0.5355441429626197,1.0748838057506829
1705060360738133000,9.482133056640626,-0.35280780453626065,-0.15645128409629686,-0.18038723628325387
1705060360788577000,9.532576904296874,-0.2666752161553129,-0.6449149835899471,-0.19151118103433398
1705060360838993200,9.5829931640625,0.24294651351086793,-0.05907906586246099,0.29937307840343563
1705060360889424100,9.633424072265624,0.5782611853240057,-0.581750890603289,0.19412993043167515
1705060360939839000,9.6838388671875,0.08324477625126019,0.1764032081483863,-0.04408538983883336
1705060360990284800,9.734284912109375,0.8152147054977714,-0.3919087752923369,-0.6426421432871371
1705060361040700000,9.784699951171875,0.2850264270124957,-0.15737239926289767,-0.34775150752738115
1705060361091115000,9.835114990234375,0.4601768768871203,-0.23694535513361914,0.07966873526223935
1705060361141543000,9.88554296875,0.35217367135118693,0.1257392162373755,0.024775243422156198
1705060361191976200,9.93597607421875,-0.19252466892581432,0.1714740811831318,1.444170487933606
1705060361242420000,9.986419921875,-0.08382828436079434,2.5182082713142036,0.41801768760420377
1705060361292836900,10.0368369140625,1.5710511932231486,-1.7776606842659413,-1.632451710603386
1705060361343252000,10.087251953125,-0.6345769102532416,-3.66940835096091,-1.100379700730741
1705060361393680100,10.13768017578125,0.47070060898903754,-1.722057308857143,-1.0030533720318227
1705060361444126000,10.1881259765625,0.6311437209341675,-0.05418238899523858,0.6595765461489558
1705060361494540000,10.2385400390625,1.0161548456672578,-0.775339791227132,0.35496016026455907
1705060361544972000,10.288971923828125,1.062059030164778,0.31080504792407154,-0.5571574608882889
1705060361595388000,10.339387939453125,0.016363224510895086,2.500128132483363,1.8967459133736788
1705060361645833000,10.3898330078125,-0.015026233436225446,4.116886453261971,3.7203798287853598
1705060361696248000,10.440248046875,0.633391426795721,4.09416404158324,3.9677670281574127
1705060361746676000,10.490676025390625,-2.8654554825812575,-2.5103581423357126,-1.4472823363438247
1705060361797108000,10.54110791015625,2.8918256031125784,0.310760514662601,-3.188831404395401
1705060361847523800,10.59152392578125,1.9789837593384085,-2.2181972968660295,-0.7119820022992789
1705060361897970000,10.641969970703125,-1.0753189092323183,-3.749008834159374,-0.9933833341497927
1705060361948385000,10.692385009765625,2.514850485318899,-1.806923019107431,-0.006071775928046554
1705060361998814200,10.742814208984376,-1.1074796689290554,0.939128377675265,2.144319575228542
1705060362049227000,10.79322705078125,0.15277962811253964,4.835372576758266,0.8804322969481349
1705060362099660000,10.843659912109375,0.5887355983914807,2.30438285754323,-1.9054086739093063
1705060362150103000,10.89410302734375,4.096740614072978,-4.333477532353997,-3.116120972971618
1705060362200534000,10.944533935546875,-0.8429413552045821,1.0904846219211817,-3.0389675906643268
1705060362250950100,10.9949501953125,1.6723460602268576,1.3104424009673297,-0.09221403631963766
1705060362301361200,11.045361083984375,1.002267117024958,-0.4968896373324096,1.089421814995259
1705060362351799000,11.095799072265624,-1.555062619844079,-3.7516900360673664,2.727856983922422
1705060362402242000,11.146241943359374,1.0132597087476403,7.275113752818108,-3.688926998162269
1705060362452656000,11.19665625,2.566790515914559,-0.4035889108877629,-1.1943233281888066
1705060362503071000,11.247071044921874,-1.0243933163762091,-1.1757609587989746,-0.8253529454134404
1705060362553518000,11.29751806640625,1.6964795077472925,0.605587035677582,0.4105944057356566
1705060362603934000,11.347933837890626,-0.8139386211473494,0.257669231672585,0.15602357846982776
1705060362654378000,11.3983779296875,1.3250849665649234,-0.3539188345180824,0.902322130260244
1705060362704793000,11.44879296875,2.7801687704399227,4.8745235606685275,1.4041694630652666
1705060362755207200,11.499207275390624,-1.3886173814073204,-4.349458653078973,-0.6788500594828277
1705060362805653000,11.549653076171875,-0.26848999222600833,-4.000656905846298,0.3347491103522479
1705060362856067800,11.60006787109375,3.5747812712833285,1.7641687500081955,2.813049880300462
1705060362906498000,11.650498046875,-3.2378654844164845,-0.29666886094603684,0.06063756105056964
1705060362956913000,11.700912841796875,0.14998852695613168,1.6378363262511788,1.1987957243625074
1705060363007340000,11.751340087890625,-1.6768578385628758,5.168168945607543,-0.6847350258681922
1705060363057789200,11.8017890625,0.6164151575535536,1.7951180150233208,-1.263834232918918
1705060363108205000,11.852205078125,-0.21058219406604767,-1.0238174161843956,0.14892322667902336
1705060363158620200,11.9026201171875,3.3675019181549546,0.550977091752924,1.4549717218026519
1705060363209056000,11.953055908203124,-3.2354289049193263,-3.1412159590005873,0.3754056399872526
1705060363259480800,12.003480712890624,-0.3736961691882461,-1.9001000461071729,0.49272393248770385
1705060363309926100,12.053926025390625,2.3239675557181236,-3.5605452406600118,0.5727914852086454
1705060363360341000,12.104341064453125,1.3628985643915832,-3.8324218613833185,0.2371581393677741
1705060363410756000,12.154756103515625,0.4929770669985562,2.5144465806931255,-0.1833057906110771
1705060363461201000,12.205200927734374,0.71255351857692,-0.37353973651751876,-0.27824727000007404
1705060363511633000,12.2556328125,0.9305895357802509,-0.6573264291346073,0.8478926940016448
1705060363562062000,12.30606201171875,-0.6052369070656597,1.911425011589378,0.6209763279892504
1705060363612471000,12.356470947265626,0.210185139306169,-0.794864210582152,-0.6799127933435142
1705060363662905900,12.40690576171875,-0.0683708039174322,0.327299598063901,-0.6883422565799207
1705060363713321000,12.457321044921875,0.10641292240349576,-0.20806577253201974,-0.6010969942493364
1705060363763767000,12.50776708984375,-0.911779036848247,3.2329037703558803,-0.7219307840574533
1705060363814189000,12.55818896484375,1.4904425558954477,2.1584300797760485,-1.6353709590509533
1705060363864606000,12.60860595703125,-1.5104988171048461,-0.46084641017913813,0.6374718279771506
1705060363915049000,12.659049072265624,-0.20829364473745227,-0.5808530284481123,1.570107628762722
1705060363965473800,12.709473876953124,0.6513507157258689,-1.1613706874620169,0.10147083549196831
1705060364015890200,12.75989013671875,0.30297495708661154,-0.43415823667459186,0.03096765005518682
1705060364066304000,12.810303955078124,0.00899903415213339,0.9878002733204513,0.12461515324404462
1705060364116752000,12.860751953125,-0.45318592202123253,-0.8439357000041753,0.35218890545293685
1705060364167165000,12.9111650390625,0.10383784775109961,-1.175318475728482,0.42031379918474704
1705060364217611000,12.961611083984375,-0.08409026889838278,0.10606359750917181,0.25776965983975675
1705060364268026000,13.012026123046875,0.015297471000993391,-0.16435557268112896,0.07552740680696442
1705060364318441000,13.06244091796875,0.0462208903304534,0.21438668264923616,0.2508815625601448
1705060364368886000,13.112885986328125,1.7052942439742385,0.6713478671591728,0.9582700813230126
1705060364419295000,13.163294921875,-0.0293708755331696,-0.5180278850922361,-0.32763511362858116
1705060364469729800,13.213729736328125,-1.3457654971525073,1.5728395379446447,-0.7371827867902815
1705060364520175000,13.264175048828125,-1.8045178576618432,-0.9315595498561858,-0.09057585892486386
1705060364570590000,13.31458984375,-0.3652610068634152,0.8294904836095869,0.6542405188832432
1705060364621023000,13.36502294921875,-1.4295545180819929,0.9035700114294886,-0.32212774838395414
1705060364671437000,13.41543701171875,-0.08821426262636668,1.5334263959668575,1.0812141778159885
1705060364721880800,13.465880859375,-0.659787339355424,1.5917976286537945,0.4097509041162207
1705060364772298000,13.516298095703124,-0.9190420866537838,-3.0060531630560754,-1.9995460703738033
1705060364822727000,13.566726806640625,-2.0739918011575935,-2.6997438191160557,0.07079008521991781
1705060364873159000,13.617158935546875,-1.3147512040771543,1.5024657327748834,0.6080004900274798
1705060364923574000,13.667573974609375,-1.2541910830438137,0.4281812080916017,0.9130347359977662
1705060364974039300,13.718039306640625,-1.6325056327477097,0.20405434493357313,-0.487386443917267
1705060365024473000,13.76847314453125,-1.9311261757507918,-1.2110103321608154,-1.180394683014229
1705060365074899200,13.818899169921876,-2.0241079724393782,-1.983978352755308,-1.6577131392404436
1705060365125345300,13.86934521484375,-0.5256588914273307,-0.5905113393597304,-1.469858763680607
1705060365175774200,13.919774169921874,0.14256501675872132,-1.0941366416227072,1.2081233785476535
1705060365226189000,13.97018896484375,2.0063617417380213,-0.5599511467274279,-0.12737990524964407
1705060365276626200,14.020626220703125,1.2445650304339826,-4.30740025728941,-0.11870223940582945
1705060365327051300,14.07105126953125,0.657542263842374,-1.3473314312949776,1.1131340414289383
1705060365377483000,14.12148291015625,0.8971378594901412,3.2165771971940993,-0.18736834560856222
1705060365427896300,14.171896240234375,0.5091451981956139,4.3270559748739,-0.4975632257450372
1705060365478332200,14.222332275390626,-0.4087410329539329,2.9241011482954025,0.3169653606520966
1705060365528741000,14.2727412109375,-0.9807928787764161,0.8791676838397979,0.5342918778792023
1705060365579186200,14.323186279296875,-1.4551406486287712,0.6085595121497288,0.5995221826806664
1705060365629599000,14.373598876953125,-2.6639938758209345,-0.22065483966590835,-0.5840419606825337
1705060365680016400,14.424016357421875,-3.0611104488894343,-0.12577853446761145,2.7194194104447957
1705060365730449200,14.47444921875,0.22214564447924492,-8.080407222151756,-0.5743101826759055
1705060365780877000,14.524876953125,3.936900472989678,-5.674761207917332,1.474104584556818
1705060365831322000,14.575322021484375,2.177468396114558,-1.9504449164658784,-4.382231041868031
1705060365881738200,14.62573828125,0.2507013106224127,0.527965780130215,-1.36915236408934
1705060365932173300,14.67617333984375,-0.6860613060358911,6.054083765619993,0.30968170644994825
1705060365982592000,14.726592041015625,-0.6065740374209359,4.147795970788597,1.1868394021742046
1705060366033014300,14.77701416015625,-1.7599942408025264,4.171903407084941,0.7254200144127011
1705060366083458300,14.827458251953125,-1.5063630324743686,4.026197297555208,0.16099678203882647
1705060366133860000,14.877860107421874,-2.426777649590373,-2.1149778915405273,0.3445159231396392
1705060366184290000,14.9282900390625,-0.584784120819345,-13.099918807208537,2.9930972353711724
1705060366234735400,14.9787353515625,-1.2785086549594997,4.275296269281208,-0.9883336495447903
1705060366285150200,15.029150146484374,5.757260627427697,-2.159503554226458,-1.02703309029527
1705060366335588000,15.079588134765626,2.095757642763853,-10.406376473081112,-1.4135098306015133
1705060366385997300,15.129997314453124,1.0956452195547521,-0.23426119408356025,1.649076682189852
1705060366436441000,15.180441162109375,3.5009728154897686,2.102861775680631,-0.8881628181349486
1705060366486857200,15.230857177734375,1.146289657381922,4.968482239565253,-1.338623954834789
1705060366537286400,15.281286376953124,0.0855705888503231,4.6310096955984825,1.3943059484377502
1705060366587717400,15.33171728515625,-1.512717516067624,1.7842583289653062,0.5818532549992204
1705060366638133200,15.38213330078125,-2.6193416641458867,-1.0453132086776196,0.5393433525824919
1705060366688555300,15.43255517578125,-1.8682871500000358,-3.056489218829572,-3.9548783204898235
1705060366739006200,15.483006103515624,-1.212272753312066,3.4938951321884986,-1.1179409302540122
1705060366789412400,15.533412353515626,2.599152570337057,-7.8468264298141,2.1676744395919143
1705060366839838200,15.583838134765625,4.009105877500772,-0.7402247117694467,4.388790838775038
1705060366890282200,15.6342822265625,4.308031248669326,-1.735016013021022,-1.2662800186358392
1705060366940715300,15.68471533203125,0.1013881073782686,-2.168743822389096,1.8733308432556688
1705060366991129000,15.735129150390625,-1.9737527268171309,5.123333194059133,0.848277820861712
1705060367041545200,15.785545166015625,-1.1044073488116264,4.712720010557771,0.3782285519208759
1705060367091990300,15.835990234375,-0.0799704124893993,3.119338181452453,0.2134496027285233
1705060367142419200,15.886419189453125,-1.9191295946173368,-1.1641072728190571,-0.2978144690508954
1705060367192820200,15.9368203125,0.6092316027250141,-4.613743211238086,-0.4435665914131328
1705060367243265000,15.98726513671875,-2.3661504546701906,-3.48214331959635,0.38880467179715633
1705060367293680000,16.03768017578125,2.8406024886146186,-0.5680137494128197,-0.7849797262318432
1705060367344127200,16.088127197265624,5.960871228915453,-4.770410567504167,0.7070552134215832
1705060367394527200,16.13852734375,1.7191918364234267,-0.7839602469909935,-0.9670461660400033
1705060367444974000,16.18897412109375,2.2486099707864224,-2.9365166854932903,0.445718179956451
1705060367495379200,16.239379150390626,1.4309502102240919,3.482732517661154,1.3508071445815264
1705060367545830100,16.289830078125,1.1048569192100315,6.423524396255612,-0.0574908011571737
1705060367596245200,16.340245361328126,-0.34350466373786326,5.014093067139386,-0.7000592901196331
1705060367646678300,16.39067822265625,-2.746115401929617,0.9370713720802217,0.8925701862484217
1705060367697092400,16.44109228515625,-1.8159971369229255,-5.637381033071875,0.7331263510063291
1705060367747517200,16.49151708984375,-3.083856241443753,-0.4842006534880027,-0.00698059958112135
1705060367797953000,16.541953125,0.0006845404919600696,-3.4758591247603294,0.7707658343750983
1705060367848368000,16.5923681640625,2.5625229215979575,2.0127626948215065,0.5555347550572827
1705060367898813200,16.642813232421876,4.930044664621353,-1.6576744146652518,1.2235004689648747
1705060367949229300,16.693229248046876,1.7116167249940335,-2.0427602120697497,-0.7417009948670864
1705060367999675400,16.74367529296875,0.9030039750445633,1.0766820142790674,-0.6258013369929045
1705060368050099200,16.79409912109375,-0.09222567195850424,3.5189661528199907,0.09060719477804377
1705060368100505000,16.844505126953123,-1.6475450887084007,3.190866417354345,2.6509415020242333
1705060368150950100,16.8949501953125,-0.7133122279897331,4.879333006776869,1.5053336894266307
1705060368201374200,16.945374267578124,-1.7493255472719669,-1.5731543029822408,-1.0615853482384234
1705060368251793200,16.995793212890625,0.19239612890901042,-5.58170181594789,-0.9667731212522834
1705060368302208300,17.046208251953125,-2.531715695402026,-1.4701403571009635,-0.15780664422800764
1705060368352651000,17.096651123046875,3.4567055114790795,-3.4519124319836494,-0.42725181828700004
1705060368403069200,17.147069091796876,2.761540642337501,0.7241494099549949,2.2963952197901905
1705060368453502200,17.197502197265624,2.110596461585909,-2.6388535893455147,-0.09339059668518603
1705060368503917300,17.247917236328124,1.6050187831461429,-3.1880247641876336,1.6821037763923405
1705060368554361000,17.298361083984375,1.6509193874470889,4.073719511708617,0.051678064324380824
1705060368604777200,17.348777099609375,1.2517691165938973,5.492117406612635,-0.25024337425446136
1705060368655197200,17.399197265625,0.14199047740693202,3.0026749187946318,0.012845256684930063
1705060368705637000,17.44963720703125,-0.1751475089988671,1.8674945383176207,-0.8465778120107949
1705060368756053200,17.50005322265625,-1.0678459430031477,-1.6459649799101053,0.9802201203897595
1705060368806498300,17.550498291015625,-3.469082762493193,-4.127698939177393,2.196714217723906
1705060368856913400,17.600913330078125,-2.589257199266553,2.6760399951845404,2.462580199855566
1705060368907359200,17.651359130859376,2.144506037711352,-3.3691622525826093,-0.552130828365311
1705060368957783300,17.701783203125,5.074192438793182,-1.7471200000517069,0.2118917605609633
1705060369008202200,17.7522021484375,4.7035064842715855,-1.4870461914554238,-1.8752756937131285
1705060369058617000,17.8026171875,2.061031927949935,-3.5877667173236607,-2.5840730746269225
1705060369109041200,17.853041259765625,0.48600956607349216,2.4815607946574687,-0.8811697443772107
1705060369159465200,17.90346533203125,0.3240506062053144,5.617533007785678,0.0668650207306724
1705060369209916200,17.953916259765624,-0.8567647133737802,2.0155526178009806,1.0727560730069876
1705060369260321000,18.004321044921873,-1.3664273230396211,2.152547159217298,2.2632595506466924
1705060369310771200,18.054771240234373,-1.302974257043749,-0.4710641816044226,2.76745425029546
1705060369361191200,18.105191162109374,0.8874101731367409,-4.457505186299979,-0.34024573500715194
1705060369411614200,18.1556142578125,-3.1472657605588434,-1.087841121675074,1.3755471796929835
1705060369462046200,18.206046142578124,1.3114603458382188,0.7174279927454889,-1.256954410277307
1705060369512468200,18.25646826171875,5.759536171144247,-3.2552737153351305,0.5119706674125045
1705060369562888200,18.30688818359375,-0.03125295381956966,2.737778658477962,-2.783432156150043
1705060369613305300,18.357305419921875,2.8506416520699855,-7.798837767192721,2.668822026629746
1705060369663737300,18.4077373046875,0.021616973470768425,-2.218345911556482,4.749905831874907
1705060369714173400,18.45817333984375,3.9314126892283556,3.726399235205352,-1.0537293009757995
1705060369764611300,18.508611328125,2.733708632560074,5.284359622317552,-3.24236016548723
1705060369815027200,18.559027099609374,-0.8883763878203927,4.370220286078751,-0.9980681309651583
1705060369865437200,18.609437255859376,-1.8455292286165057,0.21126515309521926,3.138887223792076
1705060369915882000,18.659882080078123,-1.2012551002133638,-0.7431666835054754,1.851217941777408
1705060369966326300,18.710326171875,-2.4206356397040185,-0.4561770301286131,0.4017847475426271
1705060370016759000,18.760759033203126,-2.208627066096663,2.296169740471244,1.5429140630193054
1705060370067174100,18.811174072265626,0.11964299998781643,-4.8172442148715255,4.456701760962606
1705060370117620200,18.8616201171875,4.3191058926522725,-0.7263627020902931,1.1370146832320838
1705060370168051200,18.91205126953125,4.6883495394110675,-2.063338305196166,1.858036389620602
1705060370218449200,18.96244921875,2.5593577355653045,-1.9125274198733269,0.26188747042212634
1705060370268895200,19.012895263671876,0.7195508301183581,2.2836600952491164,1.297241997002065
1705060370319309300,19.063309326171876,0.37879813196975737,3.0147537713840604,2.516337216745317
1705060370369755100,19.113755126953127,-0.1829578356899321,0.6235682441785931,0.2405473251483403
1705060370420171000,19.1641708984375,0.18694686879348008,3.145472447401285,-1.6748494213499128
1705060370470599200,19.21459912109375,-1.9591789886720476,0.867131647478789,-2.440203240613639
1705060370521032200,19.2650322265625,-1.8739144883625207,-2.7738462894201277,0.20856374864941463
1705060370571459000,19.315458984375,-5.089332724779844,-2.5728806494832037,3.6994796640977263
1705060370621875000,19.365875,-0.030667477515235075,-0.339573754029721,1.1173803006965666
1705060370672306200,19.41630615234375,7.456597862693667,-7.245843819192052,1.5683575702250003
1705060370722722000,19.46672216796875,-0.10602485466767102,-0.058354098889045414,0.2897531815397553
1705060370773168000,19.517168212890624,1.9353985923729835,-3.607545769026875,-1.6480280499197542
1705060370823583200,19.567583251953124,0.23930485080657526,-0.9398713780622929,1.0808686523139477
1705060370873992200,19.6179921875,0.08509898015004583,4.672475678452849,1.7287155977025628
1705060370924443100,19.668443115234375,1.3414125626400113,6.57685091766119,0.059906949787656774
1705060370974858000,19.71885791015625,-1.8807910961337386,3.859355461016297,0.026522762942919505
1705060371025303000,19.769302978515626,-1.3487857217565178,0.9350697499342262,2.1577194472886623
1705060371075730200,19.819730224609376,-2.5159403263822195,-3.49476051684618,0.44123029395267366
1705060371126134300,19.87013427734375,-2.4027070381730793,-2.5859736475512385,3.260851515467465
1705060371176579300,19.920579345703125,-0.13621306304926983,-4.732475389124453,0.7041802425071597
1705060371227005200,19.971005126953123,2.6711680052340028,-2.8267633483543992,2.2468816856890914
1705060371277423000,20.021423095703124,5.588578131458163,-5.391763765981793,-0.4749045269522816
1705060371327838200,20.071838134765624,1.4887982958197592,1.6521800550326704,-2.8090166792616245
1705060371378283000,20.122282958984375,0.5388087707817554,2.2441569369003176,0.26063485827883703
1705060371428698000,20.172697998046875,-0.8377712590903044,3.671934070046246,0.8543912622407078
1705060371479131100,20.223131103515627,-0.9852077726092189,2.4884192822501063,-0.3980688688246533
1705060371529546000,20.2735458984375,0.23709389675883574,2.1268306802891193,-1.626669473940134
1705060371579991000,20.323990966796874,-2.5881343327164648,-2.736128260922432,0.924850992128253
1705060371630405000,20.374405029296874,-1.853001025801897,-2.0582228618785736,-1.0967574185803532
1705060371680836000,20.424836181640625,-2.883306488831341,-0.8351764202915132,-1.215357202258706
1705060371731267300,20.475267333984377,3.170279264138639,-5.644231629619002,0.6215531049638986
1705060371781681200,20.52568115234375,1.8730876821495592,-0.5290275641428306,3.2427056179240346
1705060371832128000,20.5761279296875,4.482435629417002,-2.2651621693976223,-1.5158474846564232
1705060371882543000,20.626543212890624,1.250209466061741,-3.616895781174302,1.6533103742368518
1705060371932957200,20.676957275390624,0.08402718620006926,2.491504388783872,2.151742418705672
1705060371983409200,20.7274091796875,1.8875733036197722,5.818362454122305,0.2255748882755637
1705060372033832200,20.777832275390626,-0.11238763116523623,4.281135350698232,-0.05681149082323536
1705060372084246300,20.828246337890626,-1.0178578501928597,1.9167149346910417,0.5913912274667993
1705060372134692000,20.878692138671877,-0.18696940941885112,0.9004150545299052,0.7200950930628925
1705060372185094100,20.92909423828125,-2.877323907290399,-2.5373452257215976,0.8539024558104574
1705060372235539200,20.979539306640625,-3.712455173265934,-0.8523902976818383,2.057632787030935
1705060372285950200,21.0299501953125,-0.3107510161818936,-6.681671474573016,0.8982747545655816
1705060372336370200,21.0803701171875,3.245798030981421,-1.1579638016279785,1.4868521301880477
1705060372386814200,21.130814208984376,4.4077915995821355,-4.424864607197046,-0.04603088875026442
1705060372437229000,21.18122900390625,1.3623178418941795,0.1946524382021278,-1.5072908148437738
1705060372487676200,21.23167626953125,0.3221885386604815,3.867405496481061,-0.2040594595001079
1705060372538090200,21.28209033203125,-0.1920224184921011,5.454926616859436,1.0167722469132392
1705060372588506000,21.332506103515627,-1.231332039373368,2.8914710905864833,-0.610710406573303
1705060372638951200,21.382951171875,-1.1392839433383195,0.081527797999233,-0.2792589495269582
1705060372689366000,21.433365966796874,-2.2491104676544666,-1.1659890679776668,0.6664336455021053
1705060372739794000,21.4837939453125,-0.11978852767203933,-2.0305749764963985,-1.2500364475823937
1705060372790209000,21.534208984375,-3.8451211839586494,-3.241896931889653,-0.749856390402466
1705060372840655000,21.584655029296876,3.368411726476252,-2.1937980380162596,0.2868270466936752
1705060372891070200,21.6350703125,4.997482708600163,-3.9401989300131794,0.2814002906708978
1705060372941492000,21.685491943359374,2.3380355362981557,-3.9921798771411177,1.8140493638560176
1705060372991933200,21.73593310546875,2.883090215732157,-1.5193074158519506,3.5006600962787866
1705060373042347300,21.78634716796875,0.6022451413711533,3.689880645625293,-0.592901485899277
1705060373092791000,21.836791015625,2.1385341236948965,6.310552681592107,-0.13502820977941155
1705060373143207200,21.887207275390626,0.7747280160043388,4.805278759528696,1.2590534283831716
1705060373193623000,21.937623046875,-0.9161261261418461,1.9805536390036342,0.5365882451880722
1705060373244068000,21.988068115234373,-2.0811131774701175,-1.340760966863483,0.40978824045192447
1705060373294499000,22.0384990234375,-1.6353757813565433,-3.3770033214718103,-0.33856019307300445
1705060373344914200,22.0889140625,-3.9023341865211725,-2.34365922139883,2.163444400806725
1705060373395330300,22.139330322265625,-0.12384515525223687,-2.4693489633381365,1.121827635494247
1705060373445775000,22.189775146484376,3.9027965433359144,-3.2684365637689825,3.0709155113279816
1705060373496187100,22.240187255859375,4.876796766297519,-4.031002067488432,1.217501082419604
1705060373546618000,22.2906181640625,1.4568432147629558,1.8105989311411976,-3.0897470530480144
1705060373597064000,22.34106396484375,0.7690769314400852,-1.82099626038447,7.873134591025114
1705060373647480000,22.39147998046875,-0.4272292045963928,8.101851576718687,-4.433305103284121
1705060373697911000,22.4419111328125,-0.31361075299456714,3.215581464155018,-1.8427854828663168
1705060373748326100,22.492326171875,-2.47510533490777,0.6401240960516035,1.5812972774274647
1705060373798759200,22.54275927734375,-0.694493691881746,0.5535300276387483,0.8333679826300591
1705060373849187000,22.59318701171875,-1.1796189494013785,-6.025980537685752,-2.7365485321611165
1705060373899602200,22.643602294921877,-4.062777261933684,1.0438023657232522,0.7154221328157931
1705060373950047000,22.694046875,3.514525540024042,-5.357222613954543,0.2704793759449385
1705060374000462000,22.744462158203124,6.198228617182374,-6.357974942502379,0.8722915144599974
1705060374050877200,22.794877197265624,1.2828257875062525,-1.587128467798978,3.478332529136538
1705060374101310000,22.84531005859375,1.275814447439462,-0.190502661578916,2.669687411287427
1705060374151738000,22.895738037109375,3.049619917581975,5.351636338254809,-1.265739335887879
1705060374202184200,22.94618408203125,1.2409884871214627,6.961494962647556,0.21428305787798016
1705060374252581000,22.9965810546875,-0.6799742412071674,1.544841231689602,1.4637905496828256
1705060374303027200,23.047027099609377,-1.3066041379787028,-0.5371116114750504,2.217843368861824
1705060374353442300,23.0974423828125,-2.4990306926354764,-5.564751850190758,0.8962849689878523
1705060374403887000,23.14788720703125,-2.244191423691809,1.051310403265804,0.4421742968045175
1705060374454302000,23.198302001953124,2.2703603225626052,-3.723549983254075,1.384541218009591
1705060374504735200,23.2487353515625,5.835189085760712,-1.649568118968606,5.160877619555592
1705060374555150000,23.299150146484376,6.468110556957125,-2.470588442005217,0.4006689317878335
1705060374605596200,23.34959619140625,2.3173510601878164,-0.4327927204750478,-0.772363405764848
1705060374656010200,23.40001025390625,-0.2582637269670144,3.7771418727099895,2.460190966631472
1705060374706439000,23.45043896484375,-0.5105755232596769,4.6256689190924165,1.8044469843827187
1705060374756871200,23.50087109375,0.4155348578125238,2.450018824446201,-1.1209638582717627
1705060374807286000,23.5512861328125,-1.2334871715806424,-0.15061422110642306,-1.300423111256212
1705060374857701000,23.601701171875,-0.0150505892760586,-2.6083108593046664,0.2761261861928738
1705060374908147200,23.652147216796877,-3.591816284975409,-3.9143282834365962,0.4005564843893051
1705060374958561300,23.702561279296877,3.6527608752816914,0.06094296917135361,0.01285139758970472
1705060375009028600,23.753028564453125,5.66031241132617,-2.184468191874027,1.320542354699224
1705060375059469800,23.8034697265625,2.61405700174123,-3.8240167288705704,0.15114307641927152
1705060375109885700,23.8538857421875,2.0963713907480237,-2.9894518646061417,2.798422220011055
1705060375160300800,23.90430078125,1.6311644472718239,2.48900848031491,0.6623251872699707
1705060375210731800,23.954731689453126,4.145215891167521,6.496008617708086,-0.5588834078980609
1705060375261177900,24.005177734375,-0.3378547847500071,6.292797829192876,1.5259044760294258
1705060375311589600,24.055589599609377,0.0555214464461198,0.5276675278360023,2.796391883227229
1705060375362006800,24.1060068359375,-1.3807766047790646,-3.6776907338768243,0.8540041626192629
1705060375412452600,24.15645263671875,-1.7387027387097478,-0.9212104436688124,0.7082368974868207
1705060375462867700,24.20686767578125,-1.981219263305515,1.3335389066554606,0.7451355724256485
1705060375513282800,24.25728271484375,-0.9304181978013366,-7.054107195371389,1.2062272626027464
1705060375563729000,24.30772900390625,3.861403041195869,-0.4106777731701731,3.5865512040540573
1705060375614150000,24.35814990234375,6.949903309053182,-3.7336192495867606,0.38896599983870983
1705060375664577800,24.408577880859376,1.6835305943250656,0.0960572129453998,-0.47303902534134684
1705060375715004700,24.459004638671875,-0.23476432130010796,4.554353741419315,0.9761563050169497
1705060375765420800,24.5094208984375,-0.38792997132185847,4.558587433466315,1.348669694161415
1705060375815848700,24.5598486328125,0.044758243032521565,2.088212195820361,-1.1093212051425128
1705060375866292700,24.610292724609376,-1.6052917548686265,-0.7896428226720541,0.5048555381776765
1705060375916708600,24.66070849609375,-0.9746760763965546,-2.9447946844950317,-0.2876981121734716
1705060375967122700,24.711122802734376,-1.5468772675618527,-2.5453230727329847,-0.9340838807020336
1705060376017555700,24.7615556640625,2.772963953627646,-0.9245085353661328,1.7168047951564192
1705060376067999700,24.811999755859375,6.4717953829497095,-3.9837896499365564,1.331590695197135
1705060376118416000,24.862415771484375,3.174415925551951,-3.8652936188936233,1.144824699395895
1705060376168831000,24.9128310546875,3.2504622234001754,-3.2815181636601682,3.5551761148422956
1705060376219255800,24.963255859375,1.2895790611587463,2.5262343413814903,1.1039014451161027
1705060376269691000,25.01369091796875,1.6528119231954217,6.053837097382545,0.3184615174939856
1705060376320105700,25.064105712890626,0.8796554673567414,5.931470362386107,1.422346632529795
1705060376370551800,25.1145517578125,-0.7404732066377997,0.18049206663090733,1.3580566773183642
1705060376420968000,25.164968017578126,-1.813898118817061,-0.07228888154346495,1.0323693367566913
1705060376471412700,25.215412841796876,-2.0523165604442357,-2.582231538413465,1.342673960877955
1705060376521841000,25.2658408203125,-2.290141858483851,-3.2520097451031207,4.703258646990358
1705060376572256800,25.3162568359375,1.059644004912302,-3.165905579099059,1.9275709674872457
1705060376622670600,25.366670654296875,3.314691534465551,-2.4737881148293615,2.209478568359464
1705060376673117700,25.41711767578125,4.6280189893499015,-2.5445722543656824,0.9410692095447332
1705060376723519000,25.46751904296875,1.8331011241979895,0.7133743334405124,-0.34506124553009865
1705060376773964500,25.517964599609375,0.38537217659782613,3.65442325553596,0.7258546064376831
1705060376824379600,25.568379638671875,-0.1362948504480533,4.706349598743021,1.4057644771717488
1705060376874808800,25.618808837890626,-1.6394928612865507,3.27121158144027,0.9143106011524796
1705060376925234700,25.669234619140624,-0.7512368849754333,0.5609350431982427,0.07496953546218574
1705060376975655000,25.719655029296874,-2.4085683314219115,-1.6284293232195077,1.0020673566691576
1705060377026099700,25.770099609375,-1.1322599629856644,-5.391421820676326,-0.6370349709298462
1705060377076510700,25.8205107421875,1.79040574567914,-4.8448450462415815,1.0007139692988245
1705060377126930700,25.8709306640625,5.489964612492918,0.10944804318253881,1.5660570381976664
1705060377177374700,25.921374755859375,2.973564267383516,-2.142680868110806,-0.6768579358175396
1705060377227789600,25.97178955078125,2.4830495719105006,-5.035831436216831,3.8624449514642354
1705060377278220500,26.022220458984375,1.206613850767538,2.6515213477388024,1.0077031705990434
1705060377328664800,26.072664794921874,3.1318846515536305,7.2419959115922445,-0.5239859532464295
1705060377379080000,26.123079833984374,0.4303319929173216,6.234966986992955,0.8619592863421887
1705060377429494800,26.173494873046874,-1.2976431251488625,1.075274777829647,2.087564399436116
1705060377479935700,26.223935791015624,-1.8358469157747923,-3.5484149501442905,2.6836756046295163
1705060377530372900,26.274372802734376,-3.150043408578634,-1.241569794140756,0.5168206281943246
1705060377580787700,26.32478759765625,-1.4105788917161524,-2.2748536884590984,2.095097863680869
1705060377631201800,26.375201904296876,2.2712566868804394,-3.627108255369961,1.9559891065895556
1705060377681648600,26.425648681640624,4.274672876685858,-1.3926770320616662,2.8124542524948715
1705060377732076500,26.47607666015625,5.253176548546552,-4.095383061984181,0.5742917337037623
1705060377782477800,26.526477783203124,1.2450206652469933,1.612380690216273,-0.9500580602295696
1705060377832925000,26.576925048828127,0.38266934737991537,5.643868641525507,1.6066061984680593
1705060377883339500,26.627339599609375,-1.3389663385316728,4.960740831658244,2.4512793459013102
1705060377933784800,26.677784912109374,-0.647462914507091,3.0748551888644693,-0.3396154012143612
1705060377984199700,26.72819970703125,-0.7708766743384301,-1.0254085578333585,0.6064425565283745
1705060378034615800,26.77861572265625,-0.23823583333557471,-4.894964583411812,0.21477093272646888
1705060378085042700,26.829042724609376,-3.802019416595995,-3.584245265199244,-0.8546060009699314
1705060378135489800,26.87948974609375,2.9197140192523596,-2.9892285772442815,0.9117596014954149
1705060378185904600,26.929904541015624,5.268520248150825,-2.577904322864115,1.6180258564963936
1705060378236335900,26.9803359375,2.418627076360583,-2.407474690966308,1.8050564945831893
1705060378286763800,27.030763671875,1.9762756694234906,-2.0633912044271825,4.436040373466908
1705060378337178600,27.0811787109375,1.6595891622453927,3.0981489706903695,-0.20600343317473305
1705060378387612000,27.13161181640625,2.8534301137447358,5.69684795204103,0.1609611262035556
1705060378438040800,27.182040771484374,0.3964712243696675,5.364205896970629,0.8972745645470916
1705060378488472600,27.23247265625,-1.5711514387272298,1.4305030509784817,1.5087717010512947
1705060378538887700,27.2828876953125,-2.5482360375702378,-1.021149366018921,0.8430959612444042
1705060378589301800,27.3333017578125,-1.5496357724897563,-3.5996374801203608,2.216701651480794
1705060378639747800,27.383747802734376,-5.147604296484589,1.9675968345358967,0.26992875632485375
1705060378690161700,27.43416162109375,2.8570678857252,-7.661361725869774,3.3237238589659333
1705060378740607700,27.484607666015624,5.28861611071825,-1.5336176807552575,2.9232185202419756
1705060378791020800,27.535020751953127,4.384213155595958,-2.4856328664019705,1.5658222065284848
1705060378841452800,27.585452880859375,0.01816911059730337,1.526420608858019,0.05495766138378531
1705060378891866600,27.63586669921875,-0.3005320939791389,5.866148872169852,1.3265860187776386
1705060378942312700,27.686312744140626,0.017178887133690295,5.431360447832942,1.9727159311152993
1705060378992713700,27.736713623046874,-0.12268057758542708,0.7058815665323287,-0.08703482531714253
1705060379043159800,27.787159912109374,-1.7139019133217632,-2.711093188387155,-0.34178218732681126
1705060379093574700,27.83757470703125,-0.6426068527780473,-4.250529200032354,0.08000935626029967
1705060379144020700,27.888020751953125,-6.3511968266695735,-2.7530115911841393,1.3050154074825346
1705060379194427000,27.938427001953126,4.51267177772671,-1.4617380010671912,0.8503307348035275
1705060379244850700,27.9888505859375,2.808497623823583,-3.162352562792599,1.3950173115774989
1705060379295295700,28.039295654296875,2.3759369585387407,-3.8026232277080414,3.3557913143560287
1705060379345710800,28.0897109375,2.202428211456537,0.24800945945624261,3.8696857163727283
1705060379396125700,28.140125732421875,3.0090327633887526,4.3456542923599475,0.3175906164109707
1705060379446570800,28.19057080078125,2.0696656085215506,5.989918459701538,-0.08809776924038305
1705060379496989700,28.24098974609375,-0.583495213519968,4.434615016838908,1.2593475890241563
1705060379547433700,28.291433837890626,-1.2208652981556951,-0.7036689319841564,2.4325248149402436
1705060379597860900,28.34186083984375,-2.214337844958901,-3.7957977656021713,0.8161079280104487
1705060379648268800,28.392268798828123,-3.17171368085593,0.8249393961764871,2.860885982708633
1705060379698690600,28.442690673828125,0.31653347204085436,-2.8028306841030717,1.2917565513283014
1705060379749122800,28.493122802734376,6.851601924777031,-2.7112083391994237,5.165498849615455
1705060379799543800,28.543543701171874,7.023237425333261,-2.5259108085155484,1.0365803055152296
1705060379849983700,28.593983642578124,3.9043221454679964,-3.915868790876865,-0.016754738870909204
1705060379900398800,28.64439892578125,-0.16042287287469953,2.7336963576003908,0.6210539963353425
1705060379950843000,28.6948427734375,1.080752990045026,5.600962396734952,2.574448629452288
1705060380001315300,28.7453154296875,-1.0655760983750224,2.7777289760723707,1.4251817098252475
1705060380051730400,28.79573046875,-0.5422489378308877,3.7753766166031357,-0.10528402797142043
1705060380102151400,28.8461513671875,-1.730293660674244,-2.208977633100003,0.027926113235088996
1705060380152590600,28.896590576171874,-1.2376169648617505,-5.1379894959211345,0.384747614958696
1705060380203004400,28.94700439453125,-4.912523620977997,-2.7260890974670646,2.4350972957767545
1705060380253451300,28.997451171875,5.783022845193743,-0.4433476879654452,1.2023480830818414
1705060380303887400,29.047887451171874,2.2144106179341674,-3.751218911424279,0.024248678247805217
1705060380354294500,29.09829443359375,1.756501722511649,-4.9424575714707375,2.384239799720794
1705060380404739300,29.1487392578125,2.345003914006054,-1.7744332466520367,3.848275556336343
1705060380455155500,29.199155517578124,2.3584995015256105,4.591363913908601,0.13221300622820853
1705060380505569500,29.249569580078123,2.81384687589705,6.642523121011257,0.9551389436904341
1705060380556016400,29.300016357421875,-1.3718677605278788,1.738207940930128,1.9338352885790169
1705060380606417400,29.35041748046875,-0.6387186862330884,-1.6485102804787457,2.39813242373392
1705060380656863500,29.400863525390626,-2.414704788350314,-1.2995362454190849,0.5155867755504324
1705060380707282400,29.451282470703124,-3.6400101147800683,-0.5841742087600752,3.320633783996105
1705060380757707300,29.501707275390626,1.3134731469653547,-5.6629538657456635,0.6441269019521773
1705060380808138500,29.552138427734373,4.4089574284911155,-1.7044477101475,5.972441839721799
1705060380858552600,29.602552490234373,5.140828518739342,-3.220935976925492,-0.18700714761335402
1705060380908999400,29.65299951171875,1.0461082315128296,0.26036561288340015,-0.2988062383009121
1705060380959414500,29.70341455078125,1.1754517467193304,2.978190758140385,2.8738661680519577
1705060381009831400,29.75383154296875,-1.5701092361979185,5.8679345865428445,1.1952196925066412
1705060381060269300,29.804269287109374,1.4280552194349467,3.1150793549641964,-0.3257842250648886
1705060381110703400,29.854703369140626,0.14191809715731069,-0.8684897110242397,-1.1206289272289722
1705060381161118500,29.905118408203126,-3.127788614411652,-2.491252459849417,0.9731680829863995
1705060381211564500,29.955564453125,-0.49402584539912636,-4.9194098733603955,0.5492150139838456
1705060381261965600,30.005965576171874,-0.516122745590657,-0.8209368094716221,0.9665854166604578
1705060381312394500,30.05639453125,5.150293097177148,-1.1381911796655506,1.0447590088609606
1705060381362826200,30.106826171875,3.131292530879378,-2.7264249052926894,-0.3052588485063985
1705060381413271600,30.157271484375,1.9077455924242734,-7.327815415436029,3.094938191950321
1705060381463685600,30.207685546875,1.6005616576068102,0.9630230480037629,1.004405809554085
1705060381514101500,30.2581015625,3.119536334373057,5.529187200334668,-0.9556221971627324
1705060381564547600,30.308547607421875,3.034406858620047,7.168551905196905,1.751323296960443
1705060381614975500,30.3589755859375,-1.450991419994831,3.126699357870221,1.6021021650470793
1705060381665377300,30.409377197265623,-0.7596222898744046,-0.7453804870974272,3.232942933322489
1705060381715823400,30.4598232421875,-1.0854584643222391,-4.603081239709258,2.6293837502107023
1705060381766238500,30.510238525390626,-3.3675308519884943,-0.8872090976066886,0.8116982948746532
1705060381816673500,30.560673583984375,1.0135963202908636,0.3032959144029766,0.25986805689111353
1705060381867082200,30.611082275390626,5.6277118719726795,-2.6817870144039393,3.824284147635102
1705060381917518300,30.661518310546874,5.413847587496042,-3.425851523531973,1.377584092348069
1705060381967942400,30.7119423828125,1.7759290381677448,0.7739273671459406,-0.5997112024467438
1705060382018368500,30.762368408203123,1.1432036010000854,3.9562896485924717,1.7192574490055441
1705060382068789500,30.81278955078125,-1.4554760180629789,4.237962563925981,2.8434631387427447
1705060382119234600,30.863234619140623,0.6726590958882123,4.855958268669247,-0.14941038000830448
1705060382169649400,30.9136494140625,-0.5311211388885975,0.18871568683059886,0.3863825226841494
1705060382220094500,30.964094482421874,-1.4012187965661287,-4.9913048967480655,0.6879790492907166
1705060382270509600,31.014509521484374,-3.0383713783368465,-4.487380392342805,-1.025078741357103
1705060382320924400,31.06492431640625,1.1599385357670486,-4.218486002300679,1.7512781426444648
1705060382371371500,31.11537158203125,2.397042874931544,-0.07585855215720366,1.233112785310298
1705060382421786600,31.16578662109375,3.5735873853236435,-3.5186426199540493,0.6246640035260468
1705060382472202500,31.216202392578126,3.4627670034751294,-3.71456091337353,3.5893995792225
1705060382522645500,31.2666455078125,2.1262628172732887,2.4080786482088268,0.9860086406633257
1705060382573073400,31.317073486328123,3.25786723895967,5.890813942348957,0.4167816064706072
1705060382623490600,31.367490478515624,0.9730142075989395,5.466416563645005,0.8563690651196986
1705060382673905400,31.417905517578124,-0.3042379627597518,1.4518461371280251,2.4634224958986044
1705060382724351500,31.4683515625,-1.3200443420492112,-2.104254837474227,1.4238187509089708
1705060382774774500,31.5187744140625,-3.433386302950978,-1.758400541870296,1.4740911405533552
1705060382825200600,31.56920068359375,0.8170474008176475,-6.11238982411623,3.2658030003949996
1705060382875613400,31.619613525390626,4.055390074291825,4.107092789000273,0.5361210295351222
1705060382926057500,31.670057373046873,5.004693955153226,-1.7736708839774131,3.373303590171039
1705060382976473600,31.7204736328125,4.528738823169469,-3.7806235773459074,2.1295988298282027
1705060383026919400,31.77091943359375,1.571120312936604,0.5708114903725683,0.16429830780224874
1705060383077334500,31.82133447265625,1.2347417016863822,4.534796223512291,2.4400141477823256
1705060383127749400,31.871749267578124,-0.963615387873724,4.926422382470965,1.6267914928846061
1705060383178194400,31.9221943359375,0.4857721771210432,3.112775169675052,-0.5852682145418598
1705060383228609500,31.972609619140623,-0.574695382601209,-1.477644156859815,0.5892173174938187
1705060383279024400,32.0230244140625,-1.2456345593616365,-5.095321736061573,0.8329494649570435
1705060383329472500,32.073472412109375,-4.15552130434364,-2.9912969079509377,0.35688608682584017
1705060383379898600,32.123898681640625,4.534431481853127,-2.5880922471404073,1.830415392245352
1705060383430314500,32.174314453125,2.7975658954426645,-3.973200743643939,2.365055352909863
1705060383480728300,32.22472827148437,0.5926658870451152,-3.9747076410755513,2.6104212755873797
1705060383531161600,32.27516162109375,1.6632298568353057,-1.2779089355006814,2.3759794825062155
1705060383581606400,32.3256064453125,3.3554563833132383,3.2426594406947493,-0.037605526300240305
1705060383632035600,32.37603564453125,2.8786040102288126,7.504743177181482,0.3732901822032407
1705060383682436400,32.42643627929687,1.3405961316905914,4.7903413026377555,0.7990831434514373
1705060383732882400,32.47688232421875,-1.0084756893415003,0.420084374343045,2.3144779889695344
1705060383783296300,32.52729614257812,-1.5702787475459277,-3.4930846925884484,3.997494642423093
1705060383833741300,32.5777412109375,-2.6206284890860316,-2.560235102921724,0.9592419220298528
1705060383884158500,32.628158447265626,1.4903963786661625,-4.999588156446814,2.062599761788547
1705060383934593500,32.678593505859375,3.331761034949124,-0.9319329862784593,1.077677601187676
1705060383985018400,32.72901831054688,6.525689470222592,-4.29270186985135,1.1579659205198287
1705060384035432700,32.7794326171875,2.1918908892206845,-0.48899230821132655,0.7030680434815585
1705060384085847300,32.82984741210937,0.8017054547790438,3.5476790370851754,1.1271698733050375
1705060384136277500,32.880277587890625,-0.6332298795584589,4.5411064295724035,1.959670133189857
1705060384186723600,32.9307236328125,0.07684561326606199,4.9122401278615,0.9629620385315268
1705060384237141200,32.981141357421876,-1.1862257272552699,-0.8271939701702445,0.48896468955203887
1705060384287552300,33.03155224609375,0.09000331973391584,-4.9350984408795835,0.01822904692388256
1705060384337998300,33.08199829101562,-3.133850398668647,-3.6700381732970473,-1.152405217652768
1705060384388430300,33.132430419921874,1.7975747605256736,-3.146475486963987,1.8812512609913945
1705060384438844400,33.18284448242188,3.107209936763346,-0.78486910546422,3.2061165934562683
1705060384489259500,33.23325952148438,2.4132192259676755,-5.611361625674367,0.7809991321630776
1705060384539706400,33.28370629882812,1.9899783238224684,-2.999304273317754,3.890171162779629
1705060384590121500,33.33412158203125,3.700953243781626,3.8703731141149995,0.9192278915494679
1705060384640566300,33.38456616210937,3.1628885693654416,8.009760152998567,0.17957140812203287
1705060384690980400,33.43498046875,1.0716815756432712,5.08900539252162,0.991753833251819
1705060384741396500,33.485396484375,-0.2117902546815574,1.539262116383016,2.9959356736674905
1705060384791845600,33.535845703125,-2.125276144323498,-2.559723646268248,1.5084526982299982
1705060384842271500,33.586271484375,-2.3277717703066765,-2.6870713845476506,1.1013790139663964
1705060384892685300,33.63668530273438,-0.2402276099409908,-4.266541008156538,1.3285915133811532
1705060384943100400,33.68710034179688,1.5002885348662733,0.45284006772562857,2.5746964667335153
1705060384993578500,33.73757861328125,8.213360233092308,-6.765688897430897,2.8600004320457577
1705060385044030500,33.78803051757812,5.27652936708331,-2.3633497180357574,0.6499635722164064
1705060385094428400,33.83842846679688,1.296233404481411,2.0014806916981933,0.3998476785328239
1705060385144873700,33.88887377929687,-0.09863038790165446,4.418204857046902,2.1025907036542892
1705060385195305500,33.93930541992187,-0.5934626269133761,5.568858116465806,2.447602118693292
1705060385245720300,33.98972021484375,-0.7735097262557595,4.860869713847339,0.8997267800047993
1705060385296135400,34.04013549804687,-1.9569985758930444,-3.5076451328605414,0.49453613300882276
1705060385346580500,34.09058056640625,-0.12359756456618197,-4.987035548865795,-0.4659711327817291
1705060385397009700,34.141009765625,-2.500678167581558,-2.3012029123328626,0.8970588759697973
1705060385447442400,34.1914423828125,4.4048818496152755,-2.0123190427072344,2.270777232800424
1705060385497857500,34.241857421875,3.8736367920860646,-4.527881037296354,0.2772316632167436
1705060385548272600,34.292272705078126,2.7164377642855047,-4.449524124418199,4.819369828723371
1705060385598694700,34.342694580078124,3.0874940134242177,3.0473367750808595,1.605096086166054
1705060385649147400,34.3931474609375,3.7186084351986644,6.126821085050702,0.020314341323426924
1705060385699561500,34.4435615234375,2.0310392330072817,6.917126828610897,1.4669016674406825
1705060385749977600,34.4939775390625,-1.4087923005603253,1.6091136512443422,2.4460052048906684
1705060385800408600,34.54440869140625,-1.5302143020525574,-3.3572590488210317,3.915171748523414
1705060385850853400,34.594853271484375,-2.0327255786590275,-3.0472847526326774,1.2179885736756026
1705060385901269500,34.64526953125,-3.299048559653759,1.2082895288947968,0.5326014405742288
1705060385951705300,34.695705322265624,3.997110027019679,-4.985583596491813,2.094684022182971
1705060386002129700,34.746129638671874,4.895839904941618,-2.8261826258569953,3.92349709379822
1705060386052543500,34.79654345703125,6.0802820367157455,-4.046309234474599,1.0372220374848693
1705060386102960600,34.84696069335938,-0.06957748086003121,2.257517499863356,-0.04432815821929834
1705060386153405400,34.89740551757812,1.0549279361758381,5.630460293897986,1.1309092790290713
1705060386203820500,34.94782055664062,1.3148247077047823,3.763061324909329,1.7471432347968219
1705060386254256400,34.99825634765625,0.5853230500016361,2.2084787436671554,-0.024842120946175418
1705060386304680700,35.0486806640625,-2.0409438102975486,1.982184162814915,0.06039480636983644
1705060386355110400,35.0991103515625,-0.25706750291977076,-6.257687352845072,1.9741418722651898
1705060386405524500,35.1495244140625,-3.8092610582873223,-2.744826238901913,1.2624324032969771
1705060386455969500,35.19996948242188,2.3369354661017656,-4.735738774834573,2.126621129191667
1705060386506379500,35.25037963867187,2.7290678210169075,-1.9870785107277333,2.0347567922256884
1705060386556798500,35.300798583984374,2.190637382028252,-6.124440911915898,2.6233839252740143
1705060386607246300,35.35124633789062,1.9333974816836415,-0.5731071635616943,3.583351238968968
1705060386657678600,35.4016787109375,3.072875120963156,6.383396384006739,0.6564215892493724
1705060386708093400,35.452093505859374,2.960397035035491,7.085332939240336,1.1056799260307102
1705060386758508500,35.502508544921874,0.32600882760100064,2.903109505932033,1.5370181368485092
1705060386808950500,35.55295043945313,0.10562271274072117,0.25924382404554636,3.028337475578487
1705060386859368400,35.603368408203124,-1.9883944156318902,-1.905313250710815,2.787301691059768
1705060386909783600,35.653783447265624,-2.6226637943059203,-0.5325767445243895,0.6518313388496637
1705060386960228400,35.704228271484375,-1.953689743606001,-1.875585051923245,0.33631902655009177
1705060387010643500,35.7546435546875,6.1495806138694284,-3.588507014296949,6.005594167739153
1705060387061089500,35.805089599609374,8.717991424462198,-3.730826988519728,0.7103800469953566
1705060387111516400,35.85551635742188,4.630734678049385,-3.9734482886642217,1.3414210382074117
1705060387161932500,35.9059326171875,1.0939843736704438,1.8803155875764785,0.19515467036953194
1705060387212349400,35.956349365234374,0.3155736140327528,6.845179198253154,2.8441952524095773
1705060387262794500,36.00679443359375,0.5352971093989909,2.799487511155009,2.1421564058452844
1705060387313195500,36.05719555664062,-0.2443327437048778,2.988575374032557,0.29570449115959924
1705060387363640600,36.107640625,-1.374158647944033,0.13481368111274206,-0.3280708746973425
1705060387414069500,36.15806958007813,-1.1511433810234069,-6.81256813750565,1.4407529345750807
1705060387464501500,36.20850146484375,-3.8745018844828008,-3.3498499416083094,1.956741970783472
1705060387514915600,36.25891552734375,5.410684155029058,-0.17902266993178054,2.0167774834208188
1705060387565331500,36.30933154296875,3.3705984228655694,-6.354771178025007,-0.3472413660481572
1705060387615777500,36.359777587890626,1.9054583582699298,-3.8213966095000504,2.73883576631546
1705060387666192600,36.410192626953126,3.4561163134142756,1.0774939882490784,3.2349174482658505
1705060387716617500,36.46061743164063,3.892870192605257,4.261010846558213,0.3304276304239407
1705060387767032600,36.51103247070313,1.9978553408078847,5.779414007046818,0.726872478243336
1705060387817481500,36.5614814453125,-0.09638907524826935,3.216997176171839,1.4043063873179256
1705060387867897600,36.61189770507813,-1.2261569748230279,0.8522189597029238,3.7135990826040506
1705060387918312400,36.6623125,-0.04528508448479697,-5.505847825801372,0.41692148986533284
1705060387968739600,36.71273950195312,-3.87126743260622,0.9196463361572473,0.8224141885478049
1705060388019172400,36.76317236328125,3.1231963181853293,-7.110225972956418,2.3283624296762047
1705060388069618400,36.813618408203126,4.40833315911293,-4.670516068817675,1.3591953259594738
1705060388120032500,36.86403247070312,6.071213179597258,-5.6215153554201125,1.3670242660194634
1705060388170447600,36.91444750976562,2.2187993544124067,-0.5159632076473907,-0.5885710189469159
1705060388220878600,36.96487866210938,0.8763412282422185,8.315662669703364,2.4854659854024646
1705060388271320600,37.015320556640624,0.47316835080944,5.464588179174065,2.5860683400973676
1705060388321740300,37.065740234375,0.1746986875191331,2.8672987723603844,0.36515323564000424
1705060388372155400,37.1161552734375,-1.7260570460177957,-0.8669321063186973,0.8725084451463073
1705060388422584600,37.16658447265625,0.658240256043896,-5.3034086061805485,-0.8676016761433333
1705060388473016600,37.2170166015625,-4.019053563280403,-4.282047497107088,-0.49906340117491776
1705060388523430700,37.2674306640625,5.891518291226029,-0.4317429922264069,-0.41817302429638803
1705060388573869600,37.31786962890625,3.094662589879334,-2.4558444618597624,2.1514865442484616
1705060388624299500,37.36829956054687,3.2107562359556554,-4.375945093466341,1.7286128679804502
1705060388674719500,37.41871948242188,3.060295917636156,-2.512059977817535,4.410838712193072
1705060388725134600,37.46913452148438,2.900043396359682,2.5268825761571523,0.5165619407255202
1705060388775580400,37.519580322265625,4.4206957970798015,6.279622705799341,0.12334649414825252
1705060388826013400,37.570013427734374,1.4393269934251904,6.060492463618517,0.8969923135396093
1705060388876417300,37.62041723632812,1.0432860867641867,1.6824501056119798,3.0954373736441134
1705060388926843400,37.670843505859374,-2.4174616858430205,-2.2627152146369216,2.8535128235921263
1705060388977288400,37.721288330078124,-3.8162642150476573,-4.2184333953306075,2.278838228050619
1705060389027697700,37.77169775390625,1.146914584347233,-4.246550359529256,3.3065427148014304
1705060389078149600,37.822149658203124,3.546611407853663,2.6058205037936566,0.10598438565996475
1705060389128564500,37.872564453125,8.03308316091895,-5.41511892260611,3.509109360194206
1705060389178998500,37.92299853515625,5.862028577369451,-2.3657848362281917,0.5838205730168149
1705060389229424400,37.97342431640625,2.2513044705674052,1.9660164334766566,-0.5165131696803495
1705060389279838500,38.02383837890625,0.7115412727944552,4.060298304599523,1.8183197346515954
1705060389330254600,38.074254638671874,-0.7923415602367371,6.178816060703992,2.580471250742674
1705060389380682500,38.1246826171875,0.07737983887377195,3.9502869010463355,1.5678624801844359
1705060389431129300,38.17512939453125,-1.3106100126191973,-1.3858483550854026,0.6810737268816679
1705060389481543400,38.22554345703125,0.6161025114078075,-4.780127659398317,-0.2529869738741778
1705060389531968500,38.275968505859375,-3.4648236437439914,-3.1271839265167714,1.389555392909795
1705060389582405600,38.326405517578124,4.321069593940675,-2.552529058589041,2.011656925536692
1705060389632836600,38.37683666992187,3.550898583653569,-2.2082728458315133,2.798562213003635
1705060389683251700,38.42725170898437,3.5837364388942716,-5.888101760780811,1.794985328554362
1705060389733665500,38.47766552734375,2.8320126471847296,-3.1099118891984223,5.845540968427062
1705060389784112400,38.5281123046875,3.2114559086576104,3.361576912020147,0.9812045283172279
1705060389834541600,38.57854150390625,3.4909009188085793,7.891517219933867,0.5945284295139834
1705060389884955400,38.628955322265625,1.398344848565012,4.287907036790251,1.5727175190001725
1705060389935388700,38.679388671875,0.9313446649964898,2.010748140128702,2.2270924048528076
1705060389985822200,38.729822265625,-2.467622577936947,-2.943251546706259,3.3952617394790052
1705060390036266000,38.78026586914063,-1.6055919068589806,-3.6976021797880527,3.1000209020420906
1705060390086681000,38.83068115234375,1.8778161719761788,-3.0541756811901926,2.104189371022582
1705060390137110000,38.881110107421875,4.612539096145332,1.4760929818950592,2.2857434773944316
1705060390187525000,38.931525146484375,8.961958001735805,-7.015327675122022,2.3512371093071995
1705060390237972000,38.98197192382813,3.951235872334242,-1.4562113466002047,0.32963757602479304
1705060390288386000,39.03238598632812,2.098345028908551,2.272507709854841,0.8130798123609274
1705060390338818000,39.082818115234375,0.11508720898013561,6.586777268391847,2.347817363991588
1705060390389233200,39.133233154296875,1.2618876288957892,4.816621991319954,2.4258625805720686
1705060390439679200,39.18367919921875,0.6277274827498942,4.451334680971503,0.3590757423572242
1705060390490094000,39.23409399414062,-2.0271457327000797,-2.2931180978156624,-0.22079801099626345
1705060390540509000,39.28450903320312,-0.749170527030155,-5.883939964926243,1.0652587760541588
1705060390590954000,39.3349541015625,-0.4267176383450627,-5.9543263373166315,0.8723856955494731
1705060390641370000,39.3853701171875,5.0116199550241225,-2.741015740703046,4.515416984781623
1705060390691806000,39.43580590820312,4.30604738137573,-1.879978172315657,0.4643817081658169
1705060390742229000,39.48622900390625,3.7564959750443694,-5.180999201086164,2.8227099813103673
1705060390792644000,39.53664404296875,2.3329700696021316,0.10135778530524112,5.161624054008722
1705060390843091000,39.587091064453126,2.3279114710383118,4.765476325972378,0.3164093707371503
1705060390893517000,39.63751708984375,3.0002102822467682,8.474159871745108,0.47213528143465516
1705060390943935200,39.687935302734374,0.7667845827192068,4.1223292288377875,0.8363829465370625
1705060390994349000,39.73834912109375,0.26580935657359656,-0.0851679080672562,3.0826237770393488
1705060391044796000,39.7887958984375,-2.3706785996191204,-4.762009526644647,3.874639247126877
1705060391095197200,39.839197265625,-2.2208042644940313,1.6921859022065997,1.3197848143301902
1705060391145642000,39.88964208984375,2.5593860848769543,-6.407747565931081,2.1001862728610634
1705060391196057000,39.94005712890625,7.120969485288858,-3.743314421910047,5.5531309705019
1705060391246502100,39.99050219726563,8.2458076277107,-5.247926957455277,0.7696673716139047
1705060391296904200,40.040904296875,2.2515971699036657,-1.5368356198884545,-1.2616440293982625
1705060391347333000,40.0913330078125,1.7901114389076829,5.698769275492429,1.2659059246264397
1705060391397777200,40.14177709960938,0.053276384632801634,5.954876372414827,3.6911055112451314
1705060391448193000,40.192193115234375,1.3525596873372792,4.796992284959554,0.6251536867391317
1705060391498608000,40.242608154296875,-1.1604857213210313,2.6347654432490466,-0.2102867913160473
1705060391549051100,40.293051025390625,-0.8684294322043656,-5.491368049550056,0.598914499111101
1705060391599487000,40.34348706054688,-3.0058664083123205,-6.385672512245178,0.8602015559546649
1705060391649898000,40.39389794921875,6.41923809723854,-3.3726875040993094,0.7356512663740664
1705060391700313000,40.44431298828125,4.091840567071736,-3.855744577042758,2.069050837624073
1705060391750740000,40.49473999023437,4.300959410586953,-1.8211274855487047,-0.172928371644672
1705060391801173000,40.54517309570313,4.000922278784215,-3.9306083871081468,4.905553197443485
1705060391851605200,40.59560522460937,2.4222544730775057,3.5890073650345204,2.732545726260543
1705060391902015000,40.64601489257812,2.964510900095105,6.745871851804852,-0.6264223184354603
1705060391952466000,40.6964658203125,2.296939117408544,6.290489552250504,1.1473930885791779
1705060392002881000,40.746881103515626,0.14623204223313369,1.38030927952826,2.720853827162087
1705060392053326000,40.797326171875,-0.7402034497857093,-0.9294208573270588,1.0911782302085309
1705060392103741200,40.8477412109375,-1.1668673121169209,-2.9292578004062175,2.6417110246032474
1705060392154157000,40.898156982421874,-1.5858772986941039,0.44691049501355734,0.8437531099788844
1705060392204605200,40.94860522460937,4.74463022955954,-6.2972010325878855,2.0611824423365293
1705060392255017000,40.999016845703125,6.396546372959017,-2.6381527475997806,4.200550824898481
1705060392305431000,41.04943115234375,7.308122872972488,-4.032642235910893,0.14637191649470477
1705060392355877000,41.09987719726563,3.0667101685926315,-2.799838516549766,0.3283611628808081
1705060392406292200,41.15029223632813,0.6204968008439987,5.766786580663919,1.9404248961023984
1705060392456722000,41.20072192382813,0.17327249064091593,5.98993307274878,3.087301121200621
1705060392507137000,41.25113696289063,0.11609500691634603,4.092655390585959,0.5629372133335099
1705060392557582000,41.30158203125,-1.5227471810422837,1.6290765350818632,-0.8611586374837905
1705060392607997200,41.3519970703125,2.443113428971916,-5.838130399909615,1.4878544390983879
1705060392658429200,41.40242919921875,-5.007848619791865,-5.114221666842699,0.5946008736956864
1705060392708844300,41.45284423828125,6.815914525324106,-3.2804753766089676,2.7527166998907924
1705060392759289900,41.503289794921876,4.845248366345465,-3.87221903424263,2.0610861423552036
1705060392809718000,41.55371801757813,4.744473577693104,-5.313597407239675,2.8047625289484857
1705060392860119000,41.604119140625,3.4076650017172097,-1.2074989630389958,4.674949375090002
1705060392910565000,41.65456518554687,3.263382495249808,3.5863866611421105,0.3250993480732664
1705060392960979000,41.70497900390625,4.509842984041572,8.418820846360921,0.4806684607738629
1705060393011426000,41.755426025390626,0.17399956280644982,3.480597259198129,0.8882478660698979
1705060393061841000,41.8058408203125,0.9439332937389612,-0.12606954417028463,3.1475486691534518
1705060393112252000,41.856251953125,-1.559119932410866,-2.8094848812952637,1.9141196575008332
1705060393162684200,41.90668408203125,-2.4258143575161695,-2.145377998240292,2.7889956354960797
1705060393213130000,41.9571298828125,-2.768362597312033,-0.42303003587350246,0.6774817668043076
1705060393263545000,42.007545166015625,3.7628918135613203,-7.5390961131602525,3.817644271229207
1705060393313976000,42.05797607421875,6.30088527405858,-1.6208156333453951,0.37580695079714055
1705060393364392000,42.108391845703125,6.196328336519002,-4.067007154588401,0.3734894311023876
1705060393414811100,42.15881103515625,2.345966913819313,1.8753756469562648,0.44859640227388586
1705060393465253000,42.209253173828124,0.6812516407318413,7.2791761799514285,2.8329668791696427
1705060393515668200,42.259668212890624,0.2740220900530927,4.490364084328711,2.2161906332187353
1705060393566113000,42.310113037109375,1.069696027849242,2.82477509714663,-0.6418656790219247
1705060393616527000,42.36052709960938,-3.0902614323109385,-0.33616222855318334,0.8645745834071189
1705060393666943000,42.41094287109375,1.3563508963137865,-7.151428336438536,0.7481040668424218
1705060393717369000,42.461369140625,-4.0369390563219785,-3.2528163853108882,0.36962910241242497
1705060393767804200,42.51180419921875,6.1818567435741425,-3.9187683117106555,2.85377615070343
1705060393818250200,42.56225024414063,6.713718471696972,-4.142525336909294,1.312329237627238
1705060393868675000,42.61267504882812,3.223375479032099,-4.827430093321204,5.011293791809678
1705060393919094000,42.663093994140624,2.794256040242314,2.2422030263535677,2.550511289025843
1705060393969509000,42.713509033203124,3.362486135819554,6.332202787864208,-0.44973253016434606
1705060394019945200,42.7639453125,4.751722818168997,7.4366504686862225,3.425810022477805
1705060394070369000,42.814369140625,0.07113597148156259,2.31187569751665,1.0417376882784068
1705060394120795100,42.864795166015625,-1.277641662866622,-0.15463438913375138,2.872135106475651
1705060394171215000,42.91521508789062,-1.7197241897344588,-4.303845487417281,3.505903842151165
1705060394221631000,42.965630859375,-2.8737679683744908,0.3188863918425515,1.3853202395580708
1705060394272075300,43.0160751953125,0.31762824500761927,-7.531516033294796,2.0357816052287814
1705060394322489900,43.06648974609375,5.287697826829552,-3.0132237853378054,4.087511597956717
1705060394372937200,43.116937255859376,7.5072846783578395,-6.535398963332176,0.7401203015469014
1705060394423351000,43.16735107421875,2.602536075295508,-0.15932855656566097,-0.8013191588751971
1705060394473767200,43.21776708984375,1.7073108444936573,4.5463823241487145,1.5570090777367354
1705060394524213000,43.268212890625,0.051181111120292916,5.938672841110825,3.72181541454643
1705060394574628000,43.318628173828124,1.2303748847790061,5.6891965605050325,2.1302352280355987
1705060394625056000,43.36905590820312,-1.911322135736793,0.55534178976845,0.03047365827645408
1705060394675472100,43.41947216796875,-0.38234501079637556,-6.602397446849942,0.7164959725923836
1705060394725916200,43.469916259765625,-0.3433507518177852,-4.647286876660585,-0.5637136410661041
1705060394776332000,43.52033203125,4.712198032510281,-5.775005542954802,3.5804148932561275
1705060394826764000,43.57076391601562,4.894534667561948,-0.13699358243509194,1.2820111101225018
1705060394877179100,43.62117919921875,4.07927246966064,-5.394700403955579,2.941203674265742
1705060394927619000,43.671619140625,2.336170765339583,-0.21614412077581507,5.2188849873661995
1705060394978086100,43.72208618164063,2.902207296395302,4.146669889368116,-0.29588892608210443
1705060395028505000,43.77250512695313,4.557089303863048,7.248389996543526,0.4299621732242405
1705060395078946000,43.82294604492188,0.6272539469540119,4.016584250557423,1.0528464537266642
1705060395129366300,43.8733662109375,0.560801699142158,0.341465339929983,3.032172815957665
1705060395179804200,43.92380419921875,-1.4541057526230812,-2.7034619628563523,2.172502005878836
1705060395230227200,43.974227294921874,-1.394523828972131,0.41618729383926834,2.3676006534785032
1705060395280642000,44.02464208984375,-0.8160921459194272,1.5931554730035364,0.8920682280756532
1705060395331087000,44.075087158203125,5.326345829653739,-8.29133369961083,3.8180294711545106
1705060395381512200,44.12551220703125,5.262603717583418,-1.9303341485902665,2.108393690844625
1705060395431931100,44.17593115234375,6.189082603174447,-3.607365444023907,-1.3261065646976231
1705060395482346000,44.22634594726563,1.9133615326099096,-0.5352451600160449,-0.21382924969587475
1705060395532767000,44.27676708984375,0.015651744923426303,7.691702503597736,4.865377838921547
1705060395583217200,44.32721704101562,1.5935690222404897,4.216241730505228,2.7669167824178933
1705060395633646000,44.37764599609375,-0.7655078407816588,3.956268605804443,-0.5938617822987958
1705060395684066000,44.428066162109374,-1.6299962802752852,-1.4602201438501476,0.9879933847397565
1705060395734482200,44.47848217773438,0.80092438740395,-6.139065649595857,0.4335669197179377
1705060395784922000,44.528922119140624,1.812217910645157,-2.645907891771197,0.12646043405085802
1705060395835337200,44.579337158203124,5.765914474004506,-4.027539652074873,3.318630335219204
1705060395885774000,44.62977416992187,4.82037812898308,-5.216518842756748,2.1962490844301876
1705060395936190200,44.68019018554688,3.7692373831957577,-5.661314281845092,5.013523158296943
1705060395986605000,44.73060498046875,3.588865910737216,2.730756504756212,1.5031990154854953
1705060396037050400,44.78105029296875,4.726872454550862,8.006979582369327,0.6192907860551029
1705060396087463200,44.83146313476563,2.2897199798099694,6.351553969544172,0.8370910948064177
1705060396137902000,44.88190209960938,-1.6867733756385743,2.138290962588787,2.0834971499972044
1705060396188310300,44.93231030273437,-2.161151905955374,-1.6515594389162958,4.297058603756129
1705060396238754000,44.982754150390626,-1.2816831933423876,-3.5510900145724413,3.1609339281663296
1705060396289170000,45.033169921875,-4.7309658613443375,-0.3394345647547394,-0.6267120220970362
1705060396339615200,45.083615234375,5.623989052057266,-11.897856555330753,7.809784693142771
1705060396390042000,45.1340419921875,5.958980300602317,-3.440911730019748,-0.018239927935856392
1705060396440446200,45.1844462890625,5.891614152815937,-5.302245407620072,0.00012380967601507108
1705060396490888200,45.23488818359375,1.4523233992509543,1.6488981107525527,0.7996137431968003
1705060396541305000,45.28530517578125,1.1115312093421816,6.996983040136098,3.213409380812943
1705060396591738000,45.33573803710937,0.8993883418306707,5.020560217326879,2.6416066874459383
1705060396642145300,45.38614526367188,0.5927111144263297,4.641895539011061,-0.05594725237644743
1705060396692582100,45.43658203125,-3.495838667471707,-0.5048258736917749,1.2355157547987996
1705060396743014100,45.48701416015625,1.3342534846656025,-8.60017753046453,-0.04579217092383187
1705060396793428200,45.53742822265625,3.8235304066583513,-3.572140693646669,1.2605002661906182
1705060396843874300,45.58787426757812,7.123124617496132,-4.299191816392541,4.029105293956399
1705060396894289000,45.63828881835938,4.666210480578243,-1.8449983366101979,0.706395653534308
1705060396944725000,45.68872509765625,3.455111812546849,-6.388426194867491,5.108152576062083
1705060396995144200,45.739144287109376,3.291741451510787,4.496251681062579,2.929500961512327
1705060397045579300,45.789579345703125,4.783010813619196,8.031046686655282,0.8367205809935927
1705060397095993000,45.8399931640625,3.5143498911961912,5.5248892108798024,1.088581418648362
1705060397146408200,45.890408203125,1.0191324001733213,3.728823832003772,0.23196641594357786
1705060397196840000,45.94083984375,-0.4851165992891416,-0.46308173148315396,3.631582478174567
1705060397247275000,45.99127490234375,-1.1040420226305723,-2.0931869154930114,3.050454030318558
1705060397297700000,46.0417001953125,-3.1345132464915513,-5.544567724817991,2.619751998512447
1705060397348116200,46.0921162109375,6.342646440467238,4.0700025370121,5.493825379574298
1705060397398562300,46.142562255859374,8.12107474810481,-8.261884902286528,1.4060827493406831
1705060397448977200,46.19297705078125,7.296538233640789,-6.026760289886593,3.745471307682991
1705060397499392000,46.24339208984375,2.3618358063414693,1.6298047032259404,1.2519384818114339
1705060397549827000,46.2938271484375,2.815829574146867,2.5042811605095863,1.9361592014819382
1705060397600251100,46.34425122070313,0.49281033212952313,5.084683437669277,2.4038636608622967
1705060397650698200,46.3946982421875,1.656255926169455,5.9315422585785385,0.6855562791232019
1705060397701113300,46.44511328125,-1.9947401313968,4.607144835886359,0.3040366315013729
1705060397751528000,46.49552783203125,0.630901655806601,-4.627262618024647,1.5576596505999565
1705060397801968000,46.545968017578126,-5.027770294836163,-4.035578581623732,2.036971837926656
1705060397852402200,46.59640209960938,5.824455510300398,-0.35158103922028094,0.7620598922848701
1705060397902824200,46.64682421875,5.067589679527282,-5.739987421065568,1.3835558602340519
1705060397953248000,46.697248046875,3.966810165823996,-5.339916089844704,0.6692300712876021
1705060398003664100,46.7476640625,3.0851819370895623,-3.225397340248525,4.626196450097859
1705060398054109200,46.79810913085937,4.670990408331155,5.510702280095219,1.9926070648908614
1705060398104511000,46.84851098632812,3.1475209043636916,6.804892196050286,1.0481128493335097
1705060398154939100,46.89893920898437,2.9928543665260077,6.574271422562003,1.8964729416511952
1705060398205385200,46.94938525390625,-1.3972135064475237,0.7769319557894021,4.483272372502088
1705060398255801000,46.999801025390624,-2.5086855329483746,-4.090270833536982,3.651728025102615
1705060398306216200,47.05021630859375,-1.541468394255638,-3.2111013961315154,-0.6008995719810948
1705060398356660200,47.10066015625,-3.1781951518297196,-1.5758625390276313,0.46916024767924097
1705060398407089200,47.151089111328126,5.3023962142676115,-7.1648086270153515,6.582452975451946
1705060398457504000,47.20150390625,7.992410958790779,-4.830465515494346,2.0688181979119777
1705060398507939000,47.25193896484375,5.070875861591101,-4.6108144643098115,0.5967994431858882
1705060398558365200,47.302365234375,2.213652346912771,2.870613303735852,1.3207863925881682
1705060398608780000,47.35278002929687,1.1778808004971593,5.85619329534471,3.6507962972104546
1705060398659198000,47.40319799804688,1.0401515881307422,4.374244134767353,1.2240042537685483
1705060398709641200,47.45364111328125,0.4886305987594649,3.2220334167733786,-0.40218193016666914
1705060398760073200,47.5040732421875,-2.33978515644446,-0.3543726061675697,1.5080163526393473
1705060398810487000,47.554487060546876,-0.6753063224613666,-6.106407242575288,0.4543246437275782
1705060398860903000,47.60490283203125,-1.173407819801569,-1.424497380822897,0.8449618281815201
1705060398911348200,47.65534814453125,4.099693034137785,-4.707260576108098,4.001138259622454
1705060398961753000,47.70575317382813,6.886317848849296,-4.85352052012831,2.521564303743839
1705060399012178200,47.75617822265625,2.3643876827813686,-4.903911275455355,6.8919976480513805
1705060399062624300,47.80662426757812,3.0694258572921154,1.9402406255766749,3.42076559856981
1705060399113038000,47.8570380859375,3.8427939100548625,5.491729284077882,0.3845067919401452
1705060399163484200,47.90748413085937,3.803680043284595,7.571898897087573,1.2924473100714384
1705060399213899000,47.95789892578125,-0.4329459017427638,3.014707009632885,0.6571465425230563
1705060399264329200,48.0083291015625,-1.772937893527746,-2.369045153198391,2.41818517781198
1705060399314757000,48.058757080078124,-1.2773717598840593,-3.541277645610273,4.6535830541953445
1705060399365190100,48.10919018554687,1.6646688035972415,-4.16052013554424,3.427314289560914
1705060399415594000,48.15959399414062,6.488071394968032,-1.3602483421437441,3.776853411157429
1705060399466033200,48.210033203125,10.422720874160527,-7.793530892956256,3.602233341832459
1705060399516469200,48.26046923828125,5.50601850619316,-2.0064643253296612,0.6833045546736568
1705060399566894000,48.31089404296875,2.070699481613934,2.972607405050099,1.395886203366518
1705060399617295000,48.36129516601562,0.7002830158729105,5.173466467493772,3.009507687424123
1705060399667726000,48.41172607421875,-0.049090440717665475,5.593659964767098,3.3445646946817633
1705060399718171100,48.46217114257813,0.3688855175035074,6.536949699905514,1.4343451133593916
1705060399768587000,48.5125869140625,-0.951438920128718,-3.191364430004358,0.38594749226775016
1705060399819026200,48.563026123046875,0.06845739078891928,-5.434186611169577,0.6104666244126856
1705060399869447200,48.613447265625,2.764268898257613,-6.2898126759022475,1.4818794563420117
1705060399919862000,48.663862060546876,6.266115573972463,-3.0145363292410967,3.3644381466701625
1705060399970313500,48.7143134765625,4.12985114877522,-3.4430925811901685,1.9933884245269
1705060400020759600,48.76475952148437,4.024631655673683,-5.484466015076637,4.842731999610364
1705060400071187500,48.8151875,1.7798150858208537,0.7916437141656875,2.121973011124879
1705060400121602600,48.8656025390625,4.102554561048746,6.0476937723219395,0.6330190132867545
1705060400172046600,48.91604663085938,3.2987522070556876,6.4986085710734125,1.480613235798478
1705060400222448600,48.96644873046875,1.9028652730368076,4.227991205009817,2.139302623849362
1705060400272894700,49.016894775390625,-0.027957841813913545,1.3523776087686419,2.4257905382491645
1705060400323310600,49.067310546875,-1.6639188620127736,-2.1068609283193944,3.8683904158651825
1705060400373725700,49.1177255859375,-1.5909693611361087,-3.3880224358752367,3.0700860747665164
1705060400424173600,49.16817358398438,3.4246965082779526,-5.2457314932376145,4.144254937180876
1705060400474586400,49.21858642578125,4.381929136312007,-0.16102303072493523,3.169982327018678
1705060400525001500,49.26900146484375,8.831405037674307,-7.4979492792576545,3.027309301574528
1705060400575446500,49.31944653320313,5.778346085554361,-4.769235386244953,1.0860470047999173
1705060400625861600,49.36986157226563,2.0684153161995114,2.6631977570071816,-0.866657527161017
1705060400676307700,49.4203076171875,1.6392983616277574,4.742926932772994,2.694439575228095
1705060400726736600,49.47073657226562,-0.7423420692496001,3.916734467795491,3.9481118950948115
1705060400777136600,49.52113671875,1.0549326123509555,5.791286815670133,1.7413712272666393
1705060400827565600,49.571565673828125,-1.9165907237894833,-1.9752122779756782,0.2696906367200427
1705060400878010600,49.6220107421875,1.294826021901518,-3.448632679660618,0.2865870091264136
1705060400928410600,49.67241064453125,-2.818723542022705,-2.3357331045746803,1.1164021763794123
1705060400978857500,49.722857421875,6.711673814126849,-3.790589091043174,5.350520485967397
1705060401029278500,49.77327856445312,5.342921116879582,-6.407262412762641,2.416094635273516
1705060401079718700,49.82371875,3.8428541158095,-5.502475134497881,4.99847581129074
1705060401130128600,49.87412866210938,2.3332599924594164,1.178424478919804,4.482984495471418
1705060401180548600,49.924548583984375,4.716119297607243,5.295209517633914,1.5894339682623744
1705060401230993400,49.974993408203126,3.024795272926986,6.103000649002194,0.25548764984980227
1705060401281409500,50.02540942382812,-0.3330467999463901,3.855320214150846,0.13283813412291928
1705060401331823600,50.07582373046875,-1.012924120117724,1.4077557971194385,4.8051536718443035
1705060401382270500,50.1262705078125,-1.6652080250404775,-7.378899705985188,1.898200203835219
1705060401432685600,50.176685546875,3.3992563620731233,-1.4488438865721225,6.644175564393401
1705060401483099600,50.227099609375,4.763876197299361,-3.0564602849960325,-1.1694542598702014
1705060401533550600,50.27755053710938,7.093765836542844,-7.270999887758493,3.0344547894150016
1705060401583970600,50.327970458984375,4.166043867401778,-3.4475337785080074,2.1874156435027716
1705060401634403600,50.37840356445312,3.4147935384228822,4.0797757430076595,1.536785204875469
1705060401684805600,50.4288056640625,-0.11038666660636663,4.731718141016364,4.518783830866218
1705060401735236600,50.47923657226563,-0.061941474122833455,6.029070320394635,3.32795375162065
1705060401785682700,50.5296826171875,-0.3215380753951147,5.99808306145668,2.511231710299849
1705060401836097500,50.58009765625,0.2172549132956192,-2.9975635671302676,1.4671581264197826
1705060401886512600,50.6305126953125,1.421072959332168,-6.513219280228018,2.272713899951428
1705060401936956700,50.68095678710937,4.930131758382916,-0.7524298210870474,-1.845482466865331
1705060401987371800,50.73137182617187,3.2327877427607774,-6.7771180539399385,3.28435923230499
1705060402037787600,50.78178759765625,3.2571193432018157,-8.864805787494777,1.808759440754354
1705060402088227600,50.8322275390625,3.074702628651261,-4.267041066633165,3.677024086661637
1705060402138647600,50.8826474609375,1.7280008735619485,3.43993850107342,1.5917076122827827
1705060402189093600,50.93309375,0.9073751028008759,8.907947594606876,4.235578591398895
1705060402239509500,50.98350952148437,2.281383820880204,2.239374086537957,0.6692688689280301
1705060402289937400,51.0339375,-0.9138641725592315,1.8940242333248256,0.8704939635187386
1705060402340352500,51.0843525390625,-0.05356624812458176,-5.155021294742823,2.6169655826643106
1705060402390797600,51.13479760742187,-1.0079310610707848,-0.2573068646335974,1.6328410021819173
1705060402441209600,51.18520971679688,6.157061909535527,-10.365248343878983,3.764137429708242
1705060402491632600,51.23563256835938,-0.8558634536851197,-6.50348114554584,3.940700157533586
1705060402542059800,51.286059814453125,7.5370841888159505,-10.30031614524126,-0.3034252398710698
1705060402592474600,51.336474609375,2.597227739754319,-0.6531552078645676,3.7085450140848755
1705060402642919400,51.38691943359375,1.2812186445705591,2.9884993861868976,2.9992934596627947
1705060402693335600,51.43733544921875,-2.2894281572565434,3.3812627324819564,3.204827430428564
1705060402743781600,51.48778173828125,0.3067580010229721,4.171536327338218,1.9529541228078304
1705060402794197500,51.538197509765624,-0.21674661671360954,-1.363730339040607,-0.06826168098715134
1705060402844610800,51.58861083984375,1.9491743120081721,-3.586040624183416,3.5619659211128947
1705060402895056400,51.63905639648438,1.4127556512333452,-3.655024436299503,1.1264835715413093
1705060402945474600,51.689474609375,1.9640254057899116,-4.134931813040375,1.5046394235521554
1705060402995902500,51.73990234375,3.852385914264619,-9.32614962580204,2.276836240578443
1705060403046314500,51.790314453125,1.4927866348035632,-3.085462507596612,2.796022465392947
1705060403096747500,51.84074755859375,1.4917441400133074,10.807212358933686,5.612192815801501
1705060403147166500,51.89116650390625,2.247538542162627,7.043948789450526,1.8344066538386046
1705060403197611500,51.94161157226562,0.36328714950717983,5.9315802525013686,1.2989558151826262
1705060403248039400,51.99203930664063,-1.0590239002525805,-2.128464565101266,3.3497377134054895
1705060403298452700,52.04245263671875,1.724374207497388,-4.346928550079465,3.9573686760008333
1705060403348866800,52.09286669921875,-1.4536315592400728,-3.5805756367757913,2.9041899946451184
1705060403399304700,52.1433046875,2.3973501873150465,-5.911475037583709,1.761957795960456
1705060403449727500,52.1937275390625,3.6654610746398566,-3.5573821004539727,5.842964980459213
1705060403500172500,52.24417260742187,8.505984166029096,-5.778572295525669,2.1865793388091026
1705060403550588700,52.29458862304688,3.268816502997279,-1.390220140428841,0.7945971571438014
1705060403601019600,52.34501953125,1.5514824232697486,4.946473821374774,3.7836993315294385
1705060403651434800,52.395434814453125,-0.7273729751113802,4.968987266477942,5.668806683427095
1705060403701849600,52.445849609375,1.9614970563560723,4.602673535691202,1.8003171911016105
1705060403752278500,52.49627856445313,-1.6245052816435694,1.2336670581921934,0.2128811551908031
1705060403802711600,52.546711669921876,2.0512474699079988,-5.0203924595445395,0.6385659068241715
1705060403853156600,52.59715649414063,-3.6619027976363894,-6.5416299666762345,3.3714655610889195
1705060403903571700,52.64757177734375,8.122871568393707,-0.5205354474663734,2.2311394882865248
1705060403954008600,52.698008544921876,5.006151168224215,-0.44991537591796366,3.217325677473843
1705060404004414500,52.74841455078125,2.624521989393234,-5.837086443814635,2.816828229795396
1705060404054837800,52.79883764648437,2.270857020038366,-3.605788111704588,7.072060785213113
1705060404105286700,52.84928662109375,3.4998426424160596,2.502702074624598,2.537823656888306
1705060404155707600,52.89970776367188,2.568247728985548,8.889882361084222,0.8180635921228676
1705060404206121700,52.95012182617187,2.9407758042424916,4.518365313193201,2.4356708578810093
1705060404256537600,53.00053759765625,-0.11103698374126106,-0.6916479470618069,4.551367419084906
1705060404306988500,53.05098852539062,-1.771241026481986,-1.4253722639612854,4.229309886392951
1705060404357397500,53.1013974609375,-1.5064824210703371,-3.5573674874067303,1.5149009975865482
1705060404407843600,53.151843505859375,1.4554843474999068,-4.396895819297432,5.102826997125148
1705060404458259500,53.20225952148437,4.645980177976191,-5.961887712481618,5.268887912419438
1705060404508673800,53.252673828125,7.959572519028186,-6.652032707634568,2.901712206354737
1705060404559119600,53.30311962890625,1.9547407139636575,2.751432213038206,0.018861351194762392
1705060404609534500,53.35353442382812,1.3007893142201006,5.922610179582238,2.1371904540009794
1705060404659963600,53.40396362304688,-0.4407019592296332,4.074401356492936,4.05391795591265
1705060404710395600,53.45439575195312,1.125639960324019,2.9896313128262757,3.20342779276371
1705060404760809700,53.504809814453125,-2.079594735731184,-0.8788061570510267,1.7879812950111924
1705060404811224600,53.555224609375,-0.5962374253889545,-3.5079517145916816,2.783497038079798
1705060404861675500,53.60567553710938,-3.6909815926045177,-3.3463398876607418,3.4612878708332775
1705060404912099600,53.656099609375,9.095475660821794,-1.4632716403752564,0.805727476836741
1705060404962514700,53.7065146484375,7.087963872265815,-8.780973073554039,2.8981089211657642
1705060405013001000,53.7570009765625,1.4242536351948976,-2.1991838227078317,4.736708788910508
1705060405063425800,53.80742578125,3.6832977601036427,0.04391521633712109,6.1574313273698085
1705060405113841000,53.8578408203125,3.4462013608604667,5.254622071179747,1.4606097276896237
1705060405164286000,53.90828588867188,3.2074805752858517,7.083048043173551,0.11450939082587137
1705060405214687700,53.958687744140626,0.5986139817945659,3.7551957061007615,2.0865750961378216
1705060405265117000,54.00911694335937,-0.6104389692207798,0.6945035556886344,3.6288963078305123
1705060405315547000,54.059546875,-0.979512921968475,-2.8764743047237396,2.4361633175730706
1705060405365961700,54.10996166992187,0.8133858095701784,-4.643714571131766,4.707459605811536
1705060405416408800,54.160408935546876,2.9593825972959396,-4.322201812840998,4.0514261390969155
1705060405466824000,54.210823974609376,9.307346141132712,-4.978530755370855,3.0361329517602917
1705060405517238800,54.26123876953125,5.39005345493257,-3.345580009204149,1.8854164178468287
1705060405567684900,54.31168481445312,2.209987248533964,0.9437129289865493,1.4954812807150184
1705060405618100000,54.36209985351562,1.374520759254694,5.802335448428988,3.078805680055916
1705060405668544800,54.412544677734374,0.9163562816359102,3.280136938434839,4.018434554599225
1705060405718959900,54.4629599609375,0.20464379872670396,2.971770077443123,0.8537352094847709
1705060405769372000,54.51337182617188,-1.1798997391041368,-3.6711236304461954,2.385628623730689
1705060405819805000,54.563804931640625,-1.7277309705793857,-3.3263749579966064,3.02472191542983
1705060405870230000,54.61422998046875,-2.813320221674442,-2.6130712055742737,3.613355624349415
1705060405920663800,54.66466381835937,6.014622692847252,2.3792183182969686,2.189076124060899
1705060405971095800,54.715095703125,5.234134578946232,-7.199260931715369,2.9095494758516547
1705060406021511000,54.765510986328124,0.8103353359583765,-4.798820377169549,3.6601010089114308
1705060406071925800,54.81592578125,4.040605469875038,-1.439506441645324,5.588550074407458
1705060406122355000,54.86635498046875,4.2156490253090855,4.265475132490694,2.430047172780335
1705060406172786000,54.916785888671875,3.062578183354437,7.49967361883223,0.305560900192894
1705060406223231700,54.96723168945312,0.35391901718117297,4.3859518159568305,2.469254855313897
1705060406273647900,55.01764794921875,-0.7209134237084537,-0.21779133999356998,5.109014161327481
1705060406324062000,55.06806201171875,-1.093152306760475,-2.7148732914477587,3.9751144683107733
1705060406374507000,55.118507080078125,-2.3749231053210793,-1.4714967401459813,2.786246336787939
1705060406424936700,55.168936767578124,3.152273944109678,-7.174152793943882,4.343939597396552
1705060406475336700,55.21933666992187,4.634112337788939,-4.276325612328947,5.250933153533936
1705060406525766000,55.26976586914063,6.692804278483987,-6.122043203124403,3.7671661298796533
1705060406576213000,55.320212890625,1.5399945223107934,2.6106565456479784,1.7609202696062622
1705060406626627000,55.370626953125,1.6258154874593018,4.843845221549272,2.038206348157674
1705060406677068000,55.42106811523438,0.5528571333458647,3.8475899121597408,3.473945107832551
1705060406727489000,55.47148901367188,0.46355534034427254,3.7924645295262334,1.5393375197067856
1705060406777918700,55.52191870117188,-1.7304881603330373,-1.3311635558262467,2.6219877947404977
1705060406828334800,55.5723349609375,0.541904216046445,-5.163077175426483,3.056305094434321
1705060406878749000,55.6227490234375,-3.603527473296225,-2.4247721549868584,2.021684252423793
1705060406929195000,55.67319506835938,4.991742703643441,-0.743418466309458,3.3862177245408294
1705060406979615000,55.723614990234374,5.87012537458539,-5.262631774634123,3.6317470210865137
1705060407030024700,55.774024658203125,2.149328343301266,-4.279562986814976,3.849676947566867
1705060407080470800,55.824470703125,3.855641993451118,-2.548316701591015,5.602959708032012
1705060407130886000,55.874885986328124,3.6030543028265236,3.685645784534514,2.4055760177381336
1705060407181295900,55.9252958984375,2.9585233501181003,7.081536469566822,2.266815927954018
1705060407231746800,55.97574682617188,0.37358456203993406,3.2637899070069194,2.5956474848255513
1705060407282178000,56.026177978515626,-0.21000733505384994,0.2236835033047013,3.8899280016735194
1705060407332590800,56.0765908203125,-0.6560446456957608,-1.6462570947244763,3.1581872598066925
1705060407383005000,56.1270048828125,-1.6689409279584884,-2.485687811459601,3.7699297493740915
1705060407433450000,56.17744995117187,1.912145873209834,-6.913088366875052,5.843953406974673
1705060407483883000,56.22788305664063,2.600235981659591,0.09707806215942837,2.393330722540617
1705060407534297900,56.2782978515625,8.511381641158462,-7.745707065507769,4.381156982895732
1705060407584725800,56.32872583007813,3.8672476755708454,-1.449541367316991,1.6740685001052915
1705060407635158800,56.37915869140625,2.8325869399413466,4.334058839373291,2.2082212617747485
1705060407685572900,56.42957275390625,1.972190738197416,4.587207963272929,4.325378981572389
1705060407735988000,56.47998803710937,0.3744865523809567,2.3666369230128823,2.5952579009860752
1705060407786434800,56.53043481445312,-0.8391094488915055,1.6989758546076714,0.9158244397815316
1705060407836850000,56.58084985351562,-1.8915714333452283,-2.737217225202918,2.438574324237555
1705060407887265000,56.63126513671875,0.057544778100424444,-4.26998618017435,3.7846103088945147
1705060407937709800,56.681709716796874,-2.200064551065117,-1.502011559266597,2.981871784740686
1705060407988125000,56.732125,5.162656319665908,-2.099649974027276,4.270951518075168
1705060408038571000,56.78257104492187,3.7640643644720315,-4.614981520861387,2.287256950697303
1705060408088967700,56.8329677734375,3.5864433597654104,-5.873228016775846,6.48212739187181
1705060408139414800,56.883414794921876,2.7844749432012437,1.453544611608982,3.4122014761030672
1705060408189841000,56.9338408203125,3.9310666522696613,6.26194325672388,2.316638089612871
1705060408240262000,56.98426196289063,2.216849681649357,7.0800851017147295,2.1556543314523995
1705060408290676000,57.034676025390624,-0.09252855476206168,2.491893388101458,3.1037270630836487
1705060408341121800,57.08512182617188,0.17646356003349645,-0.7730835367329418,5.149931278127432
1705060408391535900,57.135535888671875,-0.3835603779355064,-4.624838898009061,2.294622803290188
1705060408441970000,57.18596997070313,-2.1027442867808044,0.5799026323881,3.2729020187452433
1705060408492396800,57.23639672851562,2.3136887382879854,-7.406267020860314,3.4555046112567185
1705060408542812000,57.28681201171875,5.4510202570706605,1.3580493707947432,7.146487372905016
1705060408593227800,57.337227783203126,8.17327489094138,-6.132271167150139,2.821908894060552
1705060408643672800,57.3876728515625,3.4637218199819326,-1.2387348629757762,1.6381394008509813
1705060408694087000,57.4380869140625,0.8458334964495152,4.145158315761387,2.8787270520865915
1705060408744532700,57.48853271484375,1.4807804090589285,5.441265755775571,4.633661963672935
1705060408794957800,57.538957763671874,0.7343709442399442,2.6644308059334754,2.4073763451583683
1705060408845377000,57.589376953125,-1.2727867701813578,-0.46329964855015277,1.547757557527721
1705060408895791900,57.6397919921875,-0.997897888964787,-3.915802155381441,2.4247356223687526
1705060408946239000,57.69023901367188,-0.7250983081776649,-4.824700960618257,2.670895325772464
1705060408996640000,57.74063989257812,4.6997778191372745,-2.2669211418941617,3.5853792376652356
1705060409047061000,57.79106103515625,4.973229726353288,-2.103455649920553,4.466209009498358
1705060409097513000,57.841512939453125,2.507983229897916,-6.53794689424932,3.0540508857667445
1705060409147915000,57.8919150390625,4.380955615104734,-4.567618296661973,6.163893801382184
1705060409198343000,57.942343017578125,3.7024730006948112,3.9282793596386907,2.9316262831032276
1705060409248774700,57.992774658203125,3.5821553071826693,7.343722594141959,2.0033499927014113
1705060409299220700,58.043220703125,1.306483580338955,5.458847589695453,2.8466061129435896
1705060409349640000,58.093639892578125,-0.5441518853753805,0.5364981922844424,4.285948011676967
1705060409400051700,58.1440517578125,-0.8505663701903075,-3.636385202281177,4.946450440499186
1705060409450497000,58.1944970703125,-1.7550595608793198,-1.7123976462386548,4.523456498852372
1705060409500911000,58.2449111328125,1.7564042534865438,-5.723084217059612,3.854372411906719
1705060409551339800,58.29533984375,4.896353991943598,-0.30633650594158096,2.1816566415846346
1705060409601755000,58.3457548828125,7.124147530803084,-5.442993602481484,6.123450731834769
1705060409652201000,58.39620092773438,4.311525520525873,-2.0334622223705052,2.4688404292941093
1705060409702616800,58.44661694335937,1.3717616698049009,1.6885516373574734,2.6103084628626703
1705060409753048000,58.49704809570313,0.7685903900321572,3.740408179074526,4.692020044617355
1705060409803462000,58.5474619140625,-0.052268869824381545,4.104983834022283,3.894606222617626
1705060409853877800,58.59787768554688,0.6981042105291039,3.065702745115757,1.7245640309810637
1705060409904323800,58.64832373046875,-1.7480916215628384,-1.3401355284415184,1.6721239419087766
1705060409954753000,58.6987529296875,0.04269716405055951,-4.724254381006956,2.7023183457791804
1705060410005208600,58.74920849609375,-5.042708336248993,-2.994190583565831,4.227597529517114
1705060410055623400,58.79962353515625,3.985419004704058,-4.077292109498381,3.8368981300145384
1705060410106038500,58.85003857421875,3.731796418073773,-3.7005794420331712,3.5437729695573448
1705060410156483300,58.9004833984375,3.605388590992987,-4.891681031696498,3.639380292443931
1705060410206907400,58.95090747070312,3.1460660293802616,-1.5444544243291018,6.584490034237503
1705060410257326300,59.00132641601562,3.054557373984158,4.4184354509323835,1.9181185178786515
1705060410307761400,59.05176147460938,2.2629577912211416,7.995200881770253,2.3508977943502365
1705060410358158300,59.10215844726562,0.01296072487431811,4.159670825238526,3.852481483593583
1705060410408614400,59.152614501953124,0.6588526157885789,-1.0639244587104766,5.389819061654806
1705060410459017500,59.203017578125,-1.9082260694175956,-4.13505456263721,4.846699441936612
1705060410509464600,59.25346459960937,-1.0939923377811909,-0.4943749510977417,4.539282429015636
1705060410559886300,59.30388623046875,1.6816474109269677,-2.9869942423209546,3.935121772879362
1705060410610294500,59.35429443359375,4.060834311172366,-2.3419622082225975,2.3143318584971126
1705060410660738600,59.40473852539063,7.8464844845086335,-4.77994558082968,5.020934311336279
1705060410711170600,59.45517065429687,4.995991008737683,-2.3065235228337344,2.1807767900101838
1705060410761585400,59.50558544921875,0.9022896162301302,2.423962592169642,1.606898605543375
1705060410812001500,59.55600146484375,0.5027090276682749,5.351776623508334,3.667354925562441
1705060410862429400,59.606429443359374,-0.07346430026469752,4.541093277829885,3.9874899657592175
1705060410912860400,59.6568603515625,0.21534064063951372,2.024444510917365,1.7064605112746356
1705060410963275500,59.70727563476562,-2.8655799857437607,-4.4765521243363615,3.3473236380010842
1705060411013721300,59.75772143554688,-1.543761619759351,-3.6829715968891974,2.727698286229372
1705060411064150500,59.808150634765624,2.4121453131258486,-4.023493299293518,1.872981591426581
1705060411114565400,59.8585654296875,2.1067921008668837,-3.6410423804372547,4.183030073516071
1705060411164987600,59.90898754882812,3.8048756828099486,-3.2060642787471414,4.658458843538165
1705060411215405600,59.959405517578126,2.229016066391766,-3.884934138908982,6.771236010164022
1705060411265827300,60.009827392578124,2.5565049764826893,3.0147005798920987,4.126186781048775
1705060411316268500,60.0602685546875,2.505876028485596,5.8837225227832795,2.2411454801246524
1705060411366687500,60.1106875,1.392941089825332,5.835738536337018,2.8893574594333766
1705060411417134600,60.16113452148438,0.05788586945594288,1.7419572104610501,3.1711957944616675
1705060411467531500,60.21153149414062,-0.9383303591653704,-1.6699024664670228,3.9335803886562584
1705060411517963500,60.261963623046874,-1.3735913694500923,-1.3626140483617781,4.795511106491088
1705060411568410400,60.312410400390625,-0.7088361054889858,-4.717066223068535,5.879947095897793
1705060411618824400,60.36282446289062,6.006665596362948,0.5511520099284127,5.089073781582713
1705060411669240600,60.413240478515625,7.691052515256405,-4.179517681480944,4.358681531715392
1705060411719677400,60.463677490234375,6.075580727156996,-4.282194504362344,3.6108261058717965
1705060411770099500,60.51409936523437,0.16149452069420367,3.7061797462582584,1.8105903094433247
1705060411820527600,60.56452758789062,0.9647544018410146,4.720317041558027,5.504663584452867
1705060411870944500,60.614944580078124,0.317253164617531,3.680984222464263,2.8922447053074833
1705060411921390600,60.665390625,-0.3089031232928857,2.9239696308702228,1.6993384043097495
1705060411971791600,60.71579150390625,-2.3325246639221904,-1.956821027369052,2.854464717489481
1705060412022219500,60.766219482421874,-0.851885270769149,-6.33007279009819,3.121661363703012
1705060412072651300,60.8166513671875,-2.4588354603692886,-1.7645687091112137,3.7777459760829806
1705060412123080400,60.86708056640625,2.6820044565469026,-2.246226582781225,5.043115163484216
1705060412173512400,60.91751245117187,5.171932097533345,-5.147863239681721,1.0183879384815693
1705060412223926500,60.96792651367188,2.3017795431770383,-5.402210341194272,6.097754565042257
1705060412274367500,61.01836743164063,2.6900299420922993,1.68363887700513,4.778974397709965
1705060412324798500,61.068798583984375,3.3329061133310196,5.444557783058285,1.7067999723620713
1705060412375222500,61.11922241210937,2.1583103989191352,6.2941831460714335,3.1737621378183363
1705060412425648400,61.1696484375,-0.45304735380075867,2.4300102017708123,4.078834370504319
1705060412476063500,61.2200634765625,-0.3212130446918309,-1.254057373661548,5.396038374561071
1705060412526478600,61.270478515625,-1.1230053740367292,-4.485475143243372,4.240298897919058
1705060412576921300,61.32092138671875,-2.671818870358169,-1.3162540098555384,3.4825992466703055
1705060412627338500,61.37133837890625,2.479962419550121,-4.522331001953781,2.419283056051284
1705060412677768400,61.4217685546875,5.1163756300061936,-1.660353132355213,5.237843370336294
1705060412728200400,61.472200439453125,6.188721953168511,-4.972622408109903,1.831430414506793
1705060412778614500,61.52261450195312,2.207614674183726,0.30155252306805924,1.5069697661958634
1705060412829060600,61.573060546875,1.8146759713217615,4.802493804985285,3.0722999514237044
1705060412879475500,61.623475341796876,0.11354244548985734,4.242733139328658,4.46834952865839
1705060412929907500,61.67390747070313,1.1037805952154098,2.512595692129433,2.7886525211468336
1705060412980336400,61.72433642578125,-0.144056031634612,-0.9971727164953946,2.6732430579423903
1705060413030751500,61.77475146484375,-0.6509698266495019,-4.791782733617723,2.8684511572659015
1705060413081166600,61.82516650390625,-2.424400252934545,-4.2402527206897735,1.7512917327784001
1705060413131610400,61.8756103515625,2.5036913779228924,-2.872597463290393,4.7606531435996295
1705060413182025500,61.926025390625,4.048817417903244,-1.1316126780580729,4.642540851177275
1705060413232445400,61.97644555664063,3.9570118253871795,-4.549237421318888,3.738022160720825
1705060413282887400,62.02688745117187,3.423893667462468,-2.9605270911559463,6.934478945428133
1705060413333316600,62.07731665039063,3.2347870998844503,4.549384720835089,1.1234954225759952
1705060413383730400,62.12773046875,3.5383760789498684,5.830189085516333,1.6897515146665274
1705060413434145500,62.1781455078125,1.6279998457610607,4.029840914754569,3.7320363643094896
1705060413484578300,62.22857836914063,0.22593908194545656,-0.08880256564202718,4.980677119749784
1705060413535021600,62.279021484375,-2.023701875856519,-3.854292040146887,4.208969109153747
1705060413585437400,62.3294375,-1.5356101697467266,-1.8521805031992493,3.494980297076702
1705060413635852500,62.3798525390625,1.606169122225046,-4.844962242880463,3.902712956705689
1705060413686299600,62.43029956054688,4.101896389400959,2.1174244079098106,4.012778720794618
1705060413736714200,62.48071435546875,9.059213091829418,-6.020957741087675,6.339325771611929
1705060413787128600,62.531128662109374,4.630086151012778,-1.6747256488397717,3.36280090085715
1705060413837557500,62.5815576171875,1.879061203601211,0.729402435112372,2.955840686905384
1705060413887990500,62.631990478515625,0.8814177277889103,4.388843738006055,4.149213436371088
1705060413938404600,62.68240454101562,0.7400983819760382,3.971075129792094,4.434606833532452
1705060413988849400,62.73284936523437,0.9401648811161517,0.6507095682781189,2.195621161790192
1705060414039264500,62.78326440429687,-1.1645792011797427,-2.1214571705572305,3.0384669476658104
1705060414089683500,62.83368334960937,-1.1965467763919382,-5.069840673324466,4.154011192041636
1705060414140123400,62.88412329101563,0.5280485265102237,-3.091523415070772,1.9758882775411009
1705060414190554400,62.934554443359374,2.015429722073674,-2.1597033145822584,5.4703878053635355
1705060414240986400,62.984986328125,4.988270059096813,-2.900095126546919,4.1443224494591355
1705060414291400400,63.035400390625,3.089247579093277,-5.018792623132467,6.079354400476813
1705060414341816300,63.08581640625,1.8361334776312113,-0.6759225546635687,6.196115570551156
1705060414392261600,63.13626171875,2.7553286359548568,4.084808768738806,2.852297018061578
1705060414442676500,63.18667651367188,3.286347191251814,6.756714148336648,2.6095249112695456
1705060414493110500,63.23711059570312,-0.33286559816058725,3.1519656088128682,3.3869933850884437
1705060414543527400,63.28752734375,0.48430773059166965,-0.47213049566168336,5.286958406639099
1705060414593953300,63.33795336914063,-1.3943635238438843,0.47735652321428057,4.766999005495012
1705060414644378400,63.38837841796875,-2.1311825918883085,-1.3557880017340183,3.4131495706081387
1705060414694793500,63.43879345703125,1.350268069268763,-7.236852118963003,7.180728080680966
1705060414745239600,63.48923950195312,3.9444294071897863,0.957123760832101,6.090654962170124
1705060414795642400,63.539642333984375,6.584968757665157,-6.252845758032798,4.777582066568732
1705060414846074600,63.59007470703125,3.855147780193388,-1.7533818369254468,2.214753586152941
1705060414896518400,63.640518310546874,2.9100606402441858,0.09279964505471289,1.9060044478453695
1705060414946933500,63.69093359375,0.05131109417551197,4.461630449536442,4.196881780996918
1705060414997401600,63.74140161132812,-0.31561387297790494,4.586223628410696,5.727058965909481
1705060415047813600,63.791813720703125,-0.272366632729955,2.5183558630913496,1.7872635021306573
