time,seconds_elapsed,z,y,x
1705063582575434200,0.046434326171875,-0.8399999737739563,1.135200023651123,2.3980000019073486
1705063582635432700,0.1064326171875,0.15609999001026154,0.02410000003874302,0.011699999682605267
1705063582695432700,0.1664326171875,0.07119999825954437,-0.014299999922513962,-0.03269999846816063
1705063582755432700,0.2264326171875,0.11719999462366104,-0.5525000095367432,0.4708999991416931
1705063582815432700,0.2864326171875,0.15479999780654907,-0.48829999566078186,0.350600004196167
1705063582875432700,0.3464326171875,0.0828000009059906,-0.4188999831676483,0.21849998831748962
1705063582935432700,0.4064326171875,0.09009999781847,-0.21639999747276306,0.1639999896287918
1705063582995432700,0.4664326171875,0.01759999990463257,-0.09479999542236328,0.007499999832361937
1705063583055432700,0.5264326171875,0.2597000002861023,-0.06619999557733536,0.043299999088048935
1705063583115432700,0.5864326171875,0.6845999956130981,-0.07019999623298645,0.4253000020980835
1705063583175432700,0.6464326171875,0.2768000066280365,-0.762999951839447,-0.07580000162124634
1705063583235432700,0.7064326171875,0.030299998819828033,0.059699997305870056,-0.4754999876022339
1705063583295432700,0.7664326171875,-1.0441999435424805,0.1939999908208847,-0.26980000734329224
1705063583355432700,0.8264326171875,0.062199998646974564,0.28859999775886536,-0.26260000467300415
1705063583415432700,0.8864326171875,0.06749999523162842,0.2944999933242798,-0.2848999798297882
1705063583475432700,0.9464326171875,-0.31679999828338623,0.5965999960899353,-1.0156999826431274
1705063583535432700,1.0064326171875,-0.03460000082850456,-0.3723999857902527,-1.9756999015808105
1705063583595432700,1.0664326171875,-0.16839998960494995,0.35989999771118164,-1.0949000120162964
1705063583655432700,1.1264326171875,-0.6601999998092651,0.17009998857975006,-1.8514999151229858
1705063583715432700,1.1864326171875,1.1452000141143799,0.11029999703168869,-1.5465999841690063
1705063583775432700,1.2464326171875,2.0732998847961426,-0.6534000039100647,-0.35929998755455017
1705063583835432700,1.3064326171875,1.3966999053955078,1.1984000205993652,0.6930999755859375
1705063583895432700,1.3664326171875,1.1929999589920044,4.440299987792969,-0.0023999998811632395
1705063583955432700,1.4264326171875,3.1830999851226807,1.9975999593734741,-1.2282999753952026
1705063584015432700,1.4864326171875,3.2170000076293945,1.3317999839782715,0.19689999520778656
1705063584075432700,1.5464326171875,2.837100028991699,-0.5845999717712402,0.14839999377727509
1705063584135432700,1.6064326171875,1.9179999828338623,-0.003700000001117587,0.20399999618530273
1705063584195432700,1.6664326171875,1.920699954032898,-0.5324999690055847,-1.490899920463562
1705063584255432700,1.7264326171875,1.2826999425888062,-0.9797999858856201,-2.0185999870300293
1705063584315432700,1.7864326171875,-0.31029999256134033,-1.2709999084472656,-0.314300000667572
1705063584375460900,1.8464609375,-0.12429999560117722,-1.2942999601364136,-0.5503000020980835
1705063584435432700,1.9064326171875,-0.34129998087882996,-1.4660999774932861,0.07699999958276749
1705063584495432700,1.9664326171875,-1.409999966621399,-1.3233000040054321,0.2214999943971634
1705063584555432700,2.0264326171875,-1.58489990234375,-1.379499912261963,0.3540000021457672
1705063584615432700,2.0864326171875,-1.430400013923645,-1.0190999507904053,0.2838999927043915
1705063584675432700,2.1464326171875,-1.5312999486923218,-1.37309992313385,0.5
1705063584735432700,2.2064326171875,-1.9199999570846558,-0.7795000076293945,0.2254999876022339
1705063584795432700,2.2664326171875,-1.111299991607666,-0.6335999965667725,-0.7368999719619751
1705063584855432700,2.3264326171875,-1.385599970817566,-0.6449999809265137,0.2791000008583069
1705063584915432700,2.3864326171875,-1.3284000158309937,-1.2288999557495117,-0.06469999998807907
1705063584975434200,2.446434326171875,-0.7838999629020691,-1.7989999055862427,0.023099999874830246
1705063585035432700,2.5064326171875,-0.2230999916791916,-0.44579997658729553,0.4796999990940094
1705063585095432700,2.5664326171875,-0.6882999539375305,-0.18539999425411224,1.0444999933242798
1705063585155432700,2.6264326171875,-0.058399997651576996,-0.3294999897480011,1.1557999849319458
1705063585215432700,2.6864326171875,0.9925999641418457,-0.19739998877048492,1.30239999294281
1705063585275432700,2.7464326171875,1.0061999559402466,-0.22989998757839203,1.073699951171875
1705063585335432700,2.8064326171875,-0.1906999945640564,-0.5618999600410461,0.8986999988555908
1705063585395432700,2.8664326171875,0.2854999899864197,-0.8534999489784241,0.6699999570846558
1705063585455432700,2.9264326171875,0.2930999994277954,0.20479999482631683,0.5946999788284302
1705063585515432700,2.9864326171875,-0.009099999442696571,-0.5322999954223633,-0.025100000202655792
1705063585575432700,3.0464326171875,-0.01640000008046627,-0.16929998993873596,-0.374099999666214
1705063585635432700,3.1064326171875,0.7005999684333801,-0.6480000019073486,0.37689998745918274
1705063585695432700,3.1664326171875,1.5652999877929688,-0.24549999833106995,0.28049999475479126
1705063585755432700,3.2264326171875,1.0770000219345093,-0.6286999583244324,-0.22379998862743378
1705063585815432700,3.2864326171875,-0.0071000000461936,-1.1561999320983887,-0.47029998898506165
1705063585875432700,3.3464326171875,0.06549999862909317,-0.7335999608039856,-2.1110999584198
1705063585935432700,3.4064326171875,-1.0530999898910522,-0.5295999646186829,-1.6058999300003052
1705063585995432700,3.4664326171875,-1.6775000095367432,-0.6832999587059021,-2.006700038909912
1705063586055432700,3.5264326171875,0.13779999315738678,0.0011999999405816197,-1.2774999141693115
1705063586115432700,3.5864326171875,1.5188000202178955,0.9103999733924866,-1.1553999185562134
1705063586175432700,3.6464326171875,0.6951999664306641,1.0749000310897827,-0.26749998331069946
1705063586235432700,3.7064326171875,0.24210000038146973,0.920199990272522,-0.1656000018119812
1705063586295432700,3.7664326171875,0.35659998655319214,1.1841999292373657,-0.4773999750614166
1705063586355432700,3.8264326171875,0.9420999884605408,1.0016000270843506,-0.2069000005722046
1705063586415432700,3.8864326171875,0.5928999781608582,0.4499000012874603,-0.06199999898672104
1705063586475460900,3.9464609375,0.3561999797821045,1.062399983406067,0.5483999848365784
1705063586535432700,4.0064326171875,1.0519999265670776,0.11050000041723251,-0.03830000013113022
1705063586595434200,4.066434326171875,0.5532999634742737,0.11029999703168869,0.2996000051498413
1705063586655434200,4.126434326171875,0.47909998893737793,-0.4934999942779541,-0.24539999663829803
1705063586715434200,4.186434326171875,0.12389999628067017,-1.0555999279022217,-0.32189998030662537
1705063586775434200,4.246434326171875,0.09769999980926514,-0.5870999693870544,-0.2703000009059906
1705063586835434200,4.306434326171875,0.5164999961853027,-0.2694000005722046,-0.2597000002861023
1705063586895432700,4.3664326171875,0.7630999684333801,0.5245999693870544,0.04919999837875366
1705063586955432700,4.4264326171875,0.3215999901294708,0.5703999996185303,-0.22269999980926514
1705063587015432700,4.4864326171875,-0.5893999934196472,0.13040000200271606,-0.48489999771118164
1705063587075432700,4.5464326171875,-0.18449999392032623,-0.14259999990463257,-0.3024999797344208
1705063587135432700,4.6064326171875,-0.03269999846816063,-0.24819999933242798,-0.03240000084042549
1705063587195432700,4.6664326171875,0.3303999900817871,0.17639999091625214,-0.1876000016927719
1705063587255432700,4.7264326171875,0.09319999814033508,-0.22749999165534973,-0.5537999868392944
1705063587315432700,4.7864326171875,-0.2280000001192093,0.06859999895095825,-0.8162999749183655
1705063587375432700,4.8464326171875,-0.2620999813079834,-0.01979999989271164,-0.7745999693870544
1705063587435432700,4.9064326171875,-0.3262999951839447,-0.7617999911308289,-0.08209999650716782
1705063587495432700,4.9664326171875,-0.22589999437332153,-0.8969999551773071,-0.06960000097751617
1705063587555432700,5.0264326171875,0.38279998302459717,1.7602999210357666,-0.4519999921321869
1705063587615432700,5.0864326171875,0.16489998996257782,-0.02319999970495701,0.18060000240802765
1705063587675432700,5.1464326171875,0.13099999725818634,-0.343999981880188,0.08219999819993973
1705063587735432700,5.2064326171875,0.055399999022483826,-0.05979999899864197,-0.16849999129772186
1705063587795432700,5.2664326171875,0.11189999431371689,-0.17599999904632568,0.0908999964594841
1705063587855432700,5.3264326171875,-0.24210000038146973,-0.0608999989926815,0.40469998121261597
1705063587915432700,5.3864326171875,0.3885999917984009,-0.4456000030040741,0.4449999928474426
1705063587975432700,5.4464326171875,0.5503999590873718,0.7400000095367432,0.525600016117096
1705063588035432700,5.5064326171875,0.16939999163150787,0.6083999872207642,-0.15569999814033508
1705063588095432700,5.5664326171875,-0.243599995970726,-0.28129997849464417,-0.6093999743461609
1705063588155432700,5.6264326171875,-0.5206999778747559,-0.3513000011444092,-0.4675999879837036
1705063588215432700,5.6864326171875,0.31029999256134033,0.5044000148773193,-0.2733999788761139
1705063588275432700,5.7464326171875,0.4811999797821045,0.6398999691009521,0.6317999958992004
1705063588335432700,5.8064326171875,1.0232999324798584,0.7537999749183655,-0.19049999117851257
1705063588395432700,5.8664326171875,0.6177999973297119,0.2718999981880188,-0.21279999613761902
1705063588455432700,5.9264326171875,-0.17949999868869781,0.009800000116229057,-0.20999999344348907
1705063588515432700,5.9864326171875,-0.3610000014305115,-0.20709998905658722,-0.6078000068664551
1705063588575460900,6.0464609375,-0.6434000134468079,-0.16359999775886536,-0.7069000005722046
1705063588635432700,6.1064326171875,-0.08839999884366989,-0.8360999822616577,-0.2361999899148941
1705063588695432700,6.1664326171875,-0.10329999774694443,-0.973800003528595,-0.0031999999191612005
1705063588755432700,6.2264326171875,-0.19789999723434448,-0.3236999809741974,-0.044599998742341995
1705063588815432700,6.2864326171875,0.08309999853372574,-0.5788999795913696,-0.6046000123023987
1705063588875432700,6.3464326171875,-0.3971000015735626,-1.1026999950408936,-0.10109999775886536
1705063588935432700,6.4064326171875,-0.13899999856948853,0.08749999850988388,-0.705299973487854
1705063588995432700,6.4664326171875,0.684499979019165,2.5961999893188477,-1.701200008392334
1705063589055432700,6.5264326171875,0.5352999567985535,0.8495000004768372,-1.7655999660491943
1705063589115432700,6.5864326171875,-2.373800039291382,-0.8930000066757202,1.3657000064849854
1705063589175432700,6.6464326171875,0.708299994468689,-0.6902999877929688,0.11779999732971191
1705063589235432700,6.7064326171875,0.4526999890804291,0.08159999549388885,-0.5670999884605408
1705063589295432700,6.7664326171875,-0.2157999873161316,0.8816999793052673,0.34950000047683716
1705063589355432700,6.8264326171875,1.305999994277954,-1.9316999912261963,0.3190000057220459
1705063589415432700,6.8864326171875,-1.6131999492645264,-10.002999305725098,2.3766000270843506
1705063589475432700,6.9464326171875,2.4835000038146973,-3.060699939727783,0.7275999784469604
1705063589535432700,7.0064326171875,2.751499891281128,-0.07889999449253082,1.4958000183105469
1705063589595432700,7.0664326171875,0.9752999544143677,5.600599765777588,0.04439999908208847
1705063589655432700,7.1264326171875,0.5288000106811523,3.7542998790740967,-1.5094999074935913
1705063589715432700,7.1864326171875,-1.2157999277114868,4.2393999099731445,-1.0471999645233154
1705063589775432700,7.2464326171875,-1.2838000059127808,0.1160999983549118,-0.4781000018119812
1705063589835432700,7.3064326171875,0.9152999520301819,-1.5346999168395996,-0.014800000004470348
1705063589895432700,7.3664326171875,0.6345999836921692,-3.209699869155884,1.0846999883651733
1705063589955432700,7.4264326171875,-0.2019999921321869,-5.671499729156494,0.6187999844551086
1705063590015432700,7.4864326171875,-1.5949000120162964,-4.964399814605713,-0.149399995803833
1705063590075432700,7.5464326171875,-0.5030999779701233,-1.7437999248504639,-0.041200000792741776
1705063590135432700,7.6064326171875,1.8219999074935913,5.61899995803833,-2.8272998332977295
1705063590195432700,7.6664326171875,0.2295999974012375,2.3153998851776123,-0.1070999950170517
1705063590255432700,7.7264326171875,-0.10520000010728836,-0.7627999782562256,-0.2304999977350235
1705063590315432700,7.7864326171875,-0.039000000804662704,-2.187299966812134,-0.12299999594688416
1705063590375432700,7.8464326171875,0.4635999798774719,-2.483299970626831,0.5268999934196472
1705063590435432700,7.9064326171875,1.5549999475479126,-0.6584999561309814,-1.6845999956130981
1705063590495432700,7.9664326171875,1.0817999839782715,0.9163999557495117,-1.5435999631881714
1705063590555432700,8.0264326171875,1.0226999521255493,0.5504999756813049,0.39569997787475586
1705063590615432700,8.0864326171875,1.6495000123977661,1.4285999536514282,0.7789999842643738
1705063590675460900,8.1464609375,-0.22849999368190765,0.0364999994635582,-1.7141999006271362
1705063590735432700,8.2064326171875,-2.011399984359741,-1.8119999170303345,-0.9437999725341797
1705063590795432700,8.2664326171875,-1.5471999645233154,-3.895900011062622,-0.34219998121261597
1705063590855432700,8.3264326171875,-0.863099992275238,-4.012700080871582,0.15349999070167542
1705063590915432700,8.3864326171875,-0.5027999877929688,-3.3889999389648438,0.5067999958992004
1705063590975432700,8.4464326171875,-0.3726999759674072,-1.2056999206542969,-0.7544999718666077
1705063591035432700,8.5064326171875,0.05009999871253967,-0.7294999957084656,-0.9134999513626099
1705063591095432700,8.5664326171875,1.163699984550476,-0.20409999787807465,-1.2251999378204346
1705063591155432700,8.6264326171875,1.2561999559402466,-0.29670000076293945,-2.4624998569488525
1705063591215432700,8.6864326171875,0.48969998955726624,3.3479998111724854,-3.5612998008728027
1705063591275432700,8.7464326171875,1.2483999729156494,3.178799867630005,-1.233699917793274
1705063591335432700,8.8064326171875,0.7871999740600586,0.4903999865055084,0.5478000044822693
1705063591395432700,8.8664326171875,-1.834299921989441,-2.283599853515625,3.760699987411499
1705063591455432700,8.9264326171875,-0.5174999833106995,-2.062299966812134,4.792200088500977
1705063591515432700,8.9864326171875,1.982699990272522,0.3617999851703644,3.190199851989746
1705063591575432700,9.0464326171875,3.236999988555908,2.6577999591827393,-1.6964999437332153
1705063591635432700,9.1064326171875,0.14169999957084656,0.47929999232292175,-3.3745999336242676
1705063591695432700,9.1664326171875,-0.8491999506950378,-0.40860000252723694,-2.406899929046631
1705063591755432700,9.2264326171875,-0.7447999715805054,1.3925999402999878,-0.383899986743927
1705063591815432700,9.2864326171875,1.4993000030517578,1.788100004196167,0.6121999621391296
1705063591875432700,9.3464326171875,1.574299931526184,2.2555999755859375,-1.2122999429702759
1705063591935432700,9.4064326171875,-0.2646999955177307,-1.5951999425888062,0.3619999885559082
1705063591995432700,9.4664326171875,-1.9915999174118042,-3.5653998851776123,3.247499942779541
1705063592055432700,9.5264326171875,-2.3994998931884766,-3.388700008392334,2.98009991645813
1705063592115432700,9.5864326171875,-1.5608999729156494,-1.7267999649047852,0.5378999710083008
1705063592175432700,9.6464326171875,-1.0220999717712402,-0.5889999866485596,-2.081699848175049
1705063592235432700,9.7064326171875,-0.6728999614715576,-1.3215999603271484,-2.162600040435791
1705063592295432700,9.7664326171875,-0.5918999910354614,-2.126999855041504,-2.992300033569336
1705063592355432700,9.8264326171875,1.82669997215271,1.5099999904632568,-4.332900047302246
1705063592415432700,9.8864326171875,1.354599952697754,3.225299835205078,-2.0023999214172363
1705063592475432700,9.9464326171875,1.337999939918518,1.4479999542236328,0.10209999978542328
1705063592535432700,10.0064326171875,-0.08219999819993973,-1.1229000091552734,2.2667999267578125
1705063592595432700,10.0664326171875,-0.715399980545044,-2.5035998821258545,3.5601999759674072
1705063592655432700,10.1264326171875,0.4830999970436096,-2.2402000427246094,3.383999824523926
1705063592715432700,10.1864326171875,2.5063998699188232,-0.13589999079704285,-0.17649999260902405
1705063592775460900,10.2464609375,2.484799861907959,1.5648999214172363,-0.98089998960495
1705063592835432700,10.3064326171875,1.5326999425888062,2.2337000370025635,-1.4205999374389648
1705063592895432700,10.3664326171875,-0.6301000118255615,2.152099847793579,-0.05810000002384186
1705063592955432700,10.4264326171875,-0.15789999067783356,-0.10289999842643738,-1.0769000053405762
1705063593015432700,10.4864326171875,0.9208999872207642,1.5113999843597412,-1.848099946975708
1705063593075432700,10.5464326171875,-0.3619999885559082,-0.9314999580383301,1.2281999588012695
1705063593135432700,10.6064326171875,-1.7074999809265137,-4.270599842071533,3.060499906539917
1705063593195432700,10.6664326171875,-0.3294999897480011,-5.763000011444092,1.3901000022888184
1705063593255432700,10.7264326171875,-1.1653000116348267,-2.180500030517578,0.7335000038146973
1705063593315432700,10.7864326171875,0.5252000093460083,3.884199857711792,-1.5844999551773071
1705063593375432700,10.8464326171875,-1.5159000158309937,3.0167999267578125,-0.8129000067710876
1705063593435432700,10.9064326171875,0.1046999990940094,0.1850999891757965,-3.7373998165130615
1705063593495432700,10.9664326171875,2.071699857711792,-0.39640000462532043,-2.7360999584198
1705063593555432700,11.0264326171875,1.9800999164581299,0.95169997215271,-1.6186000108718872
1705063593615432700,11.0864326171875,-0.5659999847412109,-0.3146999776363373,0.9016000032424927
1705063593675432700,11.1464326171875,-1.2430999279022217,-1.3852999210357666,1.320599913597107
1705063593735432700,11.2064326171875,-0.14149999618530273,-0.7774999737739563,4.27209997177124
1705063593795432700,11.2664326171875,1.754599928855896,0.42100000381469727,4.42009973526001
1705063593855432700,11.3264326171875,2.8613998889923096,-0.14919999241828918,1.9512999057769775
1705063593915432700,11.3864326171875,1.810499906539917,-4.046299934387207,-0.9138999581336975
1705063593975432700,11.4464326171875,1.2417999505996704,-5.193599700927734,1.2925000190734863
1705063594035432700,11.5064326171875,3.3255999088287354,2.682299852371216,-0.5440999865531921
1705063594095432700,11.5664326171875,-2.68179988861084,9.471599578857422,0.7375999689102173
1705063594155432700,11.6264326171875,-4.3364996910095215,5.968999862670898,-1.1847000122070312
1705063594215432700,11.6864326171875,2.228299856185913,-1.9756999015808105,4.033599853515625
1705063594275432700,11.7464326171875,0.35510000586509705,-4.636199951171875,2.0748000144958496
1705063594335432700,11.8064326171875,-1.3651999235153198,-3.1922998428344727,0.6089999675750732
1705063594395432700,11.8664326171875,-0.755299985408783,-2.6359000205993652,-2.862799882888794
1705063594455432700,11.9264326171875,0.18729999661445618,-3.0242998600006104,-2.5381999015808105
1705063594515432700,11.9864326171875,-0.5313999652862549,-0.6434000134468079,-1.2310999631881714
1705063594575432700,12.0464326171875,0.7407999634742737,3.5254998207092285,-2.8431999683380127
1705063594635432700,12.1064326171875,0.13159999251365662,4.644700050354004,-1.503999948501587
1705063594695432700,12.1664326171875,-1.024399995803833,2.9071998596191406,1.6452000141143799
1705063594755432700,12.2264326171875,-0.27070000767707825,-3.6747000217437744,4.7820000648498535
1705063594815432700,12.2864326171875,1.5189999341964722,-6.158599853515625,6.411099910736084
1705063594875460900,12.3464609375,1.8680999279022217,-6.837699890136719,1.5641999244689941
1705063594935432700,12.4064326171875,2.4282000064849854,-2.3095998764038086,-2.881199836730957
1705063594995432700,12.4664326171875,-0.3504999876022339,5.252299785614014,-2.6786999702453613
1705063595055432700,12.5264326171875,-4.578399658203125,10.283199310302734,-0.04230000078678131
1705063595115432700,12.5864326171875,-2.3531999588012695,4.961699962615967,2.71809983253479
1705063595175432700,12.6464326171875,-1.2567999362945557,4.1992998123168945,1.0573999881744385
1705063595235432700,12.7064326171875,-0.8844999670982361,-0.8737999796867371,0.597599983215332
1705063595295432700,12.7664326171875,0.03439999744296074,-3.9742000102996826,2.0564000606536865
1705063595355432700,12.8264326171875,1.090499997138977,-6.223099708557129,1.3845999240875244
1705063595415432700,12.8864326171875,0.8862999677658081,-4.90779972076416,-0.7301999926567078
1705063595475432700,12.9464326171875,0.11549999564886093,-2.697700023651123,-1.6698999404907227
1705063595535432700,13.0064326171875,0.39419999718666077,0.0885000005364418,-3.3524999618530273
1705063595595432700,13.0664326171875,1.212899923324585,-0.8364999890327454,-3.3924999237060547
1705063595655432700,13.1264326171875,0.6545999646186829,0.4276999831199646,-2.819999933242798
1705063595715432700,13.1864326171875,-0.5045999884605408,7.392499923706055,-1.7142999172210693
1705063595775432700,13.2464326171875,-1.8173999786376953,4.756999969482422,1.430899977684021
1705063595835432700,13.3064326171875,-0.5077999830245972,-2.0508999824523926,2.5149998664855957
1705063595895432700,13.3664326171875,0.2653999924659729,-5.384699821472168,2.832199811935425
1705063595955432700,13.4264326171875,1.4567999839782715,-6.2342000007629395,2.974799871444702
1705063596015432700,13.4864326171875,3.36080002784729,-4.223499774932861,2.256999969482422
1705063596075432700,13.5464326171875,2.0787999629974365,9.516799926757812,1.5140999555587769
1705063596135432700,13.6064326171875,-2.0344998836517334,5.1342997550964355,2.303799867630005
1705063596195432700,13.6664326171875,-4.642099857330322,0.8391000032424927,0.9402999877929688
1705063596255432700,13.7264326171875,-0.22139999270439148,3.771399974822998,-0.2612999975681305
1705063596315432700,13.7864326171875,-0.40699997544288635,0.7033999562263489,-0.09269999712705612
1705063596375432700,13.8464326171875,0.871399998664856,-3.584199905395508,0.6692999601364136
1705063596435432700,13.9064326171875,2.1357998847961426,-4.905200004577637,0.26919999718666077
1705063596495432700,13.9664326171875,2.8389999866485596,-4.017099857330322,-1.2775999307632446
1705063596555432700,14.0264326171875,0.9508999586105347,-1.3887999057769775,-2.4208998680114746
1705063596615432700,14.0864326171875,-0.5101000070571899,1.3835999965667725,-2.4415998458862305
1705063596675432700,14.1464326171875,0.9594999551773071,2.7216999530792236,-4.091700077056885
1705063596735432700,14.2064326171875,-0.20149999856948853,3.1875,-2.142400026321411
1705063596795432700,14.2664326171875,-1.7426999807357788,6.868899822235107,-0.2524999976158142
1705063596855432700,14.3264326171875,-1.5544999837875366,2.369499921798706,0.5418999791145325
1705063596915432700,14.3864326171875,-0.2597000002861023,-3.4694998264312744,1.2940999269485474
1705063596975460900,14.4464609375,1.1159999370574951,-6.248600006103516,2.5607998371124268
1705063597035432700,14.5064326171875,2.325500011444092,-5.788699626922607,2.7423999309539795
1705063597095432700,14.5664326171875,4.0817999839782715,-2.785799980163574,0.9467999935150146
1705063597155432700,14.6264326171875,3.0957999229431152,8.937600135803223,-0.3037000000476837
1705063597215432700,14.6864326171875,-6.267399787902832,10.434499740600586,11.040800094604492
1705063597275432700,14.7464326171875,-2.098299980163574,4.096099853515625,8.87090015411377
1705063597335432700,14.8064326171875,-0.2701999843120575,4.321099758148193,0.05040000006556511
1705063597395432700,14.8664326171875,1.055299997329712,0.16279999911785126,1.4733999967575073
1705063597455432700,14.9264326171875,1.8367999792099,-2.519899845123291,-1.5712999105453491
1705063597515432700,14.9864326171875,2.183799982070923,-1.862399935722351,-3.6756999492645264
1705063597575432700,15.0464326171875,1.709299921989441,1.0922999382019043,-5.375199794769287
1705063597635432700,15.1064326171875,1.798699975013733,-0.2653999924659729,-7.5767998695373535
1705063597695432700,15.1664326171875,1.5425000190734863,1.8770999908447266,-6.940999984741211
1705063597755432700,15.2264326171875,1.6542999744415283,2.2816998958587646,-5.9375
1705063597815432700,15.2864326171875,-0.3149999976158142,3.010699987411499,-4.981100082397461
1705063597875432700,15.3464326171875,-1.1519999504089355,7.047299861907959,-0.6265000104904175
1705063597935432700,15.4064326171875,-0.541700005531311,4.845900058746338,-1.7231999635696411
1705063597995432700,15.4664326171875,0.7750999927520752,0.005499999970197678,0.4503999948501587
1705063598055432700,15.5264326171875,4.876800060272217,0.7644000053405762,3.8598999977111816
1705063598115432700,15.5864326171875,5.0065999031066895,2.793299913406372,5.13569974899292
1705063598175432700,15.6464326171875,3.960599899291992,5.820899963378906,4.430799961090088
1705063598235432700,15.7064326171875,-0.28630000352859497,4.056099891662598,8.65999984741211
1705063598295432700,15.7664326171875,-3.76639986038208,3.665799856185913,7.6631999015808105
1705063598355432700,15.8264326171875,-2.115799903869629,5.657700061798096,1.9578999280929565
1705063598415432700,15.8864326171875,-1.1368999481201172,6.128799915313721,3.4001998901367188
1705063598475432700,15.9464326171875,-2.2367000579833984,1.8427000045776367,-0.1696999967098236
1705063598535432700,16.0064326171875,1.0585999488830566,-1.083400011062622,-1.6344999074935913
1705063598595432700,16.0664326171875,2.702399969100952,-0.4921000003814697,-2.831899881362915
1705063598655432700,16.1264326171875,1.2422999143600464,1.7462999820709229,-5.304999828338623
1705063598715432700,16.1864326171875,1.9803999662399292,1.389299988746643,-6.239199638366699
1705063598775432700,16.2464326171875,3.954399824142456,0.7014999985694885,-7.5615997314453125
1705063598835432700,16.3064326171875,2.8668999671936035,1.8501999378204346,-5.4105000495910645
1705063598895432700,16.3664326171875,0.41920000314712524,5.909800052642822,-1.7263000011444092
1705063598955432700,16.4264326171875,-0.31379997730255127,4.71429967880249,-0.20260000228881836
1705063599015432700,16.4864326171875,0.8985999822616577,-0.34299999475479126,0.30390000343322754
1705063599075460900,16.5464609375,1.7842999696731567,-1.757200002670288,1.1253999471664429
1705063599135432700,16.6064326171875,3.1250998973846436,0.5911999940872192,1.9874999523162842
1705063599195432700,16.6664326171875,2.316699981689453,5.143099784851074,4.311299800872803
1705063599255432700,16.7264326171875,-1.2934999465942383,4.767199993133545,7.223399639129639
1705063599315432700,16.7864326171875,-1.0893999338150024,1.9329999685287476,6.944599628448486
1705063599375432700,16.8464326171875,-1.3238999843597412,2.660599946975708,5.354000091552734
1705063599435432700,16.9064326171875,-0.6572999954223633,5.158799648284912,4.096199989318848
1705063599495432700,16.9664326171875,-0.000699999975040555,3.8695998191833496,0.8974999785423279
1705063599555432700,17.0264326171875,1.4228999614715576,-0.357699990272522,-0.3082999885082245
1705063599615432700,17.0864326171875,1.9275999069213867,-0.914199948310852,-0.15950000286102295
1705063599675432700,17.1464326171875,0.9407999515533447,0.22759999334812164,-2.5685999393463135
1705063599735432700,17.2064326171875,1.7089999914169312,-0.5318999886512756,-5.302399635314941
1705063599795432700,17.2664326171875,2.405400037765503,2.4141998291015625,-4.9776997566223145
1705063599855432700,17.3264326171875,2.0425000190734863,1.1395000219345093,-7.632699966430664
1705063599915432700,17.3864326171875,1.2094999551773071,-1.1292999982833862,-6.791599750518799
1705063599975432700,17.4464326171875,0.7827999591827393,7.497200012207031,-8.445499420166016
1705063600035432700,17.5064326171875,0.7231999635696411,2.4972000122070312,-2.002500057220459
1705063600095432700,17.5664326171875,-0.37070000171661377,1.1628999710083008,5.595699787139893
1705063600155432700,17.6264326171875,1.1718999147415161,1.449199914932251,4.645699977874756
1705063600215432700,17.6864326171875,3.6078999042510986,-2.6407999992370605,7.8292999267578125
1705063600275432700,17.7464326171875,5.162199974060059,-1.8799999952316284,3.1230998039245605
1705063600335434200,17.806434326171875,3.00819993019104,1.0856999158859253,0.11429999768733978
1705063600395432700,17.8664326171875,-1.7389999628067017,7.0854997634887695,-4.483500003814697
1705063600455432700,17.9264326171875,-0.0471000000834465,3.6407999992370605,-2.7109999656677246
1705063600515432700,17.9864326171875,2.1434998512268066,2.372799873352051,-0.7918999791145325
1705063600575432700,18.0464326171875,-0.25209999084472656,0.9962999820709229,1.786099910736084
1705063600635432700,18.1064326171875,2.4617998600006104,-1.8046000003814697,3.468400001525879
1705063600695432700,18.1664326171875,2.3190999031066895,-3.1004998683929443,4.131099700927734
1705063600755432700,18.2264326171875,-1.1126999855041504,-2.8795998096466064,5.916899681091309
1705063600815432700,18.2864326171875,-0.5372999906539917,-0.19200000166893005,-2.891899824142456
1705063600875432700,18.3464326171875,0.5627999901771545,-3.4607999324798584,-2.9530999660491943
1705063600935432700,18.4064326171875,-1.4340999126434326,-0.4668999910354614,-8.13379955291748
1705063600995432700,18.4664326171875,-2.666299819946289,3.3499999046325684,-7.485499858856201
1705063601055432700,18.5264326171875,-3.5832998752593994,3.2502999305725098,-2.218600034713745
1705063601115432700,18.5864326171875,-0.7623999714851379,-0.6256999969482422,2.972299814224243
1705063601175460900,18.6464609375,1.767799973487854,-0.40629997849464417,6.570499897003174
1705063601235432700,18.7064326171875,-0.4935999810695648,-0.2133999913930893,3.8332998752593994
1705063601295432700,18.7664326171875,-0.9102999567985535,-1.8114999532699585,1.9356999397277832
1705063601355432700,18.8264326171875,0.08150000125169754,-0.0551999993622303,-1.7648999691009521
1705063601415432700,18.8864326171875,3.7084999084472656,2.9728000164031982,-4.354700088500977
1705063601475432700,18.9464326171875,0.1477999985218048,1.0684999227523804,-2.2653000354766846
1705063601535432700,19.0064326171875,0.9941999912261963,2.40939998626709,-2.5154998302459717
1705063601595432700,19.0664326171875,-0.4107999801635742,0.10049999505281448,1.0716999769210815
1705063601655432700,19.1264326171875,-0.884399950504303,-0.5979999899864197,3.274399995803833
1705063601715432700,19.1864326171875,-1.171199917793274,-1.1962000131607056,4.196000099182129
1705063601775432700,19.2464326171875,-1.7965999841690063,-1.59499990940094,2.273200035095215
1705063601835432700,19.3064326171875,-1.3069000244140625,-0.6500999927520752,-1.000499963760376
1705063601895432700,19.3664326171875,0.8079999685287476,-0.12759999930858612,-3.9644999504089355
1705063601955432700,19.4264326171875,1.493899941444397,1.6139999628067017,-3.304800033569336
1705063602015432700,19.4864326171875,2.6638998985290527,0.6656999588012695,-2.0885000228881836
1705063602075432700,19.5464326171875,3.360999822616577,1.440999984741211,-0.786899983882904
1705063602135432700,19.6064326171875,0.3084999918937683,0.03590000048279762,1.5077999830245972
1705063602195432700,19.6664326171875,-0.8162999749183655,-1.0267999172210693,3.1994998455047607
1705063602255432700,19.7264326171875,-0.3228999972343445,0.07319999486207962,2.2749998569488525
1705063602315432700,19.7864326171875,0.4398999810218811,-0.10819999873638153,1.9047999382019043
1705063602375432700,19.8464326171875,0.5468999743461609,-1.3767999410629272,-0.3637000024318695
1705063602435432700,19.9064326171875,1.3035999536514282,0.43799999356269836,-3.7991998195648193
1705063602495432700,19.9664326171875,-0.307699978351593,0.7479999661445618,-1.6766999959945679
1705063602555432700,20.0264326171875,0.09160000085830688,0.7081999778747559,-0.6365000009536743
1705063602615432700,20.0864326171875,0.461899995803833,0.9950999617576599,-1.2762999534606934
1705063602675432700,20.1464326171875,-0.5922999978065491,-0.16489998996257782,0.8851000070571899
1705063602735432700,20.2064326171875,-1.602199912071228,-1.350600004196167,2.699699878692627
1705063602795432700,20.2664326171875,-1.3097999095916748,-1.3172999620437622,2.564499855041504
1705063602855432700,20.3264326171875,-1.5372999906539917,-0.5953999757766724,1.5573999881744385
1705063602915432700,20.3864326171875,-1.302799940109253,-0.16269999742507935,-0.752299964427948
1705063602975432700,20.4464326171875,0.2759000062942505,0.27160000801086426,-2.9104998111724854
1705063603035432700,20.5064326171875,0.8532999753952026,0.5453000068664551,-4.058199882507324
1705063603095432700,20.5664326171875,2.4066998958587646,0.8111000061035156,-3.73829984664917
1705063603155432700,20.6264326171875,2.3638999462127686,1.1632999181747437,-1.226699948310852
1705063603215432700,20.6864326171875,0.18490000069141388,1.4520999193191528,1.7078999280929565
1705063603275460900,20.7464609375,-0.9274999499320984,-0.36010000109672546,4.999199867248535
1705063603335432700,20.8064326171875,3.9089999198913574,-1.430999994277954,3.8392999172210693
1705063603395432700,20.8664326171875,-0.12409999966621399,-1.3386999368667603,2.4007999897003174
1705063603455432700,20.9264326171875,-0.3093999922275543,-2.0349998474121094,-0.6535999774932861
1705063603515432700,20.9864326171875,1.0858999490737915,-1.0160999298095703,-4.314300060272217
1705063603575432700,21.0464326171875,0.6353999972343445,-0.022299999371170998,-3.7936999797821045
1705063603635432700,21.1064326171875,-2.9206998348236084,-0.6777999997138977,4.029799938201904
1705063603695432700,21.1664326171875,-2.2667999267578125,4.2941999435424805,2.4955999851226807
1705063603755432700,21.2264326171875,-3.0223000049591064,5.315099716186523,1.4013999700546265
1705063603815432700,21.2864326171875,-2.837599992752075,2.312999963760376,3.4784998893737793
1705063603875432700,21.3464326171875,-0.05700000002980232,0.616100013256073,3.6693999767303467
1705063603935432700,21.4064326171875,3.6882998943328857,2.236799955368042,2.731600046157837
1705063603995432700,21.4664326171875,2.715399980545044,4.411600112915039,-4.779799938201904
1705063604055432700,21.5264326171875,1.5144000053405762,1.920300006866455,-8.443099975585938
1705063604115432700,21.5864326171875,3.6713998317718506,-0.029199998825788498,-7.49399995803833
1705063604175432700,21.6464326171875,2.52020001411438,1.4910999536514282,-6.427599906921387
1705063604235432700,21.7064326171875,0.9093999862670898,6.518599987030029,-3.499300003051758
1705063604295432700,21.7664326171875,0.27639999985694885,5.680899620056152,-1.7536998987197876
1705063604355432700,21.8264326171875,0.4422999918460846,2.5456998348236084,0.9918999671936035
1705063604415432700,21.8864326171875,1.0191999673843384,1.6232999563217163,3.6258997917175293
1705063604475432700,21.9464326171875,1.802799940109253,2.3524999618530273,5.386300086975098
1705063604535432700,22.0064326171875,2.175299882888794,3.2400999069213867,5.765399932861328
1705063604595432700,22.0664326171875,1.2039999961853027,3.402400016784668,7.057999610900879
1705063604655432700,22.1264326171875,-1.7023999691009521,3.5219998359680176,5.282899856567383
1705063604715432700,22.1864326171875,-2.6933000087738037,3.7164998054504395,6.8018999099731445
1705063604775432700,22.2464326171875,0.19749999046325684,8.614299774169922,1.4054999351501465
1705063604835432700,22.3064326171875,-0.6273999810218811,5.287299633026123,2.125499963760376
1705063604895432700,22.3664326171875,-0.7706999778747559,1.361199975013733,0.20899999141693115
1705063604955432700,22.4264326171875,0.42829999327659607,-0.04779999703168869,-2.619499921798706
1705063605015432700,22.4864326171875,3.2684998512268066,1.552899956703186,-3.115999937057495
1705063605075432700,22.5464326171875,5.9527997970581055,0.82669997215271,-5.421099662780762
1705063605135432700,22.6064326171875,4.084099769592285,1.8513998985290527,-7.492799758911133
1705063605195432700,22.6664326171875,4.446899890899658,3.3020999431610107,-6.157899856567383
1705063605255432700,22.7264326171875,4.553199768066406,4.413399696350098,-4.261300086975098
1705063605315432700,22.7864326171875,0.9088999629020691,6.420499801635742,-1.7006999254226685
1705063605375460900,22.8464609375,-0.21149998903274536,3.3558998107910156,0.1184999942779541
1705063605435432700,22.9064326171875,-0.750499963760376,1.3651999235153198,0.42289999127388
1705063605495432700,22.9664326171875,1.4951999187469482,2.9607999324798584,2.8773000240325928
1705063605555432700,23.0264326171875,2.0267999172210693,3.6270999908447266,5.603499889373779
1705063605615432700,23.0864326171875,0.7976999878883362,2.2375998497009277,5.883199691772461
1705063605675432700,23.1464326171875,-1.20579993724823,1.5496000051498413,6.624599933624268
1705063605735432700,23.2064326171875,-1.6512999534606934,6.078499794006348,5.469899654388428
1705063605795432700,23.2664326171875,-0.6642000079154968,6.9776997566223145,5.072499752044678
1705063605855432700,23.3264326171875,-0.13689999282360077,7.290599822998047,3.01419997215271
1705063605915432700,23.3864326171875,0.46639999747276306,2.628499984741211,0.9286999702453613
1705063605975432700,23.4464326171875,1.6892999410629272,0.11779999732971191,-0.03449999913573265
1705063606035432700,23.5064326171875,2.0216000080108643,0.9613999724388123,-2.6878998279571533
1705063606095432700,23.5664326171875,1.6073999404907227,1.024899959564209,-5.805699825286865
1705063606155432700,23.6264326171875,3.7348999977111816,1.2863999605178833,-6.280299663543701
1705063606215432700,23.6864326171875,3.4027998447418213,1.5741000175476074,-7.221299648284912
1705063606275432700,23.7464326171875,3.7542998790740967,1.6796000003814697,-6.993199825286865
1705063606335432700,23.8064326171875,2.8220999240875244,5.242700099945068,-4.266499996185303
1705063606395432700,23.8664326171875,0.3725000023841858,7.120299816131592,-1.9952999353408813
1705063606455432700,23.9264326171875,-0.22299998998641968,3.993699789047241,-0.06189999729394913
1705063606515432700,23.9864326171875,0.7652999758720398,1.2919999361038208,1.6866999864578247
1705063606575434200,24.046434326171877,1.9879999160766602,1.6071999073028564,3.7149999141693115
1705063606635432700,24.1064326171875,3.4963998794555664,3.3813998699188232,5.249300003051758
1705063606695432700,24.1664326171875,2.469099998474121,2.5146000385284424,6.673699855804443
1705063606755432700,24.2264326171875,-0.757099986076355,2.424099922180176,6.28909969329834
1705063606815432700,24.2864326171875,-2.958099842071533,5.698999881744385,6.293999671936035
1705063606875432700,24.3464326171875,-0.44339999556541443,5.842599868774414,2.3633999824523926
1705063606935432700,24.4064326171875,-0.4617999792098999,7.31149959564209,1.9124000072479248
1705063606995432700,24.4664326171875,-0.9447000026702881,3.17330002784729,1.8250999450683594
1705063607055432700,24.5264326171875,0.941100001335144,-0.031599998474121094,0.02159999869763851
1705063607115432700,24.5864326171875,3.102599859237671,-0.4138999879360199,-2.1015000343322754
1705063607175432700,24.6464326171875,3.6855998039245605,0.542199969291687,-4.96019983291626
1705063607235432700,24.7064326171875,3.5641000270843506,1.6916999816894531,-6.237599849700928
1705063607295432700,24.7664326171875,3.8249998092651367,2.2588999271392822,-6.103399753570557
1705063607355432700,24.8264326171875,3.6770999431610107,2.4837000370025635,-5.607100009918213
1705063607415432700,24.8864326171875,2.2548999786376953,6.068299770355225,-3.3434998989105225
1705063607475460900,24.9464609375,0.11699999868869781,5.670499801635742,-0.8973999619483948
1705063607535432700,25.0064326171875,-1.0353000164031982,1.767799973487854,2.335899829864502
1705063607595432700,25.0664326171875,-0.24549999833106995,-1.5601999759674072,2.2109999656677246
1705063607655432700,25.1264326171875,1.8245999813079834,-0.3718000054359436,2.727599859237671
1705063607715432700,25.1864326171875,3.3083999156951904,2.0880000591278076,3.9848999977111816
1705063607775432700,25.2464326171875,2.121799945831299,4.025000095367432,5.879799842834473
1705063607835432700,25.3064326171875,-0.41519999504089355,3.097100019454956,6.007199764251709
1705063607895432700,25.3664326171875,-2.0349998474121094,3.6577999591827393,3.9009997844696045
1705063607955432700,25.4264326171875,-0.7299000024795532,5.79509973526001,2.585099935531616
1705063608015432700,25.4864326171875,-0.14710000157356262,5.473399639129639,2.262399911880493
1705063608075432700,25.5464326171875,-0.13679999113082886,1.0520999431610107,0.8761999607086182
1705063608135432700,25.6064326171875,1.309499979019165,-1.129499912261963,-0.07259999960660934
1705063608195432700,25.6664326171875,3.359799861907959,-0.9305999875068665,-1.434899926185608
1705063608255432700,25.7264326171875,4.313199996948242,-0.337799996137619,-4.713099956512451
1705063608315432700,25.7864326171875,3.4052000045776367,1.7608999013900757,-5.875999927520752
1705063608375432700,25.8464326171875,2.330899953842163,1.7563999891281128,-5.580399990081787
1705063608435432700,25.9064326171875,2.274399995803833,1.6146999597549438,-5.787299633026123
1705063608495432700,25.9664326171875,1.3808000087738037,4.4019999504089355,-3.6813998222351074
1705063608555432700,26.0264326171875,-0.6177999973297119,5.328099727630615,-1.087499976158142
1705063608615432700,26.0864326171875,0.032899998128414154,2.920799970626831,-0.4056999981403351
1705063608675432700,26.1464326171875,0.5485000014305115,0.5034999847412109,1.455899953842163
1705063608735432700,26.2064326171875,1.9799998998641968,0.09200000017881393,3.553299903869629
1705063608795432700,26.2664326171875,3.1315999031066895,1.6984999179840088,4.367099761962891
1705063608855432700,26.3264326171875,3.2754998207092285,3.7486000061035156,4.706099987030029
1705063608915432700,26.3864326171875,0.7436000108718872,3.0083999633789062,7.4567999839782715
1705063608975432700,26.4464326171875,-1.8992999792099,2.581699848175049,6.646399974822998
1705063609035432700,26.5064326171875,-1.0468000173568726,3.3313000202178955,3.9975998401641846
1705063609095432700,26.5664326171875,1.031000018119812,8.444199562072754,1.8039000034332275
1705063609155432700,26.6264326171875,-1.3729000091552734,4.667299747467041,0.9163999557495117
1705063609215432700,26.6864326171875,0.2653000056743622,0.24169999361038208,0.4389999806880951
1705063609275432700,26.7464326171875,2.3476998805999756,-1.1714999675750732,-1.3091999292373657
1705063609335432700,26.8064326171875,3.393699884414673,0.6371999979019165,-3.8454999923706055
1705063609395432700,26.8664326171875,1.827799916267395,1.2372000217437744,-5.9228997230529785
1705063609455432700,26.9264326171875,1.695099949836731,0.4453999996185303,-6.604499816894531
1705063609515432700,26.9864326171875,2.3230998516082764,0.9688999652862549,-7.413300037384033
1705063609575460900,27.0464609375,2.256899833679199,1.9471999406814575,-5.168600082397461
1705063609635432700,27.1064326171875,-0.36649999022483826,6.582200050354004,-2.6733999252319336
1705063609695432700,27.1664326171875,0.32819998264312744,4.3678998947143555,-1.9880999326705933
1705063609755432700,27.2264326171875,0.8307999968528748,1.4255999326705933,1.0506999492645264
1705063609815432700,27.2864326171875,1.5877999067306519,0.837399959564209,2.9129998683929443
1705063609875432700,27.3464326171875,2.5284998416900635,2.250999927520752,4.0920000076293945
1705063609935432700,27.4064326171875,3.1591999530792236,5.141200065612793,5.000499725341797
1705063609995432700,27.4664326171875,0.9977999925613403,2.6438000202178955,7.6975998878479
1705063610055432700,27.5264326171875,-2.349599838256836,4.018599987030029,6.174900054931641
1705063610115432700,27.5864326171875,-2.2604000568389893,3.763399839401245,5.489899635314941
1705063610175432700,27.6464326171875,-1.6239999532699585,7.80019998550415,1.9129999876022339
1705063610235432700,27.7064326171875,-0.9732999801635742,2.9208998680114746,2.441699981689453
1705063610295432700,27.7664326171875,1.2530999183654785,0.4391999840736389,1.2663999795913696
1705063610355432700,27.8264326171875,2.5657999515533447,0.8605999946594238,-0.8450999855995178
1705063610415432700,27.8864326171875,3.310299873352051,0.9620999693870544,-3.3610999584198
1705063610475432700,27.9464326171875,3.164099931716919,0.7712999582290649,-6.220200061798096
1705063610535432700,28.0064326171875,2.8206000328063965,1.75409996509552,-6.849400043487549
1705063610595432700,28.0664326171875,2.1723999977111816,1.8970999717712402,-6.630899906158447
1705063610655432700,28.1264326171875,2.3427000045776367,1.681899905204773,-5.579899787902832
1705063610715432700,28.1864326171875,0.4536999762058258,4.178800106048584,-3.3280999660491943
1705063610775432700,28.2464326171875,0.44759997725486755,5.468599796295166,-1.3536999225616455
1705063610835432700,28.3064326171875,0.14710000157356262,1.886299967765808,1.1930999755859375
1705063610895432700,28.3664326171875,0.983299970626831,0.32989999651908875,3.3095998764038086
1705063610955432700,28.4264326171875,1.8746999502182007,1.8858000040054321,3.9663000106811523
1705063611015432700,28.4864326171875,2.1675000190734863,3.4901998043060303,5.045799732208252
1705063611075432700,28.5464326171875,1.2293000221252441,3.800299882888794,6.225299835205078
1705063611135432700,28.6064326171875,-0.15469999611377716,2.6352999210357666,5.394000053405762
1705063611195432700,28.6664326171875,-2.736299991607666,3.9622998237609863,4.754199981689453
1705063611255432700,28.7264326171875,-0.8016999959945679,7.755499839782715,2.8782999515533447
1705063611315432700,28.7864326171875,-0.32659998536109924,3.484499931335449,1.8150999546051025
1705063611375432700,28.8464326171875,0.8565999865531921,-1.1686999797821045,0.42260000109672546
1705063611435432700,28.9064326171875,2.0139999389648438,-1.2930999994277954,-0.49139997363090515
1705063611495432700,28.9664326171875,2.2562999725341797,1.070199966430664,-2.1332998275756836
1705063611555432700,29.0264326171875,2.7381999492645264,2.463399887084961,-5.086699962615967
1705063611615432700,29.0864326171875,3.4293999671936035,1.7930999994277954,-6.098499774932861
1705063611675460900,29.1464609375,4.427799701690674,-0.6688999533653259,-7.784299850463867
1705063611735432700,29.2064326171875,3.163800001144409,3.0401999950408936,-4.3592000007629395
1705063611795432700,29.2664326171875,0.9441999793052673,6.476799964904785,-2.57669997215271
1705063611855432700,29.3264326171875,-0.062199998646974564,4.831500053405762,-1.1524999141693115
1705063611915432700,29.3864326171875,0.4211999773979187,1.0388000011444092,2.474900007247925
1705063611975432700,29.4464326171875,1.027400016784668,0.17419999837875366,3.270599842071533
1705063612035432700,29.5064326171875,2.515899896621704,1.7421998977661133,3.734099864959717
1705063612095432700,29.5664326171875,2.7191998958587646,2.812700033187866,4.39109992980957
1705063612155432700,29.6264326171875,1.6491999626159668,2.4738998413085938,6.291299819946289
1705063612215432700,29.6864326171875,-1.4255999326705933,4.62339973449707,5.512599945068359
1705063612275432700,29.7464326171875,-1.7095999717712402,4.99459981918335,5.8105998039245605
1705063612335432700,29.8064326171875,-0.2012999951839447,7.756399631500244,3.38349986076355
1705063612395432700,29.8664326171875,0.25529998540878296,2.982100009918213,2.399600028991699
1705063612455432700,29.9264326171875,1.7852998971939087,-0.3229999840259552,0.4875999987125397
1705063612515432700,29.9864326171875,2.830699920654297,-0.8917999863624573,-0.9912999868392944
1705063612575432700,30.0464326171875,2.9672000408172607,1.3966999053955078,-2.1614999771118164
1705063612635432700,30.1064326171875,2.4993999004364014,2.3153998851776123,-5.297699928283691
1705063612695432700,30.1664326171875,2.7189998626708984,1.1441999673843384,-6.501399993896484
1705063612755432700,30.2264326171875,3.1888999938964844,1.380199909210205,-7.321899890899658
1705063612815432700,30.2864326171875,2.0820000171661377,2.2818000316619873,-4.913899898529053
1705063612875432700,30.3464326171875,0.6764000058174133,5.480999946594238,-3.0885000228881836
1705063612935432700,30.4064326171875,0.21699999272823334,4.946399688720703,-0.9858999848365784
1705063612995432700,30.4664326171875,0.7304999828338623,1.135200023651123,0.1111999973654747
1705063613055432700,30.5264326171875,2.2654998302459717,0.05779999867081642,2.7792999744415283
1705063613115432700,30.5864326171875,3.3703999519348145,1.8973000049591064,3.7891998291015625
1705063613175432700,30.6464326171875,3.3803999423980713,3.6093997955322266,4.826200008392334
1705063613235432700,30.7064326171875,2.5715999603271484,3.4592998027801514,5.938799858093262
1705063613295432700,30.7664326171875,0.3188000023365021,3.7029998302459717,5.752999782562256
1705063613355432700,30.8264326171875,-1.2884999513626099,3.9970998764038086,5.438399791717529
1705063613415432700,30.8864326171875,-0.38830000162124634,7.6331000328063965,3.078199863433838
1705063613475432700,30.9464326171875,-0.1305999904870987,3.719399929046631,3.395599842071533
1705063613535432700,31.0064326171875,0.7351999878883362,-0.4681999981403351,0.9491999745368958
1705063613595432700,31.0664326171875,1.7791999578475952,-1.743499994277954,-1.0299999713897705
1705063613655432700,31.1264326171875,2.6092000007629395,0.5378000140190125,-2.162400007247925
1705063613715432700,31.1864326171875,1.7020999193191528,2.3200998306274414,-4.339699745178223
1705063613775460900,31.2464609375,2.0181000232696533,2.449199914932251,-5.867099761962891
1705063613835432700,31.3064326171875,3.3128998279571533,0.45319998264312744,-7.894999980926514
1705063613895432700,31.3664326171875,2.3933000564575195,0.5629000067710876,-7.158299922943115
1705063613955432700,31.4264326171875,0.27379998564720154,4.924999713897705,-3.2344000339508057
1705063614015432700,31.4864326171875,0.33059999346733093,6.719599723815918,-2.38100004196167
1705063614075432700,31.5464326171875,-1.0717999935150146,4.217199802398682,-0.07849999517202377
1705063614135432700,31.6064326171875,0.9797999858856201,1.4377999305725098,2.4117000102996826
1705063614195432700,31.6664326171875,2.6026999950408936,1.6791999340057373,4.793299674987793
1705063614255432700,31.7264326171875,2.723099946975708,1.9433000087738037,5.721999645233154
1705063614315432700,31.7864326171875,3.1131999492645264,2.864300012588501,6.06850004196167
1705063614375432700,31.8464326171875,2.187999963760376,1.7806999683380127,5.338599681854248
1705063614435432700,31.9064326171875,-1.7630000114440918,6.129899978637695,4.746200084686279
1705063614495432700,31.9664326171875,-1.4256999492645264,5.431299686431885,3.4550998210906982
1705063614555432700,32.0264326171875,-0.2069999873638153,8.061299324035645,3.671599864959717
1705063614615432700,32.0864326171875,-0.5123000144958496,3.1884000301361084,1.9995999336242676
1705063614675432700,32.1464326171875,0.9063999652862549,0.5428999662399292,-0.17960000038146973
1705063614735432700,32.2064326171875,2.3736000061035156,-0.07029999792575836,-1.3192999362945557
1705063614795432700,32.2664326171875,2.846299886703491,1.5860999822616577,-2.7792999744415283
1705063614855432700,32.3264326171875,3.573199987411499,2.2381999492645264,-5.2241997718811035
1705063614915432700,32.3864326171875,4.028299808502197,2.30649995803833,-5.999199867248535
1705063614975432700,32.4464326171875,3.4495999813079834,1.0016999244689941,-6.632699966430664
1705063615035432700,32.5064326171875,2.2809998989105225,2.33870005607605,-5.085700035095215
1705063615095432700,32.5664326171875,0.34759998321533203,4.7079997062683105,-2.867300033569336
1705063615155432700,32.6264326171875,-0.5965999960899353,4.685800075531006,-1.0507999658584595
1705063615215432700,32.6864326171875,-0.17159999907016754,1.1440999507904053,-0.6606000065803528
1705063615275432700,32.7464326171875,2.222599983215332,0.46309998631477356,2.450500011444092
1705063615335432700,32.8064326171875,3.545300006866455,2.1008999347686768,3.7226998805999756
1705063615395432700,32.8664326171875,3.4866998195648193,3.9771997928619385,4.584399700164795
1705063615455432700,32.9264326171875,1.7702999114990234,4.285099983215332,6.637699604034424
1705063615515432700,32.9864326171875,-0.26999998092651367,3.874300003051758,6.1489996910095215
1705063615575432700,33.0464326171875,-1.0733000040054321,3.7314999103546143,5.804499626159668
1705063615635432700,33.1064326171875,0.4642999768257141,7.183300018310547,2.8397998809814453
1705063615695434200,33.166434326171874,0.09569999575614929,3.0413999557495117,2.6277999877929688
1705063615755432700,33.2264326171875,0.5476999878883362,-0.1224999949336052,-0.2620999813079834
1705063615815432700,33.2864326171875,1.9342999458312988,-0.9014999866485596,-0.4381999969482422
1705063615875460900,33.3464609375,2.260699987411499,0.9013999700546265,-2.3441998958587646
1705063615935432700,33.4064326171875,2.438699960708618,1.6516000032424927,-4.895299911499023
1705063615995432700,33.4664326171875,2.7353999614715576,1.7878999710083008,-6.050699710845947
1705063616055432700,33.5264326171875,3.8703999519348145,0.9346999526023865,-6.713699817657471
1705063616115432700,33.5864326171875,2.572700023651123,0.8677999973297119,-4.686699867248535
1705063616175432700,33.6464326171875,0.7663999795913696,5.620299816131592,-2.50600004196167
1705063616235432700,33.7064326171875,0.24489998817443848,5.581699848175049,-0.6204000115394592
1705063616295432700,33.7664326171875,-0.5916000008583069,1.0428999662399292,0.032999999821186066
1705063616355432700,33.8264326171875,1.437600016593933,-0.5256999731063843,1.764299988746643
1705063616415432700,33.8864326171875,3.33270001411438,0.060499999672174454,3.6980998516082764
1705063616475432700,33.9464326171875,2.9387998580932617,1.6617000102996826,3.922799825668335
1705063616535432700,34.0064326171875,2.131500005722046,3.6098999977111816,4.7316999435424805
1705063616595432700,34.0664326171875,-0.4708999991416931,2.8752999305725098,6.179699897766113
1705063616655432700,34.1264326171875,-1.3154000043869019,3.6266000270843506,5.793799877166748
1705063616715432700,34.1864326171875,-0.5126000046730042,7.539999961853027,3.940499782562256
1705063616775432700,34.2464326171875,0.045099999755620956,2.811300039291382,2.813199996948242
1705063616835432700,34.3064326171875,0.9422999620437622,-1.8054999113082886,0.7543999552726746
1705063616895432700,34.3664326171875,1.7969999313354492,-2.261199951171875,-1.2948999404907227
1705063616955432700,34.4264326171875,1.837899923324585,1.7876999378204346,-3.0745999813079834
1705063617015432700,34.4864326171875,2.3866000175476074,1.757200002670288,-3.481299877166748
1705063617075432700,34.5464326171875,2.7249999046325684,2.9856998920440674,-5.037899971008301
1705063617135432700,34.6064326171875,4.362599849700928,-0.6129999756813049,-7.035399913787842
1705063617195432700,34.6664326171875,3.8524999618530273,1.4889999628067017,-4.903599739074707
1705063617255432700,34.7264326171875,0.9949999451637268,5.696099758148193,-1.6527999639511108
1705063617315432700,34.7864326171875,0.8759999871253967,7.10099983215332,-1.156499981880188
1705063617375432700,34.8464326171875,-0.13079999387264252,1.4204000234603882,1.0562999248504639
1705063617435432700,34.9064326171875,1.2932000160217285,-1.1007999181747437,2.9507999420166016
1705063617495432700,34.9664326171875,2.8262999057769775,0.5189999938011169,3.464900016784668
1705063617555432700,35.0264326171875,2.9351999759674072,2.2797999382019043,3.744499921798706
1705063617615432700,35.0864326171875,2.336599826812744,3.5341999530792236,6.34499979019165
1705063617675432700,35.1464326171875,-1.6948999166488647,3.698199987411499,5.616499900817871
1705063617735432700,35.2064326171875,-1.8269999027252197,3.7723000049591064,6.331500053405762
1705063617795432700,35.2664326171875,-0.8616999983787537,8.01509952545166,2.7976999282836914
1705063617855432700,35.3264326171875,-1.0727999210357666,3.343899965286255,1.782099962234497
1705063617915432700,35.3864326171875,1.2120000123977661,-0.36899998784065247,1.2979999780654907
1705063617975460900,35.4464609375,2.3792998790740967,-1.4922999143600464,-0.2321999967098236
1705063618035432700,35.5064326171875,2.1389999389648438,0.17189998924732208,-2.625200033187866
1705063618095432700,35.5664326171875,1.9940999746322632,1.4362000226974487,-5.118899822235107
1705063618155432700,35.6264326171875,1.6856999397277832,2.9351999759674072,-6.6815996170043945
1705063618215432700,35.6864326171875,3.2445998191833496,1.7669999599456787,-7.735899925231934
1705063618275432700,35.7464326171875,2.5190999507904053,0.9679999947547913,-4.883599758148193
1705063618335432700,35.8064326171875,1.5410999059677124,5.4166998863220215,-3.113499879837036
1705063618395432700,35.8664326171875,0.4431999921798706,5.915499687194824,-1.17739999294281
1705063618455432700,35.9264326171875,0.6682999730110168,2.3080999851226807,0.8014999628067017
1705063618515432700,35.9864326171875,1.9013999700546265,0.8671000003814697,3.4944000244140625
1705063618575432700,36.0464326171875,2.621299982070923,1.7548999786376953,4.503299713134766
1705063618635432700,36.1064326171875,2.5650999546051025,2.3803000450134277,4.998899936676025
1705063618695432700,36.1664326171875,2.089200019836426,2.9052000045776367,6.471199989318848
1705063618755432700,36.2264326171875,-1.5365999937057495,3.917099952697754,4.851999759674072
1705063618815432700,36.2864326171875,-0.9246999621391296,5.021500110626221,4.769499778747559
1705063618875432700,36.3464326171875,-0.8971999883651733,7.950599670410156,4.653199672698975
1705063618935432700,36.4064326171875,0.27969998121261597,3.8777999877929688,1.6222000122070312
1705063618995432700,36.4664326171875,2.0446999073028564,-0.43469998240470886,0.7103999853134155
1705063619055432700,36.5264326171875,3.0230000019073486,-1.191999912261963,-0.4504999816417694
1705063619115432700,36.5864326171875,2.0794999599456787,1.5968999862670898,-2.3123998641967773
1705063619175432700,36.6464326171875,2.6940999031066895,0.9068999886512756,-4.075500011444092
1705063619235432700,36.7064326171875,4.162499904632568,2.7339999675750732,-5.46429967880249
1705063619295432700,36.7664326171875,4.23390007019043,1.925399899482727,-5.960099697113037
1705063619355432700,36.8264326171875,3.7854998111724854,4.026299953460693,-5.633499622344971
1705063619415432700,36.8864326171875,1.2221999168395996,4.339900016784668,-2.7777998447418213
1705063619475432700,36.9464326171875,0.7537999749183655,4.351500034332275,-1.6713999509811401
1705063619535432700,37.0064326171875,-0.28619998693466187,1.2687000036239624,0.01860000006854534
1705063619595432700,37.0664326171875,1.0253000259399414,-0.5429999828338623,1.003600001335144
1705063619655432700,37.1264326171875,4.283699989318848,1.124899983406067,3.6194000244140625
1705063619715432700,37.1864326171875,3.553299903869629,2.5715999603271484,4.6656999588012695
1705063619775432700,37.2464326171875,1.3476999998092651,4.718599796295166,6.744999885559082
1705063619835432700,37.3064326171875,-0.5076000094413757,2.400099992752075,7.848599910736084
1705063619895432700,37.3664326171875,-0.3798999786376953,3.148399829864502,5.249799728393555
1705063619955432700,37.4264326171875,0.1768999993801117,7.672399997711182,4.355400085449219
1705063620015432700,37.4864326171875,0.5440999865531921,4.255000114440918,2.616999864578247
1705063620075460900,37.5464609375,0.7084999680519104,-0.3937000036239624,0.27959999442100525
1705063620135432700,37.6064326171875,1.8693000078201294,-1.5188000202178955,-1.1624000072479248
1705063620195432700,37.6664326171875,1.927299976348877,0.7670999765396118,-3.3464999198913574
1705063620255432700,37.7264326171875,0.6240000128746033,1.4478999376296997,-6.530999660491943
1705063620315432700,37.7864326171875,2.4742000102996826,2.1778998374938965,-6.728899955749512
1705063620375432700,37.8464326171875,3.3306000232696533,1.629699945449829,-7.391599655151367
1705063620435432700,37.9064326171875,3.555299997329712,2.2756998538970947,-5.054500102996826
1705063620495432700,37.9664326171875,1.4922000169754028,6.100399971008301,-2.435299873352051
1705063620555432700,38.0264326171875,1.034600019454956,5.562999725341797,-1.0792999267578125
1705063620615432700,38.0864326171875,1.1406999826431274,1.6060999631881714,1.7638999223709106
1705063620675432700,38.1464326171875,1.5652999877929688,0.17170000076293945,3.1952998638153076
1705063620735432700,38.2064326171875,2.4758999347686768,1.4402999877929688,3.88349986076355
1705063620795432700,38.2664326171875,2.6828999519348145,3.585899829864502,3.7774999141693115
1705063620855432700,38.3264326171875,0.740399956703186,3.6736998558044434,7.246699810028076
1705063620915432700,38.3864326171875,-0.8610000014305115,4.467799663543701,5.911900043487549
1705063620975432700,38.4464326171875,-1.3310999870300293,5.775199890136719,5.240799903869629
1705063621035432700,38.5064326171875,-0.16040000319480896,7.247900009155273,3.7336997985839844
1705063621095432700,38.5664326171875,0.7985000014305115,2.523599863052368,2.2692999839782715
1705063621155432700,38.6264326171875,1.5342999696731567,-0.6175000071525574,-0.2206999957561493
1705063621215432700,38.6864326171875,2.2718000411987305,0.25380000472068787,-1.5468000173568726
1705063621275432700,38.7464326171875,1.355299949645996,1.3589999675750732,-3.70169997215271
1705063621335432700,38.8064326171875,2.4848999977111816,1.7491999864578247,-5.340399742126465
1705063621395432700,38.8664326171875,3.6196999549865723,1.8650000095367432,-6.348399639129639
1705063621455432700,38.9264326171875,4.788300037384033,2.659600019454956,-7.3852996826171875
1705063621515432700,38.9864326171875,2.991799831390381,1.7253999710083008,-4.042999744415283
1705063621575432700,39.0464326171875,1.9203999042510986,5.792500019073486,-2.4844000339508057
1705063621635432700,39.1064326171875,0.8241999745368958,4.849899768829346,-1.40339994430542
1705063621695432700,39.1664326171875,1.3020999431610107,0.7925999760627747,1.0463999509811401
1705063621755432700,39.2264326171875,2.5555999279022217,0.8416999578475952,2.450000047683716
1705063621815432700,39.2864326171875,3.2333998680114746,1.5812000036239624,3.3469998836517334
1705063621875432700,39.3464326171875,3.2897000312805176,3.9088997840881348,4.22760009765625
1705063621935432700,39.4064326171875,0.6043999791145325,3.757999897003174,7.360799789428711
1705063621995432700,39.4664326171875,-1.038599967956543,4.950099945068359,7.252699851989746
1705063622055432700,39.5264326171875,-0.7210999727249146,5.952099800109863,5.470799922943115
1705063622115432700,39.5864326171875,0.37039998173713684,6.343400001525879,3.603299856185913
1705063622175460900,39.6464609375,1.1444000005722046,1.5239999294281006,2.0802998542785645
1705063622235432700,39.7064326171875,2.014899969100952,-0.4603999853134155,0.10859999805688858
1705063622295432700,39.7664326171875,2.2726998329162598,1.121399998664856,-1.587399959564209
1705063622355432700,39.8264326171875,1.8990999460220337,1.6943999528884888,-3.021199941635132
1705063622415432700,39.8864326171875,3.5251998901367188,2.7651000022888184,-5.061100006103516
1705063622475432700,39.9464326171875,4.297699928283691,1.350600004196167,-7.041399955749512
1705063622535432700,40.0064326171875,5.511399745941162,1.7342000007629395,-8.152799606323242
1705063622595432700,40.0664326171875,2.6887998580932617,3.644399881362915,-4.198299884796143
1705063622655432700,40.1264326171875,1.3812999725341797,7.0391998291015625,-2.8297998905181885
1705063622715434200,40.18643432617188,0.3154999911785126,4.44950008392334,-0.17189998924732208
1705063622775432700,40.2464326171875,0.11869999766349792,0.6682999730110168,1.7007999420166016
1705063622835432700,40.3064326171875,2.3480000495910645,0.9030999541282654,2.9646999835968018
1705063622895432700,40.3664326171875,3.254699945449829,2.5074000358581543,3.5311999320983887
1705063622955432700,40.4264326171875,3.474799871444702,4.549200057983398,5.1691999435424805
1705063623015432700,40.4864326171875,0.45829999446868896,2.837599992752075,7.621099948883057
1705063623075432700,40.5464326171875,-0.795199990272522,4.270400047302246,5.962599754333496
1705063623135432700,40.6064326171875,-0.17799998819828033,6.486700057983398,4.644199848175049
1705063623195432700,40.6664326171875,1.5209999084472656,5.254299640655518,2.75219988822937
1705063623255432700,40.7264326171875,1.6489999294281006,0.8255999684333801,1.048200011253357
1705063623315432700,40.7864326171875,1.6374999284744263,-0.0405999980866909,-0.04389999806880951
1705063623375432700,40.8464326171875,1.591399908065796,0.574400007724762,-2.474900007247925
1705063623435432700,40.9064326171875,0.515500009059906,1.4010999202728271,-6.0864996910095215
1705063623495432700,40.9664326171875,0.1363999992609024,1.2108999490737915,-9.018099784851074
1705063623555432700,41.0264326171875,1.4850000143051147,0.05889999866485596,-8.482099533081055
1705063623615432700,41.0864326171875,2.6673998832702637,0.8330999612808228,-5.9807000160217285
1705063623675432700,41.1464326171875,2.7284998893737793,6.441999912261963,-3.4617998600006104
1705063623735432700,41.2064326171875,1.5587999820709229,8.40429973602295,-3.050299882888794
1705063623795432700,41.2664326171875,2.0167999267578125,4.162600040435791,1.6057000160217285
1705063623855432700,41.3264326171875,1.7114999294281006,1.6577999591827393,4.440499782562256
1705063623915432700,41.3864326171875,1.4390000104904175,1.784999966621399,5.054199695587158
1705063623975432700,41.4464326171875,1.0580999851226807,1.2020000219345093,4.78849983215332
1705063624035432700,41.5064326171875,1.1883999109268188,1.51829993724823,6.339399814605713
1705063624095432700,41.5664326171875,-1.5662000179290771,1.1991000175476074,6.349799633026123
1705063624155432700,41.6264326171875,-3.125,8.425799369812012,5.099999904632568
1705063624215432700,41.6864326171875,-2.226799964904785,7.872999668121338,3.8143999576568604
1705063624275460900,41.7464609375,0.5938000082969666,6.922199726104736,2.524099826812744
1705063624335432700,41.8064326171875,2.2375998497009277,1.944000005722046,0.5947999954223633
1705063624395432700,41.8664326171875,2.839099884033203,-0.8837999701499939,-1.3327999114990234
1705063624455432700,41.9264326171875,2.8476998805999756,0.18310000002384186,-2.013200044631958
1705063624515432700,41.9864326171875,3.193499803543091,1.0059999227523804,-2.7177999019622803
1705063624575432700,42.0464326171875,3.9350998401641846,2.2572999000549316,-5.8155999183654785
1705063624635432700,42.1064326171875,3.628999948501587,0.7757999897003174,-6.9579997062683105
1705063624695432700,42.1664326171875,3.955699920654297,0.4315999746322632,-6.7667999267578125
1705063624755432700,42.2264326171875,2.5852999687194824,6.5289998054504395,-4.18179988861084
1705063624815432700,42.2864326171875,0.6021999716758728,7.258699893951416,-2.699399948120117
1705063624875432700,42.3464326171875,0.6137999892234802,2.6001999378204346,-0.05179999768733978
1705063624935432700,42.4064326171875,0.8291999697685242,-0.5292999744415283,2.223299980163574
1705063624995432700,42.4664326171875,2.9057998657226562,0.9355999827384949,1.8422999382019043
1705063625055432700,42.5264326171875,3.3227999210357666,1.3641999959945679,4.11929988861084
1705063625115432700,42.5864326171875,2.690500020980835,4.4888997077941895,5.3231000900268555
1705063625175432700,42.6464326171875,0.4138000011444092,3.4094998836517334,7.781099796295166
1705063625235432700,42.7064326171875,-0.9361000061035156,3.1618998050689697,7.1442999839782715
1705063625295432700,42.7664326171875,-0.07750000059604645,7.130499839782715,5.184299945831299
1705063625355432700,42.8264326171875,0.6097999811172485,5.439899921417236,2.7191998958587646
1705063625415432700,42.8864326171875,0.4702000021934509,0.8362999558448792,0.8660999536514282
1705063625475432700,42.9464326171875,2.0673999786376953,-0.6259999871253967,-0.6111999750137329
1705063625535432700,43.0064326171875,2.378000020980835,0.6599999666213989,-2.15559983253479
1705063625595432700,43.0664326171875,2.1283998489379883,1.3185999393463135,-6.4552998542785645
1705063625655432700,43.1264326171875,2.690199851989746,4.029299736022949,-5.460299968719482
1705063625715432700,43.1864326171875,4.130000114440918,0.13459999859333038,-9.172599792480469
1705063625775432700,43.2464326171875,4.396299839019775,2.1838998794555664,-5.2480998039245605
1705063625835432700,43.3064326171875,2.2523999214172363,6.279699802398682,-3.365499973297119
1705063625895432700,43.3664326171875,0.17090000212192535,6.450500011444092,-1.6933999061584473
1705063625955432700,43.4264326171875,0.840999960899353,1.9469999074935913,0.4430999755859375
1705063626015432700,43.4864326171875,1.3952000141143799,0.16459999978542328,1.5648999214172363
1705063626075432700,43.5464326171875,3.5625998973846436,2.191699981689453,2.6561999320983887
1705063626135432700,43.6064326171875,3.373199939727783,2.867499828338623,5.054800033569336
1705063626195432700,43.6664326171875,1.911099910736084,4.027400016784668,6.2804999351501465
1705063626255432700,43.7264326171875,0.438400000333786,3.230299949645996,6.422299861907959
1705063626315432700,43.7864326171875,0.5339999794960022,3.8633999824523926,6.679100036621094
1705063626375460900,43.8464609375,1.830299973487854,8.288700103759766,3.5261998176574707
1705063626435432700,43.9064326171875,-0.9027000069618225,5.340799808502197,1.5439999103546143
1705063626495432700,43.9664326171875,1.1654999256134033,1.3069000244140625,0.40709999203681946
1705063626555432700,44.0264326171875,1.4168999195098877,-0.9958999752998352,-1.1699999570846558
1705063626615432700,44.0864326171875,1.2408000230789185,-0.17819999158382416,-4.218999862670898
1705063626675432700,44.1464326171875,0.4267999827861786,2.1357998847961426,-6.283999919891357
1705063626735432700,44.2064326171875,2.94599986076355,2.0464999675750732,-7.654699802398682
1705063626795432700,44.2664326171875,4.450699806213379,0.09389999508857727,-9.44059944152832
1705063626855432700,44.3264326171875,3.964599847793579,1.8501999378204346,-5.790999889373779
1705063626915432700,44.3864326171875,2.682799816131592,8.07509994506836,-3.1480000019073486
1705063626975432700,44.4464326171875,1.257099986076355,8.518400192260742,-2.1001999378204346
1705063627035432700,44.5064326171875,1.3950999975204468,3.5660998821258545,1.1854000091552734
1705063627095432700,44.5664326171875,2.19599986076355,0.8359999656677246,4.031700134277344
1705063627155432700,44.6264326171875,3.1447999477386475,1.3566999435424805,4.696700096130371
1705063627215432700,44.6864326171875,3.471400022506714,1.5317000150680542,4.4766998291015625
1705063627275432700,44.7464326171875,2.4250998497009277,3.405099868774414,7.465299606323242
1705063627335432700,44.8064326171875,-0.46069997549057007,4.650199890136719,7.047999858856201
1705063627395432700,44.8664326171875,-0.7028999924659729,6.265500068664551,5.7153000831604
1705063627455432700,44.9264326171875,-1.1050999164581299,8.967499732971191,2.901899814605713
1705063627515432700,44.9864326171875,-0.30300000309944153,5.0391998291015625,1.9782999753952026
1705063627575432700,45.0464326171875,1.6039999723434448,0.1973000019788742,0.13759998977184296
1705063627635432700,45.1064326171875,2.7802000045776367,-0.08760000020265579,-0.5137999653816223
1705063627695432700,45.1664326171875,1.6761999130249023,1.5654000043869019,-4.642199993133545
1705063627755432700,45.2264326171875,2.2932000160217285,1.2350000143051147,-5.059199810028076
1705063627815432700,45.2864326171875,6.352599620819092,1.4009000062942505,-6.257699966430664
1705063627875432700,45.3464326171875,5.076600074768066,2.3832998275756836,-6.9105000495910645
1705063627935432700,45.4064326171875,4.979000091552734,2.4263999462127686,-4.6255998611450195
1705063627995432700,45.4664326171875,2.6164000034332275,6.844899654388428,-2.5013999938964844
1705063628055432700,45.5264326171875,0.6748999953269958,8.694799423217773,-1.11080002784729
1705063628115432700,45.5864326171875,0.025299999862909317,2.799799919128418,0.8527999520301819
1705063628175432700,45.6464326171875,0.7696999907493591,0.5888999700546265,2.890199899673462
1705063628235432700,45.7064326171875,2.5473999977111816,1.038699984550476,4.490900039672852
1705063628295432700,45.7664326171875,3.348099946975708,1.9542999267578125,5.416999816894531
1705063628355432700,45.8264326171875,1.6930999755859375,3.350399971008301,6.878999710083008
1705063628415432700,45.8864326171875,-0.5212000012397766,4.20989990234375,7.990699768066406
1705063628475460900,45.9464609375,-1.5489000082015991,5.017999649047852,3.4901998043060303
1705063628535432700,46.0064326171875,-0.9626999497413635,8.369599342346191,1.7983999252319336
1705063628595432700,46.0664326171875,-0.9264000058174133,3.2331998348236084,2.993799924850464
1705063628655432700,46.1264326171875,1.5003999471664429,0.31540000438690186,1.6234999895095825
1705063628715432700,46.1864326171875,3.3755998611450195,0.8384000062942505,-1.303399920463562
1705063628775432700,46.2464326171875,2.591899871826172,1.8030999898910522,-3.401899814605713
1705063628835432700,46.3064326171875,5.104300022125244,2.6712000370025635,-3.508999824523926
1705063628895432700,46.3664326171875,6.076999664306641,1.8070999383926392,-4.955599784851074
1705063628955432700,46.4264326171875,5.352999687194824,2.187299966812134,-5.472799777984619
1705063629015432700,46.4864326171875,5.572199821472168,3.7005999088287354,-3.5159997940063477
1705063629075432700,46.5464326171875,1.782599925994873,6.8237996101379395,-1.3616999387741089
1705063629135432700,46.6064326171875,0.4940999746322632,5.021399974822998,0.5392999649047852
1705063629195432700,46.6664326171875,0.02889999933540821,0.12860000133514404,-0.04859999939799309
1705063629255432700,46.7264326171875,1.792199969291687,0.1151999980211258,1.605199933052063
1705063629315432700,46.7864326171875,2.8183000087738037,1.7730000019073486,4.327699661254883
1705063629375432700,46.8464326171875,2.5284998416900635,3.5533998012542725,4.143199920654297
1705063629435432700,46.9064326171875,-0.2786000072956085,2.192999839782715,8.486599922180176
1705063629495432700,46.9664326171875,-0.22379998862743378,2.450500011444092,6.209399700164795
1705063629555432700,47.0264326171875,-3.271399974822998,8.783499717712402,4.664599895477295
1705063629615432700,47.0864326171875,-1.9660999774932861,6.980099678039551,4.929800033569336
1705063629675432700,47.1464326171875,1.6309999227523804,1.7042999267578125,2.424999952316284
1705063629735432700,47.2064326171875,3.370299816131592,-0.6290000081062317,0.26899999380111694
1705063629795432700,47.2664326171875,3.4724998474121094,-0.9192999601364136,-1.4909999370574951
1705063629855432700,47.3264326171875,2.708699941635132,1.0246999263763428,-3.2182998657226562
1705063629915432700,47.3864326171875,2.3987998962402344,0.27160000801086426,-6.142699718475342
1705063629975432700,47.4464326171875,3.6414999961853027,0.925599992275238,-5.537999629974365
1705063630035432700,47.5064326171875,4.53439998626709,3.0543999671936035,-6.946199893951416
1705063630095432700,47.5664326171875,2.9584999084472656,4.2739996910095215,-3.9246997833251953
1705063630155432700,47.6264326171875,0.8208999633789062,8.60890007019043,-1.0266000032424927
1705063630215432700,47.6864326171875,0.03659999743103981,3.8334999084472656,-0.27160000801086426
1705063630275432700,47.7464326171875,0.22599999606609344,-0.4973999857902527,0.9297999739646912
1705063630335432700,47.8064326171875,2.841599941253662,-1.2157999277114868,2.5820000171661377
1705063630395432700,47.8664326171875,3.879699945449829,-0.14869999885559082,4.31279993057251
1705063630455432700,47.9264326171875,3.2677998542785645,4.069699764251709,4.997299671173096
1705063630515432700,47.9864326171875,0.26909998059272766,3.784299850463867,6.968899726867676
1705063630575460900,48.0464609375,0.571399986743927,5.190999984741211,4.656599998474121
1705063630635432700,48.1064326171875,-0.12079999595880508,6.539899826049805,6.2480998039245605
1705063630695432700,48.1664326171875,-0.49069997668266296,8.251799583435059,2.8813998699188232
1705063630755432700,48.2264326171875,0.4616999924182892,1.3955999612808228,0.9357999563217163
1705063630815432700,48.2864326171875,2.1808998584747314,-2.0257999897003174,-0.4010999798774719
1705063630875432700,48.3464326171875,2.918099880218506,-0.3528999984264374,-3.579699993133545
1705063630935432700,48.4064326171875,0.36559998989105225,2.071899890899658,-4.503999710083008
1705063630995432700,48.4664326171875,6.105099678039551,2.79229998588562,-3.147599935531616
1705063631055434200,48.526434326171874,4.927999973297119,1.2156000137329102,-5.967199802398682
1705063631115432700,48.5864326171875,4.84559965133667,1.732699990272522,-5.997799873352051
1705063631175432700,48.6464326171875,3.2435998916625977,4.433000087738037,-3.125999927520752
1705063631235432700,48.7064326171875,1.2634999752044678,6.957900047302246,-2.3553998470306396
1705063631295432700,48.7664326171875,-0.5260999798774719,6.043900012969971,-0.1509999930858612
1705063631355432700,48.8264326171875,0.863599956035614,0.7166999578475952,1.3085999488830566
1705063631415432700,48.8864326171875,3.07099986076355,1.131600022315979,3.5414998531341553
1705063631475432700,48.9464326171875,2.892400026321411,2.5673999786376953,4.593800067901611
1705063631535432700,49.0064326171875,2.9498000144958496,3.8641998767852783,6.164999961853027
1705063631595432700,49.0664326171875,0.03969999775290489,2.52020001411438,9.051599502563477
1705063631655432700,49.1264326171875,-0.7691999673843384,7.0630998611450195,4.4375996589660645
1705063631715432700,49.1864326171875,-0.5249999761581421,8.726200103759766,4.161499977111816
1705063631775432700,49.2464326171875,0.3610000014305115,6.57289981842041,3.2547998428344727
1705063631835432700,49.3064326171875,1.01419997215271,1.1638000011444092,1.4282000064849854
1705063631895432700,49.3664326171875,1.7450999021530151,-1.2688000202178955,-0.1453000009059906
1705063631955432700,49.4264326171875,2.471099853515625,0.12209999561309814,-2.604599952697754
1705063632015432700,49.4864326171875,1.2085000276565552,4.521599769592285,-2.2490999698638916
1705063632075432700,49.5464326171875,5.137599945068359,3.258699893951416,-4.640100002288818
1705063632135432700,49.6064326171875,6.586400032043457,0.46379998326301575,-5.776000022888184
1705063632195432700,49.6664326171875,5.592099666595459,1.2954999208450317,-4.450799942016602
1705063632255432700,49.7264326171875,4.16510009765625,3.2284998893737793,-3.1438000202178955
1705063632315432700,49.7864326171875,2.2776999473571777,5.737799644470215,-1.6878999471664429
1705063632375432700,49.8464326171875,0.6521999835968018,4.442500114440918,0.6578999757766724
1705063632435432700,49.9064326171875,0.4405999779701233,0.7473999857902527,1.8532999753952026
1705063632495432700,49.9664326171875,1.6002999544143677,-0.07859999686479568,2.5534000396728516
1705063632555432700,50.0264326171875,2.8063998222351074,1.6825000047683716,3.4652998447418213
1705063632615432700,50.0864326171875,3.2135000228881836,4.108500003814697,3.7202999591827393
1705063632675460900,50.1464609375,-0.3473999798297882,2.633699893951416,7.069699764251709
1705063632735432700,50.2064326171875,-1.6686999797821045,4.0752997398376465,5.299099922180176
1705063632795432700,50.2664326171875,-0.8198999762535095,5.817599773406982,4.667599678039551
1705063632855432700,50.3264326171875,0.9131999611854553,6.170000076293945,2.609999895095825
1705063632915432700,50.3864326171875,1.114400029182434,1.0083999633789062,1.339900016784668
1705063632975432700,50.4464326171875,2.2995998859405518,-1.1268999576568604,0.02199999988079071
1705063633035432700,50.5064326171875,2.671799898147583,-0.48510000109672546,-1.2563999891281128
1705063633095432700,50.5664326171875,2.300299882888794,0.24979999661445618,-2.7345998287200928
1705063633155432700,50.6264326171875,3.192499876022339,3.5495998859405518,-4.126699924468994
1705063633215503000,50.68650317382812,4.072499752044678,1.0504000186920166,-4.996099948883057
1705063633275432700,50.7464326171875,5.097799777984619,1.5285999774932861,-5.59660005569458
1705063633335432700,50.8064326171875,3.38539981842041,3.2552998065948486,-3.309000015258789
1705063633395432700,50.8664326171875,1.5518999099731445,5.633199691772461,-2.097100019454956
1705063633455432700,50.9264326171875,0.10499999672174454,3.6624999046325684,-0.04609999805688858
1705063633515432700,50.9864326171875,0.12229999899864197,-0.15119999647140503,-0.569599986076355
1705063633575432700,51.0464326171875,2.884699821472168,0.260699987411499,1.5613999366760254
1705063633635432700,51.1064326171875,4.341799736022949,1.2258999347686768,3.621299982070923
1705063633695432700,51.1664326171875,3.333400011062622,2.426499843597412,4.358799934387207
1705063633755432700,51.2264326171875,1.1568999290466309,4.211400032043457,6.511699676513672
1705063633815432700,51.2864326171875,-0.7405999898910522,4.4029998779296875,6.578399658203125
1705063633875432700,51.3464326171875,-0.5162999629974365,5.257199764251709,4.399899959564209
1705063633935432700,51.4064326171875,-0.17289999127388,6.042699813842773,3.124199867248535
1705063633995432700,51.4664326171875,0.6119999885559082,1.500599980354309,2.6078999042510986
1705063634055432700,51.5264326171875,0.8746999502182007,-2.155900001525879,-0.05549999698996544
1705063634115432700,51.5864326171875,2.5388998985290527,-1.6359999179840088,-0.5236999988555908
1705063634175432700,51.6464326171875,2.146899938583374,0.6510999798774719,-3.017400026321411
1705063634235432700,51.7064326171875,1.4332000017166138,2.7960000038146973,-4.396100044250488
1705063634295432700,51.7664326171875,2.39520001411438,2.471799850463867,-5.417399883270264
1705063634355432700,51.8264326171875,3.664099931716919,1.0971999168395996,-6.474499702453613
1705063634415432700,51.8864326171875,3.1171998977661133,3.492299795150757,-3.9211997985839844
1705063634475432700,51.9464326171875,1.531000018119812,5.122699737548828,-2.580399990081787
1705063634535432700,52.0064326171875,0.9169999957084656,3.880499839782715,0.1671999990940094
1705063634595432700,52.0664326171875,0.250900000333786,0.07159999758005142,0.1873999983072281
1705063634655432700,52.1264326171875,2.4730000495910645,-1.0541999340057373,2.821499824523926
1705063634715432700,52.1864326171875,3.691200017929077,0.3139999806880951,3.384199857711792
1705063634775460900,52.2464609375,3.9498000144958496,2.7219998836517334,3.4663000106811523
1705063634835432700,52.3064326171875,2.16759991645813,5.033699989318848,5.652100086212158
1705063634895432700,52.3664326171875,-0.40049999952316284,5.204699993133545,6.253900051116943
1705063634955432700,52.4264326171875,-0.6699999570846558,3.634399890899658,4.854099750518799
1705063635015432700,52.4864326171875,-0.9093999862670898,6.598999977111816,1.9727998971939087
1705063635075432700,52.5464326171875,0.06509999930858612,2.4061999320983887,2.185699939727783
1705063635135432700,52.6064326171875,1.3407999277114868,-0.8634999990463257,0.25290000438690186
1705063635195432700,52.6664326171875,2.5007998943328857,-1.955399990081787,0.03790000081062317
1705063635255432700,52.7264326171875,3.1375999450683594,0.40129998326301575,-1.8945999145507812
1705063635315432700,52.7864326171875,3.337399959564209,0.4851999878883362,-4.434299945831299
1705063635375432700,52.8464326171875,3.510200023651123,2.1273999214172363,-4.898900032043457
1705063635435432700,52.9064326171875,3.547299861907959,0.7304999828338623,-5.747399806976318
1705063635495432700,52.9664326171875,4.122699737548828,1.4775999784469604,-5.698899745941162
1705063635555432700,53.0264326171875,0.5388000011444092,5.458600044250488,-1.3329999446868896
1705063635615432700,53.0864326171875,-0.6360999941825867,6.724999904632568,0.10979999601840973
1705063635675432700,53.1464326171875,-0.8202999830245972,2.738800048828125,0.38920000195503235
1705063635735432700,53.2064326171875,0.7472999691963196,-0.8587999939918518,2.0829999446868896
1705063635795432700,53.2664326171875,2.4579999446868896,-1.206399917602539,4.600500106811523
1705063635855432700,53.3264326171875,3.0065999031066895,0.30959999561309814,5.142299652099609
1705063635915432700,53.3864326171875,3.6166999340057373,2.753999948501587,4.572199821472168
1705063635975432700,53.4464326171875,1.0815999507904053,3.3187999725341797,5.116499900817871
1705063636035432700,53.5064326171875,-1.5383999347686768,7.0467000007629395,3.4217000007629395
1705063636095432700,53.5664326171875,-2.351599931716919,5.160399913787842,1.6058999300003052
1705063636155432700,53.6264326171875,-0.5543999671936035,6.412999629974365,1.675399899482727
1705063636215432700,53.6864326171875,0.37229999899864197,1.7939000129699707,1.2695999145507812
1705063636275432700,53.7464326171875,1.928999900817871,-1.1370999813079834,0.30149999260902405
1705063636335432700,53.8064326171875,3.6342999935150146,-0.31949999928474426,-0.914199948310852
1705063636395432700,53.8664326171875,4.61269998550415,-0.4952999949455261,-2.7042999267578125
1705063636455432700,53.9264326171875,4.273600101470947,1.108799934387207,-4.383800029754639
1705063636515432700,53.9864326171875,3.023200035095215,2.2909998893737793,-4.207299709320068
1705063636575432700,54.0464326171875,4.424900054931641,1.8895999193191528,-5.4716997146606445
1705063636635432700,54.1064326171875,2.8499999046325684,3.458199977874756,-3.2583999633789062
1705063636695432700,54.1664326171875,0.42579999566078186,5.397299766540527,-1.1747000217437744
1705063636755432700,54.2264326171875,0.3806999921798706,3.099299907684326,-0.08500000089406967
1705063636815432700,54.2864326171875,0.3043999969959259,-0.46539998054504395,-0.003399999812245369
1705063636875460900,54.3464609375,2.9398999214172363,0.12370000034570694,1.6804999113082886
1705063636935432700,54.4064326171875,3.7659997940063477,0.7432999610900879,3.585599899291992
1705063636995432700,54.4664326171875,4.026199817657471,3.398399829864502,3.762899875640869
1705063637055432700,54.5264326171875,1.916700005531311,4.97059965133667,7.258199691772461
1705063637115432700,54.5864326171875,-0.7861999869346619,4.6265997886657715,6.130099773406982
1705063637175432700,54.6464326171875,-0.2728999853134155,4.848199844360352,4.786099910736084
1705063637235432700,54.7064326171875,0.20489999651908875,5.84089994430542,3.180999994277954
1705063637295432700,54.7664326171875,1.418299913406372,1.9228999614715576,1.7750999927520752
1705063637355432700,54.8264326171875,1.8466999530792236,-1.3595999479293823,-0.668999969959259
1705063637415432700,54.8864326171875,2.6851999759674072,-0.9047999978065491,-1.6412999629974365
1705063637475432700,54.9464326171875,2.116299867630005,1.145799994468689,-3.083899974822998
1705063637535432700,55.0064326171875,2.1915998458862305,0.8751999735832214,-5.519599914550781
1705063637595432700,55.0664326171875,2.6245999336242676,1.717099905014038,-6.4567999839782715
1705063637655432700,55.1264326171875,3.2634999752044678,1.7525999546051025,-6.4781999588012695
1705063637715434200,55.18643432617188,2.2904999256134033,3.1884000301361084,-4.430299758911133
1705063637775432700,55.2464326171875,0.5564000010490417,5.866099834442139,-2.1696999073028564
1705063637835432700,55.3064326171875,0.7513999938964844,4.492599964141846,-0.8939999938011169
1705063637895432700,55.3664326171875,1.0240999460220337,0.9790999889373779,0.011799999512732029
1705063637955432700,55.4264326171875,2.760699987411499,0.25200000405311584,2.8406999111175537
1705063638015432700,55.4864326171875,3.8006999492645264,1.4586999416351318,3.8376998901367188
1705063638075432700,55.5464326171875,3.820199966430664,3.0569000244140625,3.9746999740600586
1705063638135432700,55.6064326171875,1.6977999210357666,4.182799816131592,8.133899688720703
1705063638195432700,55.6664326171875,-0.6241999864578247,5.7764997482299805,7.378199577331543
1705063638255432700,55.7264326171875,-0.2360999882221222,5.83459997177124,5.143199920654297
1705063638315432700,55.7864326171875,0.2629999816417694,7.344399929046631,2.4907000064849854
1705063638375432700,55.8464326171875,1.3697999715805054,2.57099986076355,1.2272999286651611
1705063638435432700,55.9064326171875,2.0876998901367188,-0.4016999900341034,-0.7863999605178833
1705063638495432700,55.9664326171875,2.495699882507324,0.6498000025749207,-1.5216000080108643
1705063638555432700,56.0264326171875,2.2588999271392822,1.083899974822998,-4.3292999267578125
1705063638615432700,56.0864326171875,3.2403998374938965,2.4910998344421387,-6.142600059509277
1705063638675432700,56.1464326171875,3.6420998573303223,0.8269000053405762,-6.4293999671936035
1705063638735432700,56.2064326171875,4.232699871063232,1.5098999738693237,-6.375199794769287
1705063638795432700,56.2664326171875,3.1273999214172363,4.79040002822876,-4.019499778747559
1705063638855432700,56.3264326171875,0.18969999253749847,6.9096999168396,-0.8468999862670898
1705063638915432700,56.3864326171875,0.9142999649047852,4.088399887084961,0.03439999744296074
1705063638975460900,56.4464609375,0.45329999923706055,0.890999972820282,0.2953999936580658
1705063639035432700,56.5064326171875,2.8245999813079834,0.357699990272522,3.162400007247925
1705063639095432700,56.5664326171875,3.6355998516082764,1.4742999076843262,4.155799865722656
1705063639155432700,56.6264326171875,3.5741000175476074,3.885999917984009,4.586400032043457
1705063639215432700,56.6864326171875,1.8680999279022217,2.8100998401641846,5.062900066375732
1705063639275432700,56.7464326171875,0.33329999446868896,5.366399765014648,4.404699802398682
1705063639335432700,56.8064326171875,-0.24969999492168427,5.714399814605713,5.17609977722168
1705063639395432700,56.8664326171875,0.8672999739646912,6.941400051116943,4.076399803161621
1705063639455432700,56.9264326171875,1.1722999811172485,2.7898998260498047,2.2914998531341553
1705063639515432700,56.9864326171875,1.3544999361038208,-0.44269999861717224,-0.12049999833106995
1705063639575432700,57.0464326171875,2.1190998554229736,0.7682999968528748,-0.2886999845504761
1705063639635432700,57.1064326171875,1.9876999855041504,2.4019999504089355,-2.3896000385284424
1705063639695432700,57.1664326171875,3.1830999851226807,1.2142999172210693,-6.52239990234375
1705063639755432700,57.2264326171875,3.054499864578247,2.3561999797821045,-7.253900051116943
1705063639815432700,57.2864326171875,2.990299940109253,2.4247000217437744,-7.205699920654297
1705063639875432700,57.3464326171875,3.4121999740600586,2.2079999446868896,-5.176599979400635
1705063639935432700,57.4064326171875,0.9364999532699585,6.768499851226807,-2.396199941635132
1705063639995432700,57.4664326171875,0.8716999888420105,6.212699890136719,-1.0592999458312988
1705063640055432700,57.5264326171875,1.1478999853134155,2.412799835205078,0.7361999750137329
1705063640115432700,57.5864326171875,2.5820999145507812,1.083400011062622,3.6654999256134033
1705063640175432700,57.6464326171875,3.5092999935150146,2.2453999519348145,4.0406999588012695
1705063640235432700,57.7064326171875,3.4056999683380127,2.9667999744415283,5.746399879455566
1705063640295432700,57.7664326171875,2.958400011062622,3.0909998416900635,4.888899803161621
1705063640355432700,57.8264326171875,-0.29170000553131104,4.336699962615967,3.977599859237671
1705063640415432700,57.8864326171875,-0.47939997911453247,4.611599922180176,4.427599906921387
1705063640475432700,57.9464326171875,0.671999990940094,8.367899894714355,3.7505998611450195
1705063640535432700,58.0064326171875,0.8125,4.053100109100342,2.3202998638153076
1705063640595432700,58.0664326171875,1.5749999284744263,-0.11029999703168869,-0.10989999771118164
1705063640655432700,58.1264326171875,2.2333998680114746,-1.5094000101089478,-1.3543999195098877
1705063640715432700,58.1864326171875,1.8421999216079712,0.8287999629974365,-1.2876999378204346
1705063640775432700,58.2464326171875,1.392199993133545,2.5460000038146973,-5.115600109100342
1705063640835432700,58.3064326171875,1.6589999198913574,2.6161999702453613,-6.246500015258789
1705063640895432700,58.3664326171875,3.6845998764038086,1.5468999147415161,-6.858999729156494
1705063640955432700,58.4264326171875,2.6641998291015625,2.03410005569458,-5.170499801635742
1705063641015432700,58.4864326171875,1.6395999193191528,4.5792999267578125,-2.9148998260498047
1705063641075460900,58.5464609375,0.9319999814033508,5.180999755859375,-1.8393999338150024
1705063641135432700,58.6064326171875,1.1069999933242798,1.2903000116348267,-0.1914999932050705
1705063641195432700,58.6664326171875,2.5778000354766846,-0.31529998779296875,2.250499963760376
1705063641255432700,58.7264326171875,3.7709999084472656,0.6090999841690063,3.2507998943328857
1705063641315432700,58.7864326171875,3.820499897003174,2.8345999717712402,3.543599843978882
1705063641375432700,58.8464326171875,3.144899845123291,4.041599750518799,5.137199878692627
1705063641435432700,58.9064326171875,1.174899935722351,2.7167999744415283,6.160299777984619
1705063641495432700,58.9664326171875,-0.34209999442100525,3.120699882507324,5.655999660491943
1705063641555432700,59.0264326171875,-0.5194999575614929,7.497499942779541,2.7899999618530273
1705063641615432700,59.0864326171875,-0.5360999703407288,4.8684000968933105,3.1469998359680176
1705063641675432700,59.1464326171875,1.1003999710083008,0.1225999966263771,0.5899999737739563
1705063641735432700,59.2064326171875,2.271199941635132,-2.4113998413085938,-0.298799991607666
1705063641795432700,59.2664326171875,2.8773999214172363,-0.826200008392334,-1.218400001525879
1705063641855432700,59.3264326171875,1.7360999584197998,2.0123000144958496,-3.413100004196167
1705063641915432700,59.3864326171875,1.6829999685287476,1.208899974822998,-8.180899620056152
1705063641975432700,59.4464326171875,2.7028000354766846,1.5475000143051147,-5.9832000732421875
1705063642035432700,59.5064326171875,4.858399868011475,3.07069993019104,-5.248300075531006
1705063642095432700,59.5664326171875,3.5326998233795166,5.475299835205078,-3.365000009536743
1705063642155432700,59.6264326171875,2.328699827194214,6.180500030517578,-1.4404000043869019
1705063642215432700,59.6864326171875,1.899399995803833,2.119499921798706,1.2173999547958374
1705063642275432700,59.7464326171875,2.186800003051758,0.7634999752044678,2.410099983215332
1705063642335432700,59.8064326171875,2.746999979019165,1.5554999113082886,3.232100009918213
1705063642395432700,59.8664326171875,3.1499998569488525,2.535599946975708,3.7627999782562256
1705063642455432700,59.9264326171875,2.34660005569458,4.352200031280518,5.4054999351501465
1705063642515432700,59.9864326171875,-0.1006999984383583,2.87749981880188,7.387199878692627
1705063642575432700,60.0464326171875,-1.219599962234497,4.1031999588012695,5.937099933624268
1705063642635432700,60.1064326171875,0.4822999835014343,8.308799743652344,3.0759999752044678
1705063642695432700,60.1664326171875,1.1730999946594238,4.017300128936768,1.26419997215271
1705063642755432700,60.2264326171875,1.3695999383926392,-0.7509999871253967,0.3714999854564667
1705063642815432700,60.2864326171875,2.6922998428344727,-1.2206000089645386,-0.6326000094413757
1705063642875432700,60.3464326171875,2.342099905014038,2.0613999366760254,-1.823199987411499
1705063642935432700,60.4064326171875,2.1085000038146973,1.1144999265670776,-4.722700119018555
1705063642995432700,60.4664326171875,4.667699813842773,1.0551999807357788,-5.576999664306641
1705063643055432700,60.5264326171875,5.933899879455566,1.2167999744415283,-6.763199806213379
1705063643115432700,60.5864326171875,3.993499994277954,2.2246999740600586,-4.479499816894531
1705063643175460900,60.6464609375,2.6803998947143555,7.855799674987793,-2.6024999618530273
1705063643235432700,60.7064326171875,0.7414999604225159,7.290299892425537,-1.5342999696731567
1705063643295432700,60.7664326171875,-0.5928999781608582,1.8702999353408813,1.5963000059127808
1705063643355432700,60.8264326171875,1.5339999198913574,0.4416999816894531,2.3987998962402344
1705063643415432700,60.8864326171875,2.9965999126434326,0.9398999810218811,4.303400039672852
1705063643475432700,60.9464326171875,2.7772998809814453,2.2051000595092773,4.967400074005127
1705063643535432700,61.0064326171875,0.6179999709129333,2.910799980163574,7.7291998863220215
1705063643595432700,61.0664326171875,-0.6900999546051025,5.228899955749512,5.585399627685547
1705063643655432700,61.1264326171875,-0.38760000467300415,7.010799884796143,6.28279972076416
1705063643715432700,61.1864326171875,0.3944999873638153,8.837699890136719,2.922600030899048
1705063643775432700,61.2464326171875,0.796999990940094,2.9921000003814697,1.2381999492645264
1705063643835432700,61.3064326171875,2.723599910736084,-1.309499979019165,0.4147000014781952
1705063643895432700,61.3664326171875,3.235299825668335,-1.1377999782562256,-0.7583999633789062
1705063643955432700,61.4264326171875,2.440000057220459,2.13349986076355,-2.976099967956543
1705063644015432700,61.4864326171875,2.3676998615264893,3.064499855041504,-4.9853997230529785
1705063644075432700,61.5464326171875,5.304999828338623,1.208299994468689,-5.577199935913086
1705063644135432700,61.6064326171875,6.9156999588012695,0.9792999625205994,-5.041999816894531
1705063644195432700,61.6664326171875,5.440000057220459,4.075500011444092,-4.178499698638916
1705063644255432700,61.7264326171875,2.245499849319458,7.24370002746582,-2.519899845123291
1705063644315432700,61.7864326171875,-0.026799999177455902,5.693599700927734,0.5329999923706055
1705063644375432700,61.8464326171875,-0.6951000094413757,0.8971999883651733,1.2883999347686768
1705063644435432700,61.9064326171875,1.30239999294281,0.6585999727249146,3.1669998168945312
1705063644495432700,61.9664326171875,1.9948999881744385,2.901599884033203,4.396199703216553
1705063644555432700,62.0264326171875,1.6704999208450317,3.908799886703491,5.111199855804443
1705063644615432700,62.0864326171875,-1.2524999380111694,2.908099889755249,5.012899875640869
1705063644675432700,62.1464326171875,-2.180999994277954,4.21999979019165,4.74429988861084
1705063644735432700,62.2064326171875,-3.891199827194214,4.604599952697754,2.6461000442504883
1705063644795432700,62.2664326171875,-4.314499855041504,8.428699493408203,2.053299903869629
1705063644855432700,62.3264326171875,-2.893399953842163,2.9716999530792236,2.297299861907959
1705063644915432700,62.3864326171875,1.5202999114990234,-1.27839994430542,0.8061999678611755
1705063644975432700,62.4464326171875,2.8424999713897705,-0.7041999697685242,1.9820998907089233
1705063645035432700,62.5064326171875,1.7358999252319336,2.2372000217437744,-0.977400004863739
1705063645095432700,62.5664326171875,1.7187999486923218,3.761399984359741,-3.975399971008301
1705063645155432700,62.6264326171875,2.916299819946289,1.5418999195098877,-7.13599967956543
1705063645215432700,62.6864326171875,4.377699851989746,-0.01249999925494194,-6.8202996253967285
1705063645275460900,62.7464609375,1.8428999185562134,2.924299955368042,-4.890699863433838
1705063645335432700,62.8064326171875,0.29829999804496765,4.204899787902832,-3.3762998580932617
1705063645395432700,62.8664326171875,1.3630999326705933,3.96589994430542,-2.441499948501587
1705063645455432700,62.9264326171875,1.6411999464035034,1.044600009918213,-0.5144999623298645
1705063645515432700,62.9864326171875,2.9579999446868896,0.7152000069618225,2.0909998416900635
1705063645575432700,63.0464326171875,3.0954999923706055,2.0620999336242676,3.3348000049591064
1705063645635432700,63.1064326171875,2.3683998584747314,3.1741998195648193,4.263899803161621
1705063645695432700,63.1664326171875,2.2688000202178955,2.902400016784668,5.571099758148193
1705063645755432700,63.2264326171875,-0.6961999535560608,3.898699998855591,4.619199752807617
1705063645815432700,63.2864326171875,-1.7056999206542969,4.730199813842773,5.755300045013428
1705063645875432700,63.3464326171875,-1.5477999448776245,7.561999797821045,5.219099998474121
1705063645935432700,63.4064326171875,0.19509999454021454,3.3478000164031982,2.217900037765503
1705063645995432700,63.4664326171875,1.5814999341964722,-0.307699978351593,1.6944999694824219
1705063646055432700,63.5264326171875,2.1912999153137207,-0.2012999951839447,-0.02149999886751175
1705063646115432700,63.5864326171875,2.4105000495910645,1.7299998998641968,-1.8739999532699585
1705063646175432700,63.6464326171875,2.2886998653411865,0.9383999705314636,-4.966599941253662
1705063646235432700,63.7064326171875,2.668299913406372,1.9950999021530151,-7.1168999671936035
1705063646295432700,63.7664326171875,3.624699831008911,0.6728999614715576,-7.620699882507324
1705063646355432700,63.8264326171875,2.526399850845337,0.8513999581336975,-6.559299945831299
1705063646415434200,63.88643432617187,1.6243999004364014,5.327699661254883,-3.7547998428344727
1705063646475432700,63.9464326171875,1.010599970817566,7.01069974899292,-2.461599826812744
1705063646535432700,64.0064326171875,1.3451999425888062,3.656099796295166,-0.48649999499320984
1705063646595432700,64.0664326171875,2.6187000274658203,1.2094999551773071,2.516700029373169
1705063646655432700,64.1264326171875,3.6118998527526855,1.6586999893188477,4.137199878692627
1705063646715432700,64.1864326171875,4.394700050354004,3.1539998054504395,4.863499641418457
1705063646775432700,64.2464326171875,3.6168999671936035,3.4096999168395996,4.948899745941162
1705063646835432700,64.3064326171875,0.3237999975681305,2.884899854660034,6.763299942016602
1705063646895432700,64.3664326171875,-0.998699963092804,4.3420000076293945,5.403299808502197
1705063646955432700,64.4264326171875,0.005399999674409628,5.806299686431885,3.561199903488159
1705063647015432700,64.4864326171875,-0.4544000029563904,6.2328996658325195,3.0139000415802
1705063647075432700,64.5464326171875,0.698199987411499,2.4549999237060547,-0.06989999860525131
1705063647135432700,64.6064326171875,2.1785998344421387,-0.7556999921798706,-0.6902999877929688
1705063647195432700,64.6664326171875,2.870800018310547,0.786300003528595,-0.5760999917984009
1705063647255432700,64.7264326171875,3.4228999614715576,0.9476999640464783,-2.4598000049591064
1705063647315432700,64.7864326171875,6.444599628448486,-0.12950000166893005,-4.476200103759766
1705063647375460900,64.8464609375,5.464799880981445,3.2670998573303223,-4.831399917602539
1705063647435432700,64.9064326171875,6.082399845123291,1.646899938583374,-4.045799732208252
1705063647495432700,64.9664326171875,4.217299938201904,4.85890007019043,-2.435299873352051
1705063647555432700,65.0264326171875,1.0835999250411987,7.230599880218506,0.17239999771118164
1705063647615432700,65.0864326171875,-1.5508999824523926,3.943499803543091,-0.9718999862670898
1705063647675432700,65.1464326171875,1.2477999925613403,0.2190999984741211,0.6111999750137329
1705063647735432700,65.2064326171875,3.758699893951416,-0.8384999632835388,3.0907998085021973
1705063647795432700,65.2664326171875,4.526400089263916,0.4339999854564667,2.9021999835968018
1705063647855432700,65.3264326171875,4.394599914550781,3.2379000186920166,4.337800025939941
1705063647915432700,65.3864326171875,0.7768999934196472,4.645400047302246,7.324399948120117
1705063647975432700,65.4464326171875,-0.8197000026702881,4.128900051116943,5.620100021362305
1705063648035432700,65.5064326171875,0.4982999861240387,5.6407999992370605,4.10260009765625
1705063648095432700,65.5664326171875,-1.170300006866455,6.928299903869629,2.998199939727783
1705063648155432700,65.6264326171875,-0.13729999959468842,3.0735998153686523,0.353300005197525
1705063648215432700,65.6864326171875,0.7506999969482422,-2.471400022506714,-0.9932999610900879
1705063648275432700,65.7464326171875,2.799799919128418,-3.2888998985290527,-2.3176000118255615
1705063648335432700,65.8064326171875,0.9048999547958374,2.094099998474121,-3.888700008392334
1705063648395432700,65.8664326171875,3.599799871444702,1.9315999746322632,-3.88539981842041
1705063648455432700,65.9264326171875,5.462899684906006,1.442099928855896,-4.277100086212158
1705063648515432700,65.9864326171875,5.939699649810791,1.3960999250411987,-4.688399791717529
1705063648575432700,66.0464326171875,4.36359977722168,3.134399890899658,-1.9158999919891357
1705063648635432700,66.1064326171875,2.441699981689453,7.879299640655518,-1.2472000122070312
1705063648695432700,66.1664326171875,1.066499948501587,5.34089994430542,-0.3513999879360199
1705063648755432700,66.2264326171875,0.3822999894618988,0.8277999758720398,2.143899917602539
1705063648815432700,66.2864326171875,1.1292999982833862,-0.3953999876976013,3.1510000228881836
1705063648875432700,66.3464326171875,2.4240000247955322,-0.03909999877214432,3.654399871826172
1705063648935432700,66.4064326171875,2.563499927520752,-0.002899999963119626,4.825799942016602
1705063648995432700,66.4664326171875,1.1744999885559082,3.804999828338623,5.752199649810791
1705063649055432700,66.5264326171875,-0.9526000022888184,5.273099899291992,5.11959981918335
1705063649115432700,66.5864326171875,-0.32829999923706055,5.885799884796143,4.74970006942749
1705063649175432700,66.6464326171875,-0.3564999997615814,8.256400108337402,1.8339999914169312
1705063649235432700,66.7064326171875,0.6031999588012695,3.6233999729156494,0.8212999701499939
1705063649295432700,66.7664326171875,2.980299949645996,0.14190000295639038,0.015099999494850636
1705063649355432700,66.8264326171875,4.2743000984191895,-0.38760000467300415,-0.8082999587059021
1705063649415432700,66.8864326171875,5.420899868011475,0.4408999979496002,-3.2853000164031982
1705063649475460900,66.9464609375,5.097899913787842,1.4812999963760376,-4.333499908447266
1705063649535432700,67.0064326171875,3.635999917984009,1.0641000270843506,-5.888199806213379
1705063649595432700,67.0664326171875,3.463899850845337,1.9989999532699585,-6.677099704742432
1705063649655432700,67.1264326171875,0.8316999673843384,1.9449999332427979,-4.066999912261963
1705063649715432700,67.1864326171875,-0.06749999523162842,4.169399738311768,-2.889699935913086
1705063649775432700,67.2464326171875,-0.044999998062849045,6.401299953460693,-1.163599967956543
1705063649835432700,67.3064326171875,-0.15109999477863312,3.8596999645233154,0.850600004196167
1705063649895432700,67.3664326171875,1.88919997215271,-0.02539999969303608,2.384500026702881
1705063649955432700,67.4264326171875,3.691999912261963,-0.01899999938905239,4.356299877166748
1705063650015432700,67.4864326171875,3.486599922180176,1.0260999202728271,4.049799919128418
1705063650075432700,67.5464326171875,2.926499843597412,2.069200038909912,4.689199924468994
1705063650135432700,67.6064326171875,-0.5945000052452087,3.234999895095825,6.12999963760376
1705063650195432700,67.6664326171875,-1.3608999252319336,5.227200031280518,3.9300999641418457
1705063650255432700,67.7264326171875,-0.009200000204145908,5.238499641418457,4.042900085449219
1705063650315432700,67.7864326171875,-0.06579999625682831,7.682999610900879,2.3158998489379883
1705063650375432700,67.8464326171875,-0.02369999885559082,3.5570998191833496,1.517300009727478
1705063650435432700,67.9064326171875,2.8729000091552734,-0.20709998905658722,-0.08829999715089798
1705063650495432700,67.9664326171875,4.356599807739258,-1.2694000005722046,-1.5083999633789062
1705063650555432700,68.0264326171875,3.9963998794555664,0.07289999723434448,-4.025099754333496
1705063650615432700,68.0864326171875,4.163899898529053,1.9043999910354614,-4.117799758911133
1705063650675432700,68.1464326171875,4.038000106811523,1.4227999448776245,-5.865699768066406
1705063650735432700,68.2064326171875,5.144799709320068,1.2160999774932861,-6.376100063323975
1705063650795432700,68.2664326171875,3.3225998878479004,3.50219988822937,-2.9275999069213867
1705063650855432700,68.3264326171875,1.5814999341964722,7.341599941253662,-1.534999966621399
1705063650915432700,68.3864326171875,0.6266999840736389,6.18619966506958,-0.6377999782562256
1705063650975432700,68.4464326171875,0.5084999799728394,1.5342999696731567,1.3737999200820923
1705063651035432700,68.5064326171875,1.7733999490737915,0.4732999801635742,3.418599843978882
1705063651095432700,68.5664326171875,2.8827998638153076,1.5342999696731567,4.248799800872803
1705063651155432700,68.6264326171875,2.794600009918213,0.6182999610900879,5.487400054931641
1705063651215432700,68.6864326171875,2.279399871826172,3.1310999393463135,6.21019983291626
1705063651275432700,68.7464326171875,-1.4330999851226807,2.8571999073028564,6.32289981842041
1705063651335432700,68.8064326171875,-1.0799999237060547,4.646699905395508,2.9572999477386475
1705063651395432700,68.8664326171875,-0.03629999980330467,9.121899604797363,2.1686999797821045
1705063651455432700,68.9264326171875,-0.44290000200271606,6.434799671173096,2.2565999031066895
1705063651515432700,68.9864326171875,1.5693999528884888,0.7838999629020691,0.39879998564720154
1705063651575460900,69.0464609375,3.1155998706817627,-1.6065999269485474,-0.44739997386932373
1705063651635432700,69.1064326171875,4.5696001052856445,-0.2457999885082245,-1.6730999946594238
1705063651695432700,69.1664326171875,4.533799648284912,0.2718999981880188,-4.567699909210205
1705063651755432700,69.2264326171875,5.492799758911133,2.335099935531616,-4.2195000648498535
1705063651815432700,69.2864326171875,5.118599891662598,1.3248000144958496,-6.260900020599365
1705063651875432700,69.3464326171875,4.085400104522705,3.094099998474121,-5.613100051879883
1705063651935432700,69.4064326171875,1.413699984550476,8.222800254821777,-2.868299961090088
1705063651995432700,69.4664326171875,-2.364300012588501,7.289899826049805,-0.39719998836517334
1705063652055432700,69.5264326171875,-0.6931999921798706,2.979099988937378,-0.4406999945640564
1705063652115432700,69.5864326171875,2.1638998985290527,-0.24539999663829803,2.0074000358581543
1705063652175432700,69.6464326171875,4.118599891662598,-0.3051999807357788,3.1412999629974365
1705063652235432700,69.7064326171875,4.958899974822998,2.2314999103546143,3.189199924468994
1705063652295432700,69.7664326171875,4.59060001373291,4.384599685668945,6.37939977645874
1705063652355432700,69.8264326171875,2.329699993133545,4.24970006942749,6.585899829864502
1705063652415432700,69.8864326171875,0.715499997138977,5.09499979019165,4.4340996742248535
1705063652475432700,69.9464326171875,-1.070099949836731,2.0448999404907227,3.569899797439575
1705063652535432700,70.0064326171875,0.7813000082969666,7.648299694061279,1.280900001525879
1705063652595432700,70.0664326171875,-1.198599934577942,5.140100002288818,3.6387999057769775
1705063652655432700,70.1264326171875,-0.08389999717473984,0.41179999709129333,-0.26100000739097595
1705063652715432700,70.1864326171875,2.6123998165130615,-1.9504998922348022,-1.4881999492645264
1705063652775432700,70.2464326171875,2.4535000324249268,-0.5698999762535095,-5.9101996421813965
1705063652835432700,70.3064326171875,0.9505999684333801,3.026599884033203,-6.061299800872803
1705063652895432700,70.3664326171875,2.2755000591278076,1.5175999402999878,-7.891499996185303
1705063652955432700,70.4264326171875,3.797799825668335,1.5160999298095703,-7.100399971008301
1705063653015432700,70.4864326171875,2.888200044631958,4.0229997634887695,-4.351500034332275
1705063653075432700,70.5464326171875,1.9852999448776245,7.238199710845947,-1.920199990272522
1705063653135432700,70.6064326171875,1.449199914932251,7.880799770355225,-0.9716999530792236
1705063653195432700,70.6664326171875,1.8449000120162964,2.896199941635132,1.8435999155044556
1705063653255432700,70.7264326171875,3.0269999504089355,1.3624999523162842,4.109799861907959
1705063653315432700,70.7864326171875,3.868299961090088,2.2258999347686768,4.752500057220459
1705063653375432700,70.8464326171875,4.522900104522705,2.899199962615967,5.7851996421813965
1705063653435432700,70.9064326171875,2.9540998935699463,3.724299907684326,7.428299903869629
1705063653495432700,70.9664326171875,-0.22619999945163727,4.154900074005127,6.406899929046631
1705063653555432700,71.0264326171875,-0.43609997630119324,5.149499893188477,3.8053998947143555
1705063653615432700,71.0864326171875,1.0584999322891235,7.630099773406982,2.5190999507904053
1705063653675460900,71.1464609375,-0.030899999663233757,5.736700057983398,0.5928999781608582
1705063653735432700,71.2064326171875,-0.9244999885559082,2.1886000633239746,0.4696999788284302
1705063653795432700,71.2664326171875,2.5458998680114746,0.7554999589920044,-0.9111999869346619
1705063653855432700,71.3264326171875,3.6098999977111816,0.6277999877929688,-4.5548996925354
1705063653915432700,71.3864326171875,6.396199703216553,0.8871999979019165,-4.985099792480469
1705063653975432700,71.4464326171875,5.007999897003174,3.1611998081207275,-5.751800060272217
1705063654035432700,71.5064326171875,5.249199867248535,1.0841000080108643,-6.607499599456787
1705063654095432700,71.5664326171875,3.0464999675750732,1.4438999891281128,-4.243299961090088
1705063654155432700,71.6264326171875,1.0507999658584595,5.287999629974365,-2.242799997329712
1705063654215432700,71.6864326171875,0.08940000087022781,6.960099697113037,-0.13449999690055847
1705063654275432700,71.7464326171875,0.8378999829292297,4.268499851226807,0.5273999571800232
1705063654335432700,71.8064326171875,1.8007999658584595,1.854599952697754,2.2279999256134033
1705063654395432700,71.8664326171875,2.7056000232696533,0.3384999930858612,4.559700012207031
1705063654455432700,71.9264326171875,3.588599920272827,0.6108999848365784,5.291599750518799
1705063654515432700,71.9864326171875,3.3873000144958496,2.9733998775482178,6.4178996086120605
1705063654575432700,72.0464326171875,1.3905999660491943,2.3215999603271484,8.00570011138916
1705063654635432700,72.1064326171875,-0.34209999442100525,3.7991998195648193,4.868000030517578
1705063654695432700,72.1664326171875,-0.13099999725818634,4.427999973297119,1.7252999544143677
1705063654755432700,72.2264326171875,0.5164999961853027,6.919099807739258,1.5307999849319458
1705063654815432700,72.2864326171875,0.30149999260902405,4.975299835205078,1.5966999530792236
1705063654875432700,72.3464326171875,1.2395999431610107,1.702199935913086,-0.6843999624252319
1705063654935432700,72.4064326171875,3.1417999267578125,-0.5583999752998352,-2.2193000316619873
1705063654995432700,72.4664326171875,4.443999767303467,-0.8960999846458435,-3.7545998096466064
1705063655055432700,72.5264326171875,3.929499864578247,0.10119999945163727,-4.82289981842041
1705063655115432700,72.5864326171875,3.2101998329162598,2.3661999702453613,-4.70359992980957
1705063655175432700,72.6464326171875,3.1133999824523926,1.3443999290466309,-6.178699970245361
1705063655235432700,72.7064326171875,2.213899850845337,1.6200999021530151,-5.089399814605713
1705063655295432700,72.7664326171875,1.3401999473571777,4.107800006866455,-3.197199821472168
1705063655355432700,72.8264326171875,0.6220999956130981,5.165499687194824,-1.327299952507019
1705063655415432700,72.8864326171875,1.2271000146865845,2.7286999225616455,-0.0681999996304512
1705063655475432700,72.9464326171875,2.312000036239624,1.0898000001907349,1.2293999195098877
1705063655535432700,73.0064326171875,3.8080999851226807,1.8496999740600586,2.942499876022339
1705063655595432700,73.0664326171875,3.8210999965667725,2.7704999446868896,4.389100074768066
1705063655655432700,73.1264326171875,3.1185998916625977,2.4052999019622803,5.446700096130371
1705063655715432700,73.1864326171875,0.9811999797821045,2.009899854660034,5.665999889373779
1705063655775460900,73.2464609375,-2.4682998657226562,4.950999736785889,6.677700042724609
1705063655835432700,73.3064326171875,-0.38760000467300415,6.573899745941162,3.1888999938964844
1705063655895432700,73.3664326171875,0.6805999875068665,7.573599815368652,2.88100004196167
1705063655955432700,73.4264326171875,1.2591999769210815,2.011699914932251,0.018799999728798866
1705063656015432700,73.4864326171875,2.8437998294830322,-1.5109000205993652,-1.7078999280929565
1705063656075432700,73.5464326171875,3.329200029373169,-0.3157999813556671,-3.387699842453003
1705063656135432700,73.6064326171875,2.094899892807007,2.8118999004364014,-3.6682000160217285
1705063656195432700,73.6664326171875,5.103300094604492,1.611299991607666,-4.957699775695801
1705063656255432700,73.7264326171875,3.61329984664917,1.5209999084472656,-6.465099811553955
1705063656315432700,73.7864326171875,4.541100025177002,1.9668999910354614,-4.710400104522705
1705063656375432700,73.8464326171875,2.6153998374938965,4.071399688720703,-2.559000015258789
1705063656435432700,73.9064326171875,1.3686999082565308,5.811299800872803,-1.315999984741211
1705063656495432700,73.9664326171875,1.3005999326705933,3.303299903869629,-0.8191999793052673
1705063656555432700,74.0264326171875,1.8065999746322632,0.18050000071525574,0.7990999817848206
1705063656615432700,74.0864326171875,3.5807998180389404,0.2712000012397766,2.564199924468994
1705063656675432700,74.1464326171875,4.2154998779296875,2.223299980163574,2.9818999767303467
1705063656735432700,74.2064326171875,4.235799789428711,5.44980001449585,3.7112998962402344
1705063656795432700,74.2664326171875,1.052899956703186,3.4375998973846436,7.903800010681152
1705063656855432700,74.3264326171875,-0.5065000057220459,4.491499900817871,6.246099948883057
1705063656915432700,74.3864326171875,-1.12309992313385,5.092899799346924,2.3550000190734863
1705063656975432700,74.4464326171875,-0.6227999925613403,6.195999622344971,3.123800039291382
1705063657035432700,74.5064326171875,0.3935999870300293,1.5942000150680542,1.6332999467849731
1705063657095432700,74.5664326171875,1.746999979019165,-1.688499927520752,-0.07339999824762344
1705063657155432700,74.6264326171875,3.058300018310547,-1.6093000173568726,-1.9200999736785889
1705063657215432700,74.6864326171875,2.1643998622894287,1.3859999179840088,-4.10260009765625
1705063657275432700,74.7464326171875,1.9583998918533325,1.983299970626831,-4.463900089263916
1705063657335432700,74.8064326171875,3.534299850463867,1.202199935913086,-5.320799827575684
1705063657395432700,74.8664326171875,4.189599990844727,1.6938999891281128,-5.4156999588012695
1705063657455432700,74.9264326171875,2.903599977493286,4.626100063323975,-2.874199867248535
1705063657515432700,74.9864326171875,1.5765999555587769,5.380399703979492,-0.8535999655723572
1705063657575432700,75.0464326171875,0.9387999773025513,3.6093997955322266,-0.04149999842047691
1705063657635432700,75.1064326171875,1.3371999263763428,0.16499999165534973,0.9709999561309814
1705063657695432700,75.1664326171875,2.947999954223633,0.1574999988079071,2.8104000091552734
1705063657755432700,75.2264326171875,3.379499912261963,1.226199984550476,3.9896998405456543
1705063657815432700,75.2864326171875,3.111799955368042,0.34929999709129333,5.045199871063232
1705063657875460900,75.3464609375,2.0845999717712402,2.365000009536743,5.71999979019165
1705063657935432700,75.4064326171875,-1.1891000270843506,4.915999889373779,5.2789998054504395
1705063657995432700,75.4664326171875,-1.6039999723434448,4.044300079345703,4.616199970245361
1705063658055432700,75.5264326171875,0.6032999753952026,8.2253999710083,2.5607998371124268
1705063658115432700,75.5864326171875,0.7512999773025513,4.00029993057251,0.5773999691009521
1705063658175432700,75.6464326171875,2.217099905014038,-0.3091999888420105,-0.3874000012874603
1705063658235432700,75.7064326171875,3.7136998176574707,-0.9106999635696411,-1.1473000049591064
1705063658295432700,75.7664326171875,3.9890999794006348,1.5384999513626099,-2.5261998176574707
1705063658355432700,75.8264326171875,4.56820011138916,2.0927999019622803,-4.955399990081787
1705063658415432700,75.8864326171875,4.670199871063232,1.945099949836731,-6.72059965133667
1705063658475432700,75.9464326171875,3.8905999660491943,1.423699975013733,-7.5914998054504395
1705063658535432700,76.0064326171875,3.3264999389648438,0.8388999700546265,-5.539999961853027
1705063658595432700,76.0664326171875,2.1865999698638916,5.751800060272217,-3.311699867248535
1705063658655432700,76.1264326171875,0.6448000073432922,8.588199615478516,-1.440999984741211
1705063658715432700,76.1864326171875,1.5917999744415283,6.216599941253662,0.38029998540878296
1705063658775432700,76.2464326171875,2.381700038909912,2.0764000415802,2.9941999912261963
1705063658835432700,76.3064326171875,3.4579999446868896,1.427799940109253,4.786399841308594
1705063658895432700,76.3664326171875,3.946899890899658,2.221400022506714,5.0671000480651855
1705063658955432700,76.4264326171875,3.985499858856201,1.1121000051498413,6.9066996574401855
1705063659015432700,76.4864326171875,-0.14999999105930328,2.94599986076355,8.389200210571289
1705063659075432700,76.5464326171875,0.20809999108314514,6.894399642944336,5.079400062561035
1705063659135432700,76.6064326171875,0.23629999160766602,6.209799766540527,4.293399810791016
1705063659195432700,76.6664326171875,0.7114999890327454,7.277899742126465,1.878999948501587
