time,seconds_elapsed,z,y,x
1702211997801836800,0.0488369140625,0.8687999844551086,-0.8804000020027161,0.5885999798774719
1702211997861835300,0.108835205078125,0.07429999858140945,0.14190000295639038,-0.07689999788999557
1702211997921836800,0.1688369140625,-0.07649999856948853,0.06879999488592148,-0.0279999990016222
1702211997981836800,0.2288369140625,-0.3432999849319458,-0.12629999220371246,-0.1735999882221222
1702211998041836800,0.2888369140625,-0.3215999901294708,0.3098999857902527,0.06159999966621399
1702211998101836800,0.3488369140625,0.0940999984741211,-0.2915000021457672,0.4113999903202057
1702211998161836800,0.4088369140625,-0.26919999718666077,-0.3917999863624573,-0.00139999995008111
1702211998221836800,0.4688369140625,-0.4811999797821045,0.3312999904155731,-0.49619999527931213
1702211998281836800,0.5288369140625,0.8251999616622925,0.6351999640464783,-1.0521999597549438
1702211998341836800,0.5888369140625,-0.4723999798297882,-1.0853999853134155,0.3450999855995178
1702211998401863400,0.648863525390625,0.4838999807834625,-0.0007999999797903001,0.38439998030662537
1702211998461836800,0.7088369140625,-0.653499960899353,-1.0042999982833862,0.46219998598098755
1702211998521836800,0.7688369140625,0.5238000154495239,-0.01889999955892563,1.3120999336242676
1702211998581836800,0.8288369140625,0.3005000054836273,-0.8615999817848206,-0.3723999857902527
1702211998641836800,0.8888369140625,-1.343999981880188,-0.5947999954223633,0.2175999879837036
1702211998701836800,0.9488369140625,-0.2069999873638153,-1.1826000213623047,1.0881999731063843
1702211998761836800,1.0088369140625,-0.38189998269081116,-0.6401999592781067,0.9181999564170837
1702211998821836800,1.0688369140625,-1.3178999423980713,-0.673799991607666,2.3653998374938965
1702211998881836800,1.1288369140625,1.4287999868392944,1.3335999250411987,0.4619999825954437
1702211998941836800,1.1888369140625,0.6316999793052673,4.292500019073486,2.0448999404907227
1702211999001835300,1.248835205078125,0.25609999895095825,1.2616000175476074,0.6366999745368958
1702211999061836800,1.3088369140625,-0.4278999865055084,-0.06059999763965607,-1.2656999826431274
1702211999121836800,1.3688369140625,0.21939998865127563,0.27070000767707825,-0.8468999862670898
1702211999181836800,1.4288369140625,0.13169999420642853,0.1979999989271164,0.30379998683929443
1702211999241836800,1.4888369140625,0.08959999680519104,0.21609999239444733,0.511900007724762
1702211999301836800,1.5488369140625,0.7766000032424927,0.16329999268054962,0.6444999575614929
1702211999361836800,1.6088369140625,0.10199999809265137,0.4318999946117401,-0.1160999983549118
1702211999421836800,1.6688369140625,-0.09099999815225601,0.10099999606609344,-0.6367999911308289
1702211999481836800,1.7288369140625,0.5848999619483948,-0.10559999942779541,-0.4041999876499176
1702211999541836800,1.7888369140625,-1.8417999744415283,-0.6340000033378601,0.613099992275238
1702211999601836800,1.8488369140625,1.389299988746643,0.18039999902248383,0.17819999158382416
1702211999661836800,1.9088369140625,0.2822999954223633,0.07259999960660934,0.0731000006198883
1702211999721836800,1.9688369140625,0.3968999981880188,-1.3306000232696533,-1.1545000076293945
1702211999781836800,2.0288369140625,-0.7688999772071838,0.8400999903678894,-0.2978000044822693
1702211999841836800,2.0888369140625,-0.5155999660491943,1.507200002670288,1.253600001335144
1702211999901836800,2.1488369140625,2.0320000648498535,-0.2994000017642975,0.6193000078201294
1702211999961836800,2.2088369140625,-0.9320999979972839,0.14839999377727509,-1.0485999584197998
1702212000021836800,2.2688369140625,-1.0887999534606934,0.4958999752998352,-0.7178999781608582
1702212000081836800,2.3288369140625,0.02019999921321869,-0.9409999847412109,-0.3287000060081482
1702212000141836800,2.3888369140625,0.065700002014637,-0.1006999984383583,0.06309999525547028
1702212000201836800,2.4488369140625,-1.0430999994277954,-0.156700000166893,0.5472999811172485
1702212000261836800,2.5088369140625,0.5406000018119812,-0.4115999937057495,0.8294000029563904
1702212000321836800,2.5688369140625,-0.7834999561309814,0.39249998331069946,-0.06520000100135803
1702212000381836800,2.6288369140625,-0.960599958896637,-0.21849998831748962,0.07180000096559525
1702212000441836800,2.6888369140625,0.8646000027656555,0.35979998111724854,-1.6098999977111816
1702212000501863400,2.748863525390625,2.0744998455047607,-0.972000002861023,-0.2280000001192093
1702212000561836800,2.8088369140625,0.4649999737739563,-1.1894999742507935,0.9200999736785889
1702212000621836800,2.8688369140625,-1.753600001335144,0.6469999551773071,1.5537999868392944
1702212000681836800,2.9288369140625,-1.8220999240875244,-1.0647000074386597,0.8932999968528748
1702212000741836800,2.9888369140625,1.2381999492645264,0.3658999800682068,1.0270999670028687
1702212000801836800,3.0488369140625,-0.15940000116825104,4.20419979095459,1.4311999082565308
1702212000861836800,3.1088369140625,-0.949999988079071,4.966099739074707,0.48729997873306274
1702212000921836800,3.1688369140625,1.4783999919891357,2.0443999767303467,-1.1556999683380127
1702212000981836800,3.2288369140625,1.4077999591827393,0.2946999967098236,-1.2626999616622925
1702212001041836800,3.2888369140625,-0.3432999849319458,-1.7745999097824097,-1.4844999313354492
1702212001101836800,3.3488369140625,4.1331000328063965,-9.369199752807617,-0.1078999936580658
1702212001161836800,3.4088369140625,-1.6080999374389648,-9.54379940032959,-1.8642998933792114
1702212001221836800,3.4688369140625,-2.9226999282836914,-3.2211999893188477,-0.5717999935150146
1702212001281836800,3.5288369140625,-3.095099925994873,2.0483999252319336,2.1310999393463135
1702212001341836800,3.5888369140625,-3.2960000038146973,7.213099956512451,4.382899761199951
1702212001401836800,3.6488369140625,0.5717999935150146,1.3819999694824219,1.4027999639511108
1702212001461836800,3.7088369140625,-2.8020999431610107,-2.789099931716919,-1.608699917793274
1702212001521836800,3.7688369140625,-1.7131999731063843,-0.7436999678611755,-1.198599934577942
1702212001581836800,3.8288369140625,5.755799770355225,-1.2479000091552734,1.2928999662399292
1702212001641836800,3.8888369140625,3.7616000175476074,0.33799999952316284,-0.777899980545044
1702212001701836800,3.9488369140625,-0.19659999012947083,-0.6818999648094177,2.2676000595092773
1702212001761836800,4.0088369140625,-0.4527999758720398,-0.6575999855995178,-1.8934999704360962
1702212001821836800,4.0688369140625,-1.4793000221252441,0.16859999299049377,-1.051200032234192
1702212001881836800,4.1288369140625,-1.6998000144958496,1.5913000106811523,0.5562999844551086
1702212001941836800,4.1888369140625,-0.2847000062465668,2.570499897003174,0.8359999656677246
1702212002001836800,4.2488369140625,0.45229998230934143,3.402400016784668,6.087199687957764
1702212002061836800,4.3088369140625,4.986700057983398,0.04479999840259552,2.863999843597412
1702212002121836800,4.3688369140625,5.417599678039551,-2.7919998168945312,3.3401999473571777
1702212002181836800,4.4288369140625,2.8172998428344727,-4.547399997711182,0.7620999813079834
1702212002241836800,4.4888369140625,-0.9376999735832214,-3.086199998855591,-0.35519999265670776
1702212002301836800,4.5488369140625,-1.4891999959945679,-2.6524999141693115,-0.08749999850988388
1702212002361836800,4.6088369140625,-1.6718999147415161,-2.467599868774414,-0.576200008392334
1702212002421836800,4.6688369140625,-1.5066999197006226,-2.0167999267578125,-1.4811999797821045
1702212002481836800,4.7288369140625,-1.8681999444961548,-1.465399980545044,-0.9023000001907349
1702212002541836800,4.7888369140625,-1.3574999570846558,-1.0637999773025513,-0.7145000100135803
1702212002601863400,4.848863525390625,-1.8935999870300293,-0.6681999564170837,-1.5755999088287354
1702212002661835300,4.908835205078125,-1.4742000102996826,-0.34849998354911804,-0.877299964427948
1702212002721836800,4.9688369140625,-1.7360999584197998,-0.01850000023841858,-1.0651999711990356
1702212002781836800,5.0288369140625,-1.2339999675750732,-0.04389999806880951,-0.5918999910354614
1702212002841835300,5.088835205078125,-1.0774999856948853,0.22579999268054962,-0.07050000131130219
1702212002901836800,5.1488369140625,-0.37109997868537903,-0.12559999525547028,0.10429999977350235
1702212002961836800,5.2088369140625,-0.15330000221729279,-0.43789997696876526,-0.734499990940094
1702212003021836800,5.2688369140625,-0.26100000739097595,-0.5437999963760376,-0.9519000053405762
1702212003081836800,5.3288369140625,-0.6560999751091003,-0.5029000043869019,-0.8531999588012695
1702212003141836800,5.3888369140625,-0.5031999945640564,-0.4413999915122986,-0.053199999034404755
1702212003201836800,5.4488369140625,-0.23829999566078186,-0.48249998688697815,-0.19409999251365662
1702212003261836800,5.5088369140625,-0.029500000178813934,-0.36640000343322754,0.38040000200271606
1702212003321836800,5.5688369140625,-0.042399998754262924,0.06859999895095825,0.25130000710487366
1702212003381836800,5.6288369140625,-1.288599967956543,-0.4966999888420105,-0.016499999910593033
1702212003441835300,5.688835205078125,-2.1168999671936035,-0.13920000195503235,-0.5108000040054321
1702212003501836800,5.7488369140625,-3.1389999389648438,0.21199999749660492,-0.5607999563217163
1702212003561836800,5.8088369140625,-3.4983999729156494,-1.3991999626159668,-1.1201000213623047
1702212003621836800,5.8688369140625,-1.636299967765808,-2.005499839782715,-0.3245999813079834
1702212003681836800,5.9288369140625,-1.5470999479293823,-0.4390999972820282,-0.15919999778270721
1702212003741835300,5.988835205078125,-2.247499942779541,-0.6556999683380127,-0.32019999623298645
1702212003801836800,6.0488369140625,-3.5344998836517334,0.48979997634887695,-0.19449999928474426
1702212003861836800,6.1088369140625,-6.4253997802734375,-1.017899990081787,-1.1334999799728394
1702212003921836800,6.1688369140625,-10.643899917602539,-7.321499824523926,-0.7110999822616577
1702212003981836800,6.2288369140625,-8.973999977111816,-16.374799728393555,6.9405999183654785
1702212004041836800,6.2888369140625,1.9235999584197998,-10.404399871826172,9.255000114440918
1702212004101836800,6.3488369140625,5.13539981842041,-9.232999801635742,4.444999694824219
1702212004161836800,6.4088369140625,4.215399742126465,-6.064899921417236,1.6483999490737915
1702212004221836800,6.4688369140625,4.775099754333496,-2.22189998626709,2.924499988555908
1702212004281836800,6.5288369140625,5.8780999183654785,-0.601099967956543,7.323400020599365
1702212004341836800,6.5888369140625,5.903500080108643,1.1435999870300293,13.073299407958984
1702212004401836800,6.6488369140625,5.462699890136719,4.319799900054932,10.671099662780762
1702212004461836800,6.7088369140625,3.0195000171661377,4.422999858856201,9.958799362182617
1702212004521836800,6.7688369140625,-1.6489999294281006,3.261399984359741,11.130899429321289
1702212004581836800,6.8288369140625,-4.8292999267578125,-0.6238999962806702,11.329999923706055
1702212004641836800,6.8888369140625,-3.0697999000549316,-5.603699684143066,8.394700050354004
1702212004701863400,6.948863525390625,-1.642899990081787,-6.552199840545654,6.32289981842041
1702212004761836800,7.0088369140625,-4.265500068664551,-7.1682000160217285,3.5114998817443848
1702212004821836800,7.0688369140625,-3.108599901199341,-11.46399974822998,0.39309999346733093
1702212004881836800,7.1288369140625,1.1021000146865845,-10.752999305725098,-2.9026999473571777
1702212004941836800,7.1888369140625,2.813499927520752,-8.26099967956543,-5.930699825286865
1702212005001905700,7.24890576171875,3.092099905014038,-6.967899799346924,-7.734499931335449
1702212005061836800,7.3088369140625,3.5045998096466064,-5.783699989318848,-8.623700141906738
1702212005121835300,7.368835205078125,3.3241000175476074,-6.424599647521973,-8.148300170898438
1702212005181836800,7.4288369140625,2.7711000442504883,-6.960000038146973,-6.000199794769287
1702212005241836800,7.4888369140625,-0.1678999960422516,-9.082099914550781,-3.4933998584747314
1702212005301836800,7.5488369140625,-1.8255999088287354,-11.7076997756958,3.4839999675750732
1702212005361836800,7.6088369140625,-5.6331000328063965,-12.43120002746582,15.811199188232422
1702212005421836800,7.6688369140625,-2.9328999519348145,0.179299995303154,14.569299697875977
1702212005481836800,7.7288369140625,-0.09209999442100525,1.4987999200820923,4.0453996658325195
1702212005541836800,7.7888369140625,1.6220999956130981,3.690199851989746,3.1696999073028564
1702212005601836800,7.8488369140625,-0.17409999668598175,5.911799907684326,6.886099815368652
1702212005661836800,7.9088369140625,-2.1222000122070312,7.372799873352051,9.677800178527832
1702212005721836800,7.9688369140625,-3.1972999572753906,4.699899673461914,6.2714996337890625
1702212005781836800,8.0288369140625,-1.8046998977661133,1.7935999631881714,6.38539981842041
1702212005841836800,8.0888369140625,-0.7044000029563904,-0.7121999859809875,6.414999961853027
1702212005901836800,8.1488369140625,-1.893799901008606,-5.826600074768066,7.457599639892578
1702212005961836800,8.2088369140625,-1.7964999675750732,-7.740999698638916,5.729700088500977
1702212006021836800,8.2688369140625,0.003999999724328518,-9.478799819946289,-3.479300022125244
1702212006081836800,8.3288369140625,-0.36809998750686646,-7.053999900817871,-4.074999809265137
1702212006141836800,8.3888369140625,1.049799919128418,-6.984299659729004,-7.792699813842773
1702212006201836800,8.4488369140625,2.395599842071533,-5.256999969482422,-7.293999671936035
1702212006261836800,8.5088369140625,3.298499822616577,-4.747699737548828,-7.326999664306641
1702212006321836800,8.5688369140625,3.9214999675750732,-4.835000038146973,-6.691499710083008
1702212006381836800,8.6288369140625,3.4056999683380127,-5.7866997718811035,-4.424799919128418
1702212006441836800,8.6888369140625,0.8130999803543091,-7.386099815368652,0.23680000007152557
1702212006501836800,8.7488369140625,-4.694499969482422,-11.281099319458008,8.512199401855469
1702212006561836800,8.8088369140625,-4.9751996994018555,0.614799976348877,18.538700103759766
1702212006621836800,8.8688369140625,-3.345899820327759,-0.044599998742341995,7.244899749755859
1702212006681836800,8.9288369140625,1.112299919128418,1.52239990234375,5.696699619293213
1702212006741835300,8.988835205078125,0.38580000400543213,2.4233999252319336,5.8329997062683105
1702212006801863400,9.048863525390624,-0.8827999830245972,4.436399936676025,5.806999683380127
1702212006861836800,9.1088369140625,-1.3147000074386597,3.749699831008911,3.420099973678589
1702212006921836800,9.1688369140625,-0.526199996471405,0.9791999459266663,3.584699869155884
1702212006981836800,9.2288369140625,-0.9378999471664429,-1.1022000312805176,4.23199987411499
1702212007041836800,9.2888369140625,-1.1375999450683594,-4.067699909210205,5.721499919891357
1702212007101836800,9.3488369140625,-1.420199990272522,-8.459699630737305,5.907399654388428
1702212007161836800,9.4088369140625,1.6606999635696411,-10.240099906921387,0.30390000343322754
1702212007221836800,9.4688369140625,4.264800071716309,-5.029999732971191,-2.888000011444092
1702212007281836800,9.5288369140625,2.600600004196167,-3.950500011444092,-5.780900001525879
1702212007341836800,9.5888369140625,3.8277997970581055,-2.3104000091552734,-7.0428996086120605
1702212007401836800,9.6488369140625,4.484899997711182,-2.8526999950408936,-6.714799880981445
1702212007461836800,9.7088369140625,3.8564000129699707,-4.099400043487549,-5.848199844360352
1702212007521836800,9.7688369140625,2.595899820327759,-5.36959981918335,-3.788299798965454
1702212007581836800,9.8288369140625,1.1779999732971191,-5.897500038146973,-0.013199999928474426
1702212007641836800,9.8888369140625,-2.8589999675750732,-5.6753997802734375,3.7893998622894287
1702212007701836800,9.9488369140625,-5.413699626922607,-7.21429967880249,11.720699310302734
1702212007761836800,10.0088369140625,-4.286900043487549,-0.6762999892234802,13.821999549865723
1702212007821836800,10.0688369140625,-2.660099983215332,4.083699703216553,4.38569974899292
1702212007881836800,10.1288369140625,-2.065199851989746,5.883800029754639,4.515399932861328
1702212007941836800,10.1888369140625,-1.621500015258789,5.193699836730957,5.677700042724609
1702212008001836800,10.2488369140625,-1.6754999160766602,2.8424999713897705,4.378699779510498
1702212008061836800,10.3088369140625,-1.2197999954223633,0.3950999975204468,4.222599983215332
1702212008121836800,10.3688369140625,-0.5417999625205994,-1.3264999389648438,4.81279993057251
1702212008181836800,10.4288369140625,0.5478000044822693,-3.2533998489379883,4.457799911499023
1702212008241836800,10.4888369140625,0.4306999742984772,-4.980199813842773,3.5302000045776367
1702212008301836800,10.5488369140625,0.34289997816085815,-9.171599388122559,1.3473999500274658
1702212008361836800,10.6088369140625,3.9883999824523926,-4.437299728393555,-2.776399850845337
1702212008421836800,10.6688369140625,0.6398999691009521,-3.483299970626831,-4.2291998863220215
1702212008481836800,10.7288369140625,2.6912999153137207,-4.6626996994018555,-7.038300037384033
1702212008541836800,10.7888369140625,3.9963998794555664,-2.6178998947143555,-6.795899868011475
1702212008601836800,10.8488369140625,3.9009997844696045,-3.7311999797821045,-6.047100067138672
1702212008661836800,10.9088369140625,2.9212000370025635,-5.026400089263916,-3.503199815750122
1702212008721836800,10.9688369140625,0.14819999039173126,-7.488800048828125,1.5044000148773193
1702212008781836800,11.0288369140625,-3.567699909210205,-4.105099678039551,7.616299629211426
1702212008841836800,11.0888369140625,-3.399099826812744,3.474299907684326,8.897899627685547
1702212008901863400,11.148863525390626,-2.3413000106811523,-2.857499837875366,4.988999843597412
1702212008961836800,11.2088369140625,-4.32289981842041,-1.6208999156951904,8.331600189208984
1702212009021836800,11.2688369140625,-5.906499862670898,5.960599899291992,8.498700141906738
1702212009081836800,11.3288369140625,-5.193599700927734,2.577199935913086,4.120899677276611
1702212009141836800,11.3888369140625,-2.392400026321411,-0.6527000069618225,4.0229997634887695
1702212009201836800,11.4488369140625,0.6340000033378601,-0.7040999531745911,1.9225999116897583
1702212009261836800,11.5088369140625,1.8632999658584595,-0.6883999705314636,0.555899977684021
1702212009321836800,11.5688369140625,1.6238999366760254,-2.6248998641967773,1.0221999883651733
1702212009381836800,11.6288369140625,2.4595999717712402,-2.9729998111724854,1.9484999179840088
1702212009441836800,11.6888369140625,2.3178999423980713,-2.858299970626831,-0.18559999763965607
1702212009501836800,11.7488369140625,2.349799871444702,-3.6240999698638916,-3.4898998737335205
1702212009561836800,11.8088369140625,1.872999906539917,-7.51609992980957,-6.756199836730957
1702212009621836800,11.8688369140625,0.9178999662399292,-4.986299991607666,-3.471299886703491
1702212009681836800,11.9288369140625,-4.628399848937988,-2.1684999465942383,-2.4026999473571777
1702212009741836800,11.9888369140625,-1.4368000030517578,-2.542099952697754,-0.08889999985694885
1702212009801836800,12.0488369140625,2.089200019836426,-1.319599986076355,0.4553999900817871
1702212009861836800,12.1088369140625,1.798699975013733,-1.1220999956130981,2.314300060272217
1702212009921836800,12.1688369140625,1.0607999563217163,-0.36649999022483826,3.960399866104126
1702212009981836800,12.2288369140625,0.3060999810695648,-0.003599999938160181,2.40339994430542
1702212010041836800,12.2888369140625,0.014599999412894249,1.9767999649047852,1.6007999181747437
1702212010101836800,12.3488369140625,0.1671999990940094,2.1875,3.5444998741149902
1702212010161836800,12.4088369140625,0.6895999908447266,2.199199914932251,5.883199691772461
1702212010221836800,12.4688369140625,-1.9002000093460083,2.837100028991699,6.454400062561035
1702212010281835300,12.528835205078124,-3.6511998176574707,0.7649999856948853,6.306299686431885
1702212010341836800,12.5888369140625,-3.696499824523926,0.9226999878883362,4.933300018310547
1702212010401836800,12.6488369140625,-3.7029998302459717,0.9720999598503113,3.0406999588012695
1702212010461836800,12.7088369140625,-2.126800060272217,-2.635499954223633,2.65310001373291
1702212010521836800,12.7688369140625,1.4119999408721924,-4.108399868011475,2.393399953842163
1702212010581836800,12.8288369140625,2.996999979019165,-3.1198999881744385,0.6789000034332275
1702212010641836800,12.8888369140625,2.477299928665161,-2.6480000019073486,-1.7520999908447266
1702212010701836800,12.9488369140625,2.0727999210357666,-2.3840999603271484,-3.2451000213623047
1702212010761836800,13.0088369140625,1.7382999658584595,-2.1679999828338623,-3.6083998680114746
1702212010821836800,13.0688369140625,1.476199984550476,-1.9098999500274658,-4.1921000480651855
1702212010881836800,13.1288369140625,2.1069998741149902,-3.0697999000549316,-1.8806999921798706
1702212010941836800,13.1888369140625,1.5973999500274658,-1.8356999158859253,0.6421999931335449
1702212011001836800,13.2488369140625,-5.615599632263184,-0.8400999903678894,0.8745999932289124
1702212011061836800,13.3088369140625,-0.7127000093460083,0.19749999046325684,3.7839999198913574
1702212011121836800,13.3688369140625,0.3747999966144562,0.6004999876022339,1.2997000217437744
1702212011181836800,13.4288369140625,-1.4154999256134033,1.7232999801635742,-1.6821999549865723
1702212011241835300,13.488835205078125,-1.570099949836731,1.3287999629974365,-0.5453000068664551
1702212011301836800,13.5488369140625,-1.954699993133545,-0.27309998869895935,0.767799973487854
1702212011361836800,13.6088369140625,-1.0672999620437622,0.319599986076355,1.0049999952316284
1702212011421836800,13.6688369140625,-1.6186999082565308,1.063499927520752,-0.9513999819755554
1702212011481836800,13.7288369140625,-1.5777000188827515,1.455899953842163,-1.2209999561309814
1702212011541836800,13.7888369140625,1.2906999588012695,1.4193999767303467,-1.4767999649047852
1702212011601836800,13.8488369140625,1.5835999250411987,2.0827999114990234,-1.122399926185608
1702212011661836800,13.9088369140625,-0.08429999649524689,0.08139999955892563,-0.6327999830245972
1702212011721836800,13.9688369140625,-2.056299924850464,-3.271699905395508,2.749300003051758
1702212011781836800,14.0288369140625,-2.290599822998047,-3.696699857711792,2.5149998664855957
1702212011841836800,14.0888369140625,-1.125100016593933,-0.49889999628067017,-1.2253999710083008
1702212011901836800,14.1488369140625,-0.7565999627113342,0.5902999639511108,-1.441499948501587
1702212011961836800,14.2088369140625,0.7741999626159668,0.5091999769210815,0.47079998254776
1702212012021836800,14.2688369140625,0.9010999798774719,1.2283999919891357,2.1422998905181885
1702212012081836800,14.3288369140625,0.43129998445510864,2.345900058746338,2.8636999130249023
1702212012141836800,14.3888369140625,-0.6283999681472778,2.086699962615967,4.484099864959717
1702212012201836800,14.4488369140625,-1.101199984550476,1.7914999723434448,4.708699703216553
1702212012261836800,14.5088369140625,-1.3945000171661377,1.5209999084472656,3.494999885559082
1702212012321836800,14.5688369140625,-3.337100028991699,-0.3831000030040741,3.176299810409546
1702212012381836800,14.6288369140625,-1.211899995803833,-2.6826999187469482,-2.142899990081787
1702212012441836800,14.6888369140625,0.035999998450279236,-3.04229998588562,-3.3069000244140625
1702212012501836800,14.7488369140625,-0.4992999732494354,-2.9682998657226562,-2.4465999603271484
1702212012561836800,14.8088369140625,1.8894000053405762,-2.9049999713897705,-2.7316999435424805
1702212012621836800,14.8688369140625,3.1647000312805176,-0.26909998059272766,-2.4826998710632324
1702212012681836800,14.9288369140625,3.3680999279022217,-0.08829999715089798,-0.8948999643325806
1702212012741836800,14.9888369140625,1.979099988937378,0.2231999933719635,0.37359997630119324
1702212012801836800,15.0488369140625,-0.4156000018119812,0.38580000400543213,2.177000045776367
1702212012861836800,15.1088369140625,-1.1886999607086182,1.5403999090194702,3.982100009918213
1702212012921836800,15.1688369140625,-2.019199848175049,3.212399959564209,4.959399700164795
1702212012981836800,15.2288369140625,-1.2056000232696533,2.5717999935150146,4.380499839782715
1702212013041836800,15.2888369140625,-2.726099967956543,-0.945099949836731,11.05739974975586
1702212013101863400,15.348863525390625,-2.7816998958587646,0.8511999845504761,8.63379955291748
1702212013161836800,15.4088369140625,-0.25949999690055847,-1.3473999500274658,4.968800067901611
1702212013221836800,15.4688369140625,0.7526999711990356,-2.1754000186920166,3.5055999755859375
1702212013281836800,15.5288369140625,1.12309992313385,-2.155900001525879,2.218400001525879
1702212013341836800,15.5888369140625,1.8935999870300293,-3.2792999744415283,0.8679999709129333
1702212013401836800,15.6488369140625,2.384699821472168,-3.799499988555908,-0.3937000036239624
1702212013461836800,15.7088369140625,2.3385000228881836,-4.117000102996826,-2.4845998287200928
1702212013521836800,15.7688369140625,2.5140998363494873,-5.673199653625488,-6.154399871826172
1702212013581836800,15.8288369140625,1.1062999963760376,-5.380799770355225,-7.825399875640869
1702212013641836800,15.8888369140625,-0.1867000013589859,-7.613699913024902,-4.991399765014648
1702212013701836800,15.9488369140625,1.0063999891281128,-5.480499744415283,-1.3061999082565308
1702212013761836800,16.0088369140625,-0.5568999648094177,-3.817999839782715,1.4125999212265015
1702212013821836800,16.0688369140625,0.5827999711036682,-2.280400037765503,4.487599849700928
1702212013881836800,16.1288369140625,1.639699935913086,0.21899999678134918,5.985499858856201
1702212013941836800,16.1888369140625,1.223599910736084,1.1318999528884888,5.110199928283691
1702212014001836800,16.2488369140625,0.45909997820854187,1.9591000080108643,5.432399749755859
1702212014061836800,16.3088369140625,-2.4550998210906982,3.218899965286255,5.600499629974365
1702212014121836800,16.3688369140625,-4.189700126647949,6.904899597167969,4.295499801635742
1702212014181836800,16.4288369140625,-5.240200042724609,1.8970999717712402,7.638000011444092
1702212014241836800,16.4888369140625,-3.7724997997283936,-0.16269999742507935,11.098099708557129
1702212014301836800,16.5488369140625,-2.325000047683716,-0.14569999277591705,7.835999965667725
1702212014361836800,16.6088369140625,-0.6725999712944031,0.630299985408783,4.4532999992370605
1702212014421836800,16.6688369140625,-0.6293999552726746,-2.8896000385284424,3.907099962234497
1702212014481836800,16.7288369140625,0.9716999530792236,-3.0937998294830322,4.322000026702881
1702212014541836800,16.7888369140625,2.732800006866455,-2.8348000049591064,3.0769999027252197
1702212014601836800,16.8488369140625,3.8463997840881348,-3.9807000160217285,1.6746000051498413
1702212014661836800,16.9088369140625,4.100800037384033,-4.869999885559082,-0.39249998331069946
1702212014721836800,16.9688369140625,2.2065999507904053,-5.432199954986572,-1.886299967765808
1702212014781836800,17.0288369140625,2.0580999851226807,-5.78410005569458,-4.981899738311768
1702212014841835300,17.088835205078126,2.7445998191833496,-7.347499847412109,-8.649399757385254
1702212014901836800,17.1488369140625,0.9259999990463257,-5.639800071716309,-6.413300037384033
1702212014961836800,17.2088369140625,-0.7286999821662903,-4.231400012969971,-4.107800006866455
1702212015021836800,17.2688369140625,1.747499942779541,-8.23289966583252,-1.3162000179290771
1702212015081836800,17.3288369140625,1.539199948310852,-6.764699935913086,3.919999837875366
1702212015141836800,17.3888369140625,-1.3478999137878418,-1.942599892616272,10.02299976348877
1702212015201836800,17.4488369140625,-1.2319999933242798,0.29109999537467957,5.102099895477295
1702212015261836800,17.5088369140625,2.159899950027466,0.9225999712944031,3.5872998237609863
1702212015321836800,17.5688369140625,3.044600009918213,1.889699935913086,5.889999866485596
1702212015381836800,17.6288369140625,0.2696000039577484,2.2091000080108643,12.040299415588379
1702212015441836800,17.6888369140625,-1.8535000085830688,3.4933998584747314,9.888199806213379
1702212015501836800,17.7488369140625,-3.206199884414673,1.330299973487854,11.97819995880127
1702212015561836800,17.8088369140625,-2.1926000118255615,1.5055999755859375,8.322599411010742
1702212015621836800,17.8688369140625,-1.0240999460220337,-1.5829999446868896,6.405999660491943
1702212015681836800,17.9288369140625,0.04270000010728836,-3.469399929046631,4.5441999435424805
1702212015741836800,17.9888369140625,-0.7358999848365784,-4.739299774169922,1.8931999206542969
1702212015801836800,18.0488369140625,0.16409999132156372,-4.84529972076416,-0.0681999996304512
1702212015861835300,18.108835205078126,3.010999917984009,-5.236599922180176,-0.7324000000953674
1702212015921836800,18.1688369140625,3.3683998584747314,-4.957399845123291,-3.172799825668335
1702212015981836800,18.2288369140625,2.8711998462677,-5.655900001525879,-6.5100998878479
1702212016041836800,18.2888369140625,2.1138999462127686,-5.833799839019775,-7.447000026702881
1702212016101836800,18.3488369140625,0.8583999872207642,-7.4564995765686035,-5.939499855041504
1702212016161836800,18.4088369140625,0.44179999828338623,-4.7453999519348145,-3.198699951171875
1702212016221836800,18.4688369140625,-1.8380999565124512,-7.361199855804443,-0.16449999809265137
1702212016281836800,18.5288369140625,1.2028999328613281,-5.872600078582764,2.2416999340057373
1702212016341836800,18.5888369140625,0.051500000059604645,-3.8838999271392822,4.783799648284912
1702212016401836800,18.6488369140625,-0.7382000088691711,-0.5694999694824219,6.473899841308594
1702212016461836800,18.7088369140625,-0.702299952507019,1.1100000143051147,6.062099933624268
1702212016521836800,18.7688369140625,-1.8643999099731445,4.107800006866455,6.906799793243408
1702212016581836800,18.8288369140625,-2.9654998779296875,4.857199668884277,10.372599601745605
1702212016641836800,18.8888369140625,-2.4607999324798584,3.585599899291992,9.592199325561523
1702212016701836800,18.9488369140625,-1.7188999652862549,1.612299919128418,7.8740997314453125
1702212016761836800,19.0088369140625,-1.4320999383926392,0.057999998331069946,9.242499351501465
1702212016821836800,19.0688369140625,-1.8780999183654785,-0.3662000000476837,6.6656999588012695
1702212016881836800,19.1288369140625,-1.2591999769210815,-4.5432000160217285,6.368499755859375
1702212016941836800,19.1888369140625,0.07039999961853027,-4.720399856567383,5.577699661254883
1702212017001836800,19.2488369140625,1.4465999603271484,-4.148499965667725,3.0376999378204346
1702212017061836800,19.3088369140625,3.166100025177002,-4.896999835968018,1.0827000141143799
1702212017121836800,19.3688369140625,3.9598000049591064,-5.560100078582764,-0.7357999682426453
1702212017181836800,19.4288369140625,3.9972000122070312,-5.218599796295166,-3.111799955368042
1702212017241836800,19.4888369140625,3.571199893951416,-5.472799777984619,-5.308399677276611
1702212017301836800,19.5488369140625,3.2653000354766846,-5.529699802398682,-6.718099594116211
1702212017361836800,19.6088369140625,1.7109999656677246,-7.337199687957764,-6.999300003051758
1702212017421836800,19.6688369140625,1.3628000020980835,-6.788399696350098,-4.252599716186523
1702212017481836800,19.7288369140625,-1.3776999711990356,-7.566099643707275,-1.2660999298095703
1702212017541836800,19.7888369140625,-2.113800048828125,-7.823899745941162,3.4280998706817627
1702212017601836800,19.8488369140625,-1.094499945640564,-2.0127999782562256,7.167699813842773
1702212017661836800,19.9088369140625,-0.6571999788284302,-0.366599977016449,4.896999835968018
1702212017721836800,19.9688369140625,-0.21549999713897705,0.44529998302459717,4.752999782562256
1702212017781836800,20.0288369140625,-0.5275999903678894,1.7220999002456665,7.807999610900879
1702212017841836800,20.0888369140625,-2.113100051879883,3.4276998043060303,7.977499961853027
1702212017901836800,20.1488369140625,-3.6432998180389404,2.6273000240325928,5.608799934387207
1702212017961836800,20.2088369140625,-4.671499729156494,3.7129998207092285,4.560499668121338
1702212018021836800,20.2688369140625,-4.8526997566223145,4.0945000648498535,5.716399669647217
1702212018081836800,20.3288369140625,-5.822999954223633,0.24449999630451202,8.109000205993652
1702212018141836800,20.3888369140625,-4.717700004577637,2.0428998470306396,8.446700096130371
1702212018201836800,20.4488369140625,-2.656100034713745,-3.572999954223633,7.140699863433838
1702212018261836800,20.5088369140625,0.42229998111724854,-4.776099681854248,6.353600025177002
1702212018321835300,20.568835205078123,1.8949999809265137,-4.108699798583984,3.467099905014038
1702212018381836800,20.6288369140625,2.80649995803833,-4.993899822235107,1.2207999229431152
1702212018441836800,20.6888369140625,3.3892998695373535,-4.905900001525879,0.06889999657869339
1702212018501836800,20.7488369140625,2.775899887084961,-5.491099834442139,-2.408799886703491
1702212018561836800,20.8088369140625,2.499199867248535,-5.739099979400635,-3.4804999828338623
1702212018621836800,20.8688369140625,1.7675999402999878,-5.684199810028076,-9.26200008392334
1702212018681836800,20.9288369140625,0.0982000008225441,-8.91189956665039,-6.824100017547607
1702212018741836800,20.9888369140625,0.09039999544620514,-6.72189998626709,-2.9049999713897705
1702212018801836800,21.0488369140625,-1.1083999872207642,-5.97629976272583,0.09399999678134918
1702212018861836800,21.1088369140625,-0.1264999955892563,-3.277599811553955,1.2303999662399292
1702212018921836800,21.1688369140625,-0.5896999835968018,-1.6227999925613403,5.390599727630615
1702212018981836800,21.2288369140625,-0.1152999997138977,-0.9115999937057495,7.77839994430542
1702212019041836800,21.2888369140625,0.21359999477863312,1.340499997138977,5.376399993896484
1702212019101836800,21.3488369140625,-1.597999930381775,4.543799877166748,5.845799922943115
1702212019161836800,21.4088369140625,-3.7760000228881836,4.956699848175049,7.713699817657471
1702212019221836800,21.4688369140625,-5.392099857330322,3.6952998638153076,10.03380012512207
1702212019281836800,21.5288369140625,-3.43179988861084,2.91729998588562,7.300699710845947
1702212019341836800,21.5888369140625,-0.9546999931335449,3.549799919128418,4.979000091552734
1702212019401863400,21.648863525390624,-3.770900011062622,-2.0369999408721924,7.6128997802734375
1702212019461836800,21.7088369140625,-4.317699909210205,-6.853499889373779,9.223199844360352
1702212019521836800,21.7688369140625,0.12079999595880508,-5.838900089263916,5.291399955749512
1702212019581836800,21.8288369140625,2.640199899673462,-4.203999996185303,0.5536999702453613
1702212019641836800,21.8888369140625,3.84689998626709,-4.591899871826172,-2.2239999771118164
1702212019701836800,21.9488369140625,4.8578996658325195,-5.44849967956543,-4.374300003051758
1702212019761836800,22.0088369140625,4.1184000968933105,-4.291399955749512,-5.411399841308594
1702212019821836800,22.0688369140625,3.603099822998047,-3.830599784851074,-6.206999778747559
1702212019881836800,22.1288369140625,2.909600019454956,-5.830499649047852,-5.867199897766113
1702212019941836800,22.1888369140625,0.47439998388290405,-8.673999786376953,-4.137099742889404
1702212020001836800,22.2488369140625,-0.7425000071525574,-7.405399799346924,-0.8618999719619751
1702212020061836800,22.3088369140625,-4.587199687957764,-6.082299709320068,2.557299852371216
1702212020121836800,22.3688369140625,-3.568699836730957,-1.7728999853134155,7.213299751281738
1702212020181836800,22.4288369140625,-1.3720999956130981,1.7192000150680542,3.222299814224243
1702212020241836800,22.4888369140625,-0.8384999632835388,1.9982999563217163,0.8205999732017517
1702212020301836800,22.5488369140625,-0.0803999975323677,1.4701999425888062,3.824399948120117
1702212020361836800,22.6088369140625,-2.6791000366210938,2.827199935913086,8.100799560546875
1702212020421836800,22.6688369140625,-2.2045998573303223,4.3018999099731445,6.068299770355225
1702212020481836800,22.7288369140625,-1.7299998998641968,3.3255999088287354,3.687299966812134
1702212020541836800,22.7888369140625,-2.7296998500823975,0.16859999299049377,5.926499843597412
1702212020601836800,22.8488369140625,-4.009500026702881,-1.6134999990463257,8.114999771118164
1702212020661836800,22.9088369140625,-0.6157999634742737,-0.6794999837875366,3.8559999465942383
1702212020721836800,22.9688369140625,0.5629000067710876,-1.6155999898910522,0.8589999675750732
1702212020781836800,23.0288369140625,1.6983999013900757,-1.3817999362945557,-1.789099931716919
1702212020841836800,23.0888369140625,1.906499981880188,-0.4551999866962433,-2.016200065612793
1702212020901836800,23.1488369140625,-0.6711999773979187,-0.9679999947547913,-2.813999891281128
1702212020961836800,23.2088369140625,-5.8541998863220215,0.24329999089241028,3.814199924468994
1702212021021836800,23.2688369140625,-0.8596999645233154,-0.11840000003576279,3.426499843597412
1702212021081836800,23.3288369140625,0.8937000036239624,-3.2149999141693115,-0.7864999771118164
1702212021141836800,23.3888369140625,4.0142998695373535,-2.52810001373291,-2.7832000255584717
1702212021201836800,23.4488369140625,4.393799781799316,-4.913899898529053,-5.9355998039245605
1702212021261836800,23.5088369140625,2.926800012588501,-7.0081000328063965,-4.190400123596191
1702212021321836800,23.5688369140625,3.7637999057769775,-7.905399799346924,-3.1575000286102295
1702212021381836800,23.6288369140625,2.259399890899658,-4.014599800109863,-1.3911999464035034
1702212021441836800,23.6888369140625,0.6198999881744385,-3.076900005340576,-0.5224999785423279
1702212021501863400,23.748863525390625,1.0188000202178955,-4.32289981842041,1.942699909210205
1702212021561836800,23.8088369140625,-2.7639000415802,-3.8230998516082764,7.114500045776367
1702212021621836800,23.8688369140625,-8.619099617004395,4.054100036621094,12.161099433898926
1702212021681836800,23.9288369140625,-9.639100074768066,5.566400051116943,5.8572998046875
1702212021741836800,23.9888369140625,-9.927299499511719,6.310800075531006,8.79990005493164
1702212021801836800,24.0488369140625,-7.869699954986572,2.3861000537872314,8.898900032043457
1702212021861836800,24.1088369140625,-4.862799644470215,-0.6954999566078186,9.836699485778809
1702212021921836800,24.1688369140625,-0.683899998664856,-2.594899892807007,6.674499988555908
1702212021981836800,24.2288369140625,-0.0810999944806099,-3.616999864578247,4.1427998542785645
1702212022041836800,24.2888369140625,-0.9044999480247498,-7.042199611663818,5.553299903869629
1702212022101836800,24.3488369140625,1.983199954032898,-5.969799995422363,4.354099750518799
1702212022161836800,24.4088369140625,2.8558998107910156,-5.765899658203125,0.23469999432563782
1702212022221865000,24.468864990234376,1.9056999683380127,-7.215699672698975,-3.2095999717712402
1702212022281836800,24.5288369140625,2.4212000370025635,-5.870999813079834,-6.067599773406982
1702212022341836800,24.5888369140625,2.4845998287200928,-4.513599872589111,-9.226200103759766
1702212022401836800,24.6488369140625,1.254699945449829,-5.389699935913086,-12.183599472045898
1702212022461836800,24.7088369140625,0.18649999797344208,-7.048499584197998,-8.104399681091309
1702212022521836800,24.7688369140625,0.2531000077724457,-8.878600120544434,-4.743000030517578
1702212022581836800,24.8288369140625,-1.5511999130249023,-15.333399772644043,2.1582000255584717
1702212022641836800,24.8888369140625,-2.0312998294830322,-12.387199401855469,12.273099899291992
1702212022701836800,24.9488369140625,-1.4536999464035034,-1.7411999702453613,9.45419979095459
1702212022761836800,25.0088369140625,-0.5780999660491943,-0.5976999998092651,1.6047999858856201
1702212022821836800,25.0688369140625,2.374500036239624,0.20260000228881836,4.165899753570557
1702212022881836800,25.1288369140625,1.5223000049591064,-0.3000999987125397,11.53380012512207
1702212022941836800,25.1888369140625,-0.42890000343322754,6.146599769592285,13.921499252319336
1702212023001836800,25.2488369140625,-2.075399875640869,5.254899978637695,7.24459981918335
1702212023061836800,25.3088369140625,-3.8992998600006104,4.091000080108643,9.690999984741211
1702212023121836800,25.3688369140625,-6.474499702453613,-0.6966999769210815,12.590700149536133
1702212023181836800,25.4288369140625,-3.8601999282836914,-1.0131999254226685,9.661099433898926
1702212023241836800,25.4888369140625,-2.7588999271392822,-6.713299751281738,7.927399635314941
1702212023301836800,25.5488369140625,-0.7410999536514282,-6.9315996170043945,7.52869987487793
1702212023361836800,25.6088369140625,0.4327999949455261,-6.513099670410156,3.3940999507904053
1702212023421836800,25.6688369140625,2.224599838256836,-7.834799766540527,1.0707999467849731
1702212023481836800,25.7288369140625,3.3040997982025146,-7.369799613952637,-1.389299988746643
1702212023541836800,25.7888369140625,4.45359992980957,-6.058300018310547,-5.405600070953369
1702212023601836800,25.8488369140625,3.9621999263763428,-8.396599769592285,-8.401599884033203
1702212023661836800,25.9088369140625,2.7955000400543213,-8.666600227355957,-8.570599555969238
1702212023721836800,25.9688369140625,3.4763998985290527,-9.967100143432617,-7.4944000244140625
1702212023781836800,26.0288369140625,1.5241999626159668,-11.513799667358398,-2.7832000255584717
1702212023841836800,26.0888369140625,-2.9183998107910156,-13.03030014038086,1.5580999851226807
1702212023901836800,26.1488369140625,-1.618899941444397,-7.825799942016602,8.275599479675293
1702212023961836800,26.2088369140625,-3.7224998474121094,-1.3590999841690063,11.259499549865723
1702212024021836800,26.2688369140625,-3.8701999187469482,-1.7292999029159546,4.328499794006348
1702212024081836800,26.3288369140625,-3.370699882507324,0.9923999905586243,5.62339973449707
1702212024141836800,26.3888369140625,-5.368899822235107,2.929299831390381,8.415599822998047
1702212024201836800,26.4488369140625,-7.040299892425537,3.3586997985839844,10.634599685668945
1702212024261836800,26.5088369140625,-8.78950023651123,1.6541999578475952,11.22819995880127
1702212024321836800,26.5688369140625,-6.615799903869629,3.2365000247955322,7.489500045776367
1702212024381836800,26.6288369140625,-5.253399848937988,2.7105000019073486,4.09119987487793
1702212024441836800,26.6888369140625,-4.488100051879883,1.723599910736084,2.015399932861328
1702212024501835300,26.748835205078127,-4.284999847412109,-1.6303999423980713,7.700099945068359
1702212024561836800,26.8088369140625,-0.42069998383522034,-4.746699810028076,19.039098739624023
1702212024621836800,26.8688369140625,2.22409987449646,-12.513699531555176,8.586899757385254
1702212024681836800,26.9288369140625,2.5599000453948975,-12.70829963684082,2.5386998653411865
1702212024741836800,26.9888369140625,3.4472999572753906,-9.835399627685547,-2.797999858856201
1702212024801836800,27.0488369140625,2.353600025177002,-9.459400177001953,-6.745599746704102
1702212024861836800,27.1088369140625,2.6689000129699707,-10.836899757385254,-17.365299224853516
1702212024921836800,27.1688369140625,-1.3219000101089478,-11.329299926757812,-5.034299850463867
1702212024981836800,27.2288369140625,-2.19599986076355,-9.456500053405762,-6.146899700164795
1702212025041836800,27.2888369140625,0.7475000023841858,-9.87459945678711,-2.8070998191833496
1702212025101836800,27.3488369140625,0.42639997601509094,-8.830900192260742,0.8662999868392944
1702212025161836800,27.4088369140625,-1.1970999240875244,-9.244699478149414,8.02239990234375
1702212025221836800,27.4688369140625,-0.8209999799728394,-2.5379998683929443,11.675399780273438
1702212025281836800,27.5288369140625,0.002099999925121665,-1.2396999597549438,6.257299900054932
1702212025341836800,27.5888369140625,-0.47049999237060547,2.1661999225616455,9.843599319458008
1702212025401836800,27.6488369140625,-0.7479999661445618,5.295599937438965,16.614700317382812
1702212025461836800,27.7088369140625,-1.4886999130249023,4.657199859619141,12.900899887084961
1702212025521836800,27.7688369140625,-2.9240000247955322,2.781100034713745,13.422399520874023
1702212025581836800,27.8288369140625,-1.9645999670028687,-2.5416998863220215,11.453700065612793
1702212025641836800,27.8888369140625,-0.816100001335144,-3.7042999267578125,7.774899959564209
1702212025701863400,27.948863525390625,-1.3586000204086304,-3.7542998790740967,3.18149995803833
1702212025761836800,28.0088369140625,-1.8751999139785767,-5.300099849700928,-0.4274999797344208
1702212025821836800,28.0688369140625,0.46639999747276306,-6.697199821472168,0.7032999992370605
1702212025881836800,28.1288369140625,1.6160999536514282,-7.411499977111816,-0.18649999797344208
1702212025941836800,28.1888369140625,3.3648998737335205,-6.765199661254883,-4.281099796295166
1702212026001836800,28.2488369140625,2.9968998432159424,-6.558300018310547,-7.018599987030029
1702212026061836800,28.3088369140625,2.7916998863220215,-7.369799613952637,-7.396399974822998
1702212026121836800,28.3688369140625,2.66759991645813,-7.933599948883057,-5.047699928283691
1702212026181836800,28.4288369140625,1.6818000078201294,-10.12809944152832,-3.262699842453003
1702212026241836800,28.4888369140625,-0.42170000076293945,-8.166999816894531,-0.08190000057220459
1702212026301836800,28.5488369140625,-1.6164000034332275,-5.16409969329834,4.114099979400635
1702212026361836800,28.6088369140625,-3.016700029373169,0.373199999332428,10.00220012664795
1702212026421836800,28.6688369140625,-4.047999858856201,0.6196999549865723,5.683700084686279
1702212026481836800,28.7288369140625,-2.7871999740600586,6.781599998474121,9.407699584960938
1702212026541836800,28.7888369140625,-2.5820999145507812,7.786099910736084,12.948100090026855
1702212026601836800,28.8488369140625,-4.509999752044678,5.765399932861328,12.285399436950684
1702212026661836800,28.9088369140625,-2.8066999912261963,2.4848999977111816,10.433099746704102
1702212026721836800,28.9688369140625,-1.2073999643325806,-2.222899913787842,10.89900016784668
1702212026781836800,29.0288369140625,0.04319999739527702,-2.873800039291382,5.882299900054932
1702212026841836800,29.0888369140625,-0.021199999377131462,-4.030200004577637,1.8176000118255615
1702212026901836800,29.1488369140625,0.7121999859809875,-5.654699802398682,0.2442999929189682
1702212026961836800,29.2088369140625,1.2965999841690063,-5.2089996337890625,-1.2114999294281006
1702212027021836800,29.2688369140625,1.5529999732971191,-6.331199645996094,-2.805999994277954
1702212027081836800,29.3288369140625,2.8178000450134277,-8.0802001953125,-5.165599822998047
1702212027141836800,29.3888369140625,2.9684998989105225,-8.55210018157959,-8.901700019836426
1702212027201836800,29.4488369140625,1.5091999769210815,-8.289599418640137,-7.115699768066406
1702212027261836800,29.5088369140625,0.2272000014781952,-9.557299613952637,-2.800999879837036
1702212027321836800,29.5688369140625,-0.8245999813079834,-10.486199378967285,1.334999918937683
1702212027381836800,29.6288369140625,-1.7773000001907349,-5.264400005340576,6.761099815368652
1702212027441836800,29.6888369140625,-2.3069000244140625,0.7652999758720398,9.757699966430664
1702212027501836800,29.7488369140625,-1.3422999382019043,-0.23770000040531158,3.655900001525879
1702212027561836800,29.8088369140625,-0.9322999715805054,2.499300003051758,6.742499828338623
1702212027621836800,29.8688369140625,-4.065799713134766,4.382499694824219,10.367300033569336
1702212027681836800,29.9288369140625,-5.648699760437012,5.082299709320068,9.648200035095215
1702212027741836800,29.9888369140625,-6.48259973526001,4.95419979095459,9.297599792480469
1702212027801863400,30.048863525390626,-6.487499713897705,1.9824999570846558,10.845099449157715
1702212027861836800,30.1088369140625,-4.616300106048584,-4.382199764251709,8.894100189208984
1702212027921836800,30.1688369140625,-1.1865999698638916,-6.461699962615967,6.554299831390381
1702212027981836800,30.2288369140625,1.9726999998092651,-3.9442999362945557,2.42549991607666
1702212028041836800,30.2888369140625,2.295599937438965,-4.350899696350098,-0.15060000121593475
1702212028101836800,30.3488369140625,3.205399990081787,-6.101199626922607,-0.6033999919891357
1702212028161836800,30.4088369140625,4.073299884796143,-5.400099754333496,-0.8988999724388123
1702212028221836800,30.4688369140625,4.031199932098389,-6.576099872589111,-4.072099685668945
1702212028281836800,30.5288369140625,4.958199977874756,-6.601399898529053,-10.47439956665039
1702212028341836800,30.5888369140625,1.413599967956543,-7.980199813842773,-8.155900001525879
1702212028401836800,30.6488369140625,1.011199951171875,-7.767699718475342,-1.979599952697754
1702212028461836800,30.7088369140625,-2.0067999362945557,-6.722899913787842,0.9353999495506287
1702212028521836800,30.7688369140625,-1.1962999105453491,-4.002500057220459,2.549299955368042
1702212028581836800,30.8288369140625,-1.4738999605178833,0.5647000074386597,3.4276998043060303
1702212028641836800,30.8888369140625,-5.775300025939941,1.7674999237060547,8.817699432373047
1702212028701836800,30.9488369140625,-6.557600021362305,3.5351998805999756,10.657699584960938
1702212028761836800,31.0088369140625,-4.346099853515625,6.332599639892578,7.041100025177002
1702212028821836800,31.0688369140625,-0.16259999573230743,5.98769998550415,3.986999988555908
1702212028881836800,31.1288369140625,-1.3799999952316284,2.7383999824523926,8.200399398803711
1702212028941836800,31.1888369140625,-4.513400077819824,1.6478999853134155,12.387700080871582
1702212029001836800,31.2488369140625,-4.14300012588501,-3.8289999961853027,7.398200035095215
1702212029061836800,31.3088369140625,-0.6035000085830688,-3.369999885559082,4.391900062561035
1702212029121836800,31.3688369140625,0.6531999707221985,-3.4973998069763184,1.1897000074386597
1702212029181836800,31.4288369140625,1.5413999557495117,-6.398200035095215,0.4619999825954437
1702212029241836800,31.4888369140625,2.6960999965667725,-7.6545000076293945,-1.5343999862670898
1702212029301836800,31.5488369140625,2.845399856567383,-6.800099849700928,-4.024699687957764
1702212029361836800,31.6088369140625,4.600800037384033,-4.786299705505371,-10.652799606323242
1702212029421836800,31.6688369140625,1.1075999736785889,-9.882899284362793,-8.371899604797363
1702212029481836800,31.7288369140625,0.39659997820854187,-12.275400161743164,-3.166599988937378
1702212029541836800,31.7888369140625,-1.7487999200820923,-9.273499488830566,1.0458999872207642
1702212029601836800,31.8488369140625,-3.4914000034332275,-6.089399814605713,2.9420998096466064
1702212029661836800,31.9088369140625,-1.2985999584197998,-0.8636999726295471,4.977200031280518
1702212029721836800,31.9688369140625,-0.6119999885559082,0.4407999813556671,4.712800025939941
1702212029781836800,32.0288369140625,-0.28049999475479126,0.29789999127388,6.086299896240234
1702212029841836800,32.0888369140625,-2.969399929046631,4.212800025939941,8.573599815368652
1702212029901863400,32.148863525390624,-4.338399887084961,6.089699745178223,10.022199630737305
1702212029961836800,32.2088369140625,-2.6022000312805176,2.3975000381469727,8.953899383544922
1702212030021836800,32.2688369140625,-2.0309998989105225,1.2798999547958374,7.85290002822876
1702212030081836800,32.3288369140625,-3.366299867630005,0.7422999739646912,7.763799667358398
1702212030141836800,32.3888369140625,-3.509899854660034,-0.545199990272522,4.85759973526001
1702212030201836800,32.4488369140625,-1.569599986076355,-2.517699956893921,2.0140998363494873
1702212030261836800,32.5088369140625,0.9540999531745911,-2.0288000106811523,0.4805999994277954
1702212030321836800,32.5688369140625,1.3025000095367432,-2.184499979019165,0.09009999781847
1702212030381836800,32.6288369140625,2.2560999393463135,-1.2213000059127808,-0.4919999837875366
1702212030441836800,32.6888369140625,3.012399911880493,-4.938399791717529,-1.2264000177383423
1702212030501836800,32.7488369140625,3.9144999980926514,-6.980499744415283,-3.147899866104126
1702212030561836800,32.8088369140625,1.4850000143051147,-8.527899742126465,-8.785599708557129
1702212030621836800,32.8688369140625,1.011699914932251,-8.702899932861328,-9.347700119018555
1702212030681836800,32.9288369140625,-0.5511000156402588,-7.348700046539307,0.32919999957084656
1702212030741836800,32.9888369140625,-0.2970999777317047,-4.9079999923706055,2.8638999462127686
1702212030801836800,33.0488369140625,-0.5002999901771545,0.26980000734329224,4.754199981689453
1702212030861836800,33.1088369140625,-0.9505999684333801,2.0521998405456543,4.6352996826171875
1702212030921836800,33.1688369140625,-1.687600016593933,2.1494998931884766,6.49970006942749
1702212030981836800,33.2288369140625,-0.2483999878168106,6.315999984741211,6.110699653625488
1702212031041836800,33.2888369140625,0.22739998996257782,3.5013999938964844,7.566399574279785
1702212031101836800,33.3488369140625,-0.6047999858856201,1.9117000102996826,11.83489990234375
1702212031161836800,33.4088369140625,-2.728799819946289,-0.3667999804019928,8.97599983215332
1702212031221836800,33.4688369140625,-2.7107999324798584,0.29989999532699585,6.418799877166748
1702212031281836800,33.5288369140625,-3.4579999446868896,-4.395999908447266,6.318999767303467
1702212031341836800,33.5888369140625,-0.7782999873161316,-3.506199836730957,1.6531000137329102
1702212031401836800,33.6488369140625,1.4194999933242798,-2.27020001411438,-1.8270999193191528
1702212031461836800,33.7088369140625,2.728299856185913,-2.4426000118255615,-3.4512999057769775
1702212031521836800,33.7688369140625,2.745800018310547,-3.006999969482422,-3.8178999423980713
1702212031581836800,33.8288369140625,2.758999824523926,-3.0837998390197754,-3.208599805831909
1702212031641836800,33.8888369140625,1.9923999309539795,-4.035599708557129,-3.0116000175476074
1702212031701836800,33.9488369140625,0.20170000195503235,-4.720099925994873,-3.2825000286102295
1702212031761836800,34.0088369140625,0.27699998021125793,-9.780900001525879,-3.4071998596191406
1702212031821836800,34.0688369140625,-0.02630000002682209,-4.1419997215271,-0.2683999836444855
1702212031881836800,34.1288369140625,-3.5256998538970947,-2.941699981689453,0.7802000045776367
1702212031941836800,34.1888369140625,-1.354599952697754,0.5338999629020691,3.1116998195648193
1702212032001863400,34.248863525390625,-0.7389999628067017,2.8541998863220215,3.496299982070923
1702212032061836800,34.3088369140625,-0.020600000396370888,2.6180999279022217,2.9467999935150146
1702212032121836800,34.3688369140625,-1.7043999433517456,2.8780999183654785,4.587699890136719
1702212032181836800,34.4288369140625,-3.165599822998047,5.844399929046631,4.810999870300293
1702212032241836800,34.4888369140625,-3.1459999084472656,4.343599796295166,3.894399881362915
1702212032301836800,34.5488369140625,-2.965399980545044,1.8651999235153198,5.333499908447266
1702212032361836800,34.6088369140625,-5.87470006942749,2.3962998390197754,9.336400032043457
1702212032421836800,34.6688369140625,-5.658999919891357,-1.0361000299453735,6.454899787902832
1702212032481836800,34.7288369140625,-3.2776999473571777,-4.24839973449707,6.8043999671936035
1702212032541836800,34.7888369140625,0.17319999635219574,-2.674499988555908,3.615799903869629
1702212032601836800,34.8488369140625,1.0194000005722046,-3.3534998893737793,0.4400999844074249
1702212032661836800,34.9088369140625,2.07889986038208,-5.3643999099731445,-1.041700005531311
1702212032721836800,34.9688369140625,3.0209999084472656,-4.944699764251709,-2.908900022506714
1702212032781836800,35.0288369140625,3.1342999935150146,-4.693900108337402,-6.095799922943115
1702212032841836800,35.0888369140625,3.998199939727783,-4.857699871063232,-9.746399879455566
1702212032901836800,35.1488369140625,0.8910999894142151,-7.197499752044678,-6.238999843597412
1702212032961836800,35.2088369140625,-1.6023999452590942,-10.212200164794922,-2.469599962234497
1702212033021836800,35.2688369140625,-1.4503999948501587,-8.675899505615234,-0.3942999839782715
1702212033081836800,35.3288369140625,-3.5543999671936035,-7.739199638366699,2.958899974822998
1702212033141836800,35.3888369140625,-1.277400016784668,-1.115299940109253,4.979300022125244
1702212033201836800,35.4488369140625,-0.11299999803304672,1.6380000114440918,3.0946998596191406
1702212033261836800,35.5088369140625,-2.399600028991699,0.5601999759674072,6.21589994430542
1702212033321836800,35.5688369140625,-2.697399854660034,4.848899841308594,14.739500045776367
1702212033381836800,35.6288369140625,0.9359999895095825,5.649299621582031,11.880599975585938
1702212033441836800,35.6888369140625,0.5406999588012695,4.017399787902832,10.628899574279785
1702212033501836800,35.7488369140625,-4.370500087738037,3.0996999740600586,8.82919979095459
1702212033561836800,35.8088369140625,-4.75600004196167,-2.8479998111724854,11.649099349975586
1702212033621836800,35.8688369140625,-1.1942999362945557,-5.818899631500244,9.538999557495117
1702212033681836800,35.9288369140625,0.5055999755859375,-3.21560001373291,2.5834999084472656
1702212033741836800,35.9888369140625,0.7953000068664551,-5.601999759674072,-0.4310999810695648
1702212033801836800,36.0488369140625,2.6629998683929443,-7.213299751281738,0.7568999528884888
1702212033861836800,36.1088369140625,3.021699905395508,-6.440799713134766,-1.3641999959945679
1702212033921836800,36.1688369140625,4.00469970703125,-8.07699966430664,-4.720999717712402
1702212033981836800,36.2288369140625,4.5204997062683105,-7.874300003051758,-9.76099967956543
1702212034041836800,36.2888369140625,0.9945999979972839,-8.782400131225586,-9.568099975585938
1702212034101863400,36.34886352539063,1.142199993133545,-9.207900047302246,-3.6305999755859375
1702212034161836800,36.4088369140625,-0.5722000002861023,-10.723099708557129,1.705199956893921
1702212034221836800,36.4688369140625,-0.7049999833106995,-6.145899772644043,3.8100998401641846
1702212034281836800,36.5288369140625,-1.4193999767303467,-2.6389999389648438,5.5346999168396
1702212034341836800,36.5888369140625,-2.164799928665161,-0.6270999908447266,5.148699760437012
1702212034401836800,36.6488369140625,-4.293999671936035,1.8049999475479126,9.304699897766113
1702212034461836800,36.7088369140625,-1.5590999126434326,6.559000015258789,12.445599555969238
1702212034521836800,36.7688369140625,-0.38359999656677246,6.692800045013428,11.522199630737305
1702212034581836800,36.8288369140625,-3.2344000339508057,5.200799942016602,11.13659954071045
1702212034641836800,36.8888369140625,-4.330199718475342,3.081399917602539,10.020500183105469
1702212034701836800,36.9488369140625,-2.958199977874756,-3.8524999618530273,9.159799575805664
1702212034761836800,37.0088369140625,-2.9779999256134033,-6.830100059509277,8.316699981689453
1702212034821836800,37.0688369140625,-1.9327999353408813,-5.927499771118164,4.080399990081787
1702212034881836800,37.1288369140625,0.6395999789237976,-6.023699760437012,0.3154999911785126
1702212034941836800,37.1888369140625,1.7188999652862549,-7.137899875640869,-2.4395999908447266
1702212035001836800,37.2488369140625,3.188499927520752,-6.399699687957764,-6.462899684906006
1702212035061836800,37.3088369140625,3.1945998668670654,-8.300299644470215,-10.548799514770508
1702212035121836800,37.3688369140625,0.3686999976634979,-7.335000038146973,-5.815899848937988
1702212035181836800,37.4288369140625,-1.323199987411499,-10.114299774169922,-5.741600036621094
1702212035241836800,37.4888369140625,1.5089999437332153,-8.64699935913086,-5.112400054931641
1702212035301836800,37.5488369140625,-1.4371999502182007,-10.484899520874023,0.8165000081062317
1702212035361836800,37.6088369140625,-1.2970999479293823,-8.675399780273438,7.922599792480469
1702212035421836800,37.6688369140625,-2.394399881362915,-0.965399980545044,11.160999298095703
1702212035481836800,37.7288369140625,0.5514000058174133,2.191699981689453,6.058899879455566
1702212035541836800,37.7888369140625,4.381199836730957,0.5381999611854553,4.0142998695373535
1702212035601836800,37.8488369140625,5.356599807739258,2.7360999584198,8.998299598693848
1702212035661836800,37.9088369140625,1.0189999341964722,3.9049999713897705,11.376599311828613
1702212035721863400,37.968863525390624,-1.9241999387741089,4.237400054931641,8.82859992980957
1702212035781836800,38.0288369140625,-4.332399845123291,1.7759000062942505,11.877699851989746
1702212035841836800,38.0888369140625,-3.9617998600006104,-2.1875,10.187699317932129
1702212035901836800,38.1488369140625,-1.5896999835968018,-5.397299766540527,7.134799957275391
1702212035961836800,38.2088369140625,1.1828999519348145,-3.781399965286255,2.872999906539917
1702212036021836800,38.2688369140625,1.2786999940872192,-2.7517998218536377,-1.8291999101638794
1702212036081836800,38.3288369140625,0.6753999590873718,-2.4403998851776123,-4.114099979400635
1702212036141836800,38.3888369140625,0.4059000015258789,-6.024999618530273,-2.601599931716919
1702212036201863400,38.44886352539063,2.1577000617980957,-6.937299728393555,-2.830699920654297
1702212036261836800,38.5088369140625,3.7832999229431152,-8.235499382019043,-7.257199764251709
1702212036321836800,38.5688369140625,-2.6432998180389404,-5.731400012969971,-4.974099636077881
1702212036381836800,38.6288369140625,-4.255399703979492,-7.663399696350098,0.3043999969959259
1702212036441836800,38.6888369140625,0.06260000169277191,-5.370299816131592,0.14169999957084656
1702212036501836800,38.7488369140625,1.105299949645996,-1.5292999744415283,0.48799997568130493
1702212036561836800,38.8088369140625,2.077199935913086,-0.1923999935388565,1.8775999546051025
1702212036621836800,38.8688369140625,0.7486000061035156,0.9267999529838562,4.91409969329834
1702212036681836800,38.9288369140625,1.8832999467849731,3.043799877166748,6.764699935913086
1702212036741836800,38.9888369140625,3.2846999168395996,4.781899929046631,5.01639986038208
1702212036801836800,39.0488369140625,3.5600998401641846,4.545199871063232,5.388199806213379
1702212036861836800,39.1088369140625,3.694199800491333,3.38349986076355,9.86769962310791
1702212036921836800,39.1688369140625,2.687700033187866,2.4312000274658203,9.875699996948242
1702212036981836800,39.2288369140625,0.6042999625205994,-1.4735000133514404,8.256799697875977
1702212037041836800,39.2888369140625,0.002199999988079071,-1.9471999406814575,4.043900012969971
1702212037101836800,39.3488369140625,0.15199999511241913,-0.6161999702453613,0.4903999865055084
1702212037161836800,39.4088369140625,0.8761000037193298,-1.1491999626159668,-4.455599784851074
1702212037221836800,39.4688369140625,0.6019999980926514,-2.7009999752044678,0.6959999799728394
1702212037281836800,39.5288369140625,2.7502999305725098,-3.05049991607666,1.142699956893921
1702212037341836800,39.5888369140625,4.046999931335449,-5.013299942016602,-1.3336999416351318
1702212037401836800,39.6488369140625,3.8469998836517334,-6.559700012207031,-6.558899879455566
1702212037461836800,39.7088369140625,3.6913998126983643,-8.273699760437012,-9.924099922180176
1702212037521836800,39.7688369140625,0.45909997820854187,-7.576399803161621,-3.1350998878479004
1702212037581836800,39.8288369140625,-1.0627999305725098,-8.105400085449219,-0.6523000001907349
1702212037641836800,39.8888369140625,0.5001999735832214,-2.7929999828338623,2.736799955368042
1702212037701836800,39.9488369140625,-0.45669999718666077,-1.0631999969482422,3.080399990081787
1702212037761836800,40.0088369140625,-1.3686000108718872,-1.0078999996185303,6.021199703216553
1702212037821836800,40.0688369140625,-1.49399995803833,1.6216999292373657,12.01509952545166
1702212037881836800,40.1288369140625,-6.1433000564575195,3.4326999187469482,5.109499931335449
1702212037941836800,40.1888369140625,-3.8451998233795166,4.349100112915039,3.6659998893737793
1702212038001836800,40.2488369140625,-3.2891998291015625,3.7575998306274414,7.388000011444092
1702212038061836800,40.3088369140625,-5.951600074768066,2.7816998958587646,9.535299301147461
1702212038121836800,40.3688369140625,-5.225800037384033,3.2665998935699463,8.182199478149414
1702212038181836800,40.4288369140625,-4.94849967956543,-0.7137999534606934,5.37339973449707
1702212038241835300,40.488835205078125,-3.2172999382019043,-4.757899761199951,9.915299415588379
1702212038301863400,40.54886352539062,-0.014599999412894249,-2.7304999828338623,5.344899654388428
1702212038361836800,40.6088369140625,1.3367999792099,-4.009399890899658,1.5353000164031982
1702212038421836800,40.6688369140625,2.866299867630005,-5.103699684143066,-0.42800000309944153
1702212038481836800,40.7288369140625,2.7314999103546143,-6.585899829864502,-1.1755999326705933
1702212038541836800,40.7888369140625,4.70389986038208,-7.063299655914307,-5.953799724578857
1702212038601836800,40.8488369140625,4.753999710083008,-8.460999488830566,-10.394899368286133
1702212038661836800,40.9088369140625,2.3857998847961426,-8.801799774169922,-6.072499752044678
1702212038721836800,40.9688369140625,-0.47759997844696045,-8.590899467468262,-0.9280999898910522
1702212038781836800,41.0288369140625,-1.039099931716919,-6.978799819946289,0.7483999729156494
1702212038841836800,41.0888369140625,0.008799999952316284,-1.7654999494552612,1.2841999530792236
1702212038901836800,41.1488369140625,-1.209399938583374,-1.4178999662399292,2.2649998664855957
1702212038961836800,41.2088369140625,-2.538100004196167,-1.93149995803833,6.615599632263184
1702212039021836800,41.2688369140625,-3.6034998893737793,1.0448999404907227,10.050999641418457
1702212039081836800,41.3288369140625,-4.64169979095459,3.8050999641418457,7.078199863433838
1702212039141836800,41.3888369140625,-7.786499977111816,4.798399925231934,7.532199859619141
1702212039201836800,41.4488369140625,-10.81820011138916,1.5961999893188477,10.34019947052002
1702212039261836800,41.5088369140625,-6.3582000732421875,-1.9610999822616577,8.692399978637695
1702212039321836800,41.5688369140625,-2.344099998474121,-3.1878998279571533,6.154399871826172
1702212039381836800,41.6288369140625,-0.19370000064373016,-4.710899829864502,3.9382998943328857
1702212039441836800,41.6888369140625,2.4586000442504883,-1.855299949645996,-0.6430000066757202
1702212039501836800,41.7488369140625,3.575699806213379,-1.0342999696731567,-3.480299949645996
1702212039561836800,41.8088369140625,3.21589994430542,-1.986199975013733,-3.2256999015808105
1702212039621836800,41.8688369140625,1.402899980545044,-3.5195000171661377,-0.5728999972343445
1702212039681836800,41.9288369140625,0.30140000581741333,-3.6643998622894287,1.7029999494552612
1702212039741836800,41.9888369140625,2.7065999507904053,-4.628799915313721,-1.62909996509552
1702212039801836800,42.0488369140625,2.5513999462127686,-5.4542999267578125,-13.553099632263184
1702212039861836800,42.1088369140625,-0.8994999527931213,-10.014200210571289,-6.943999767303467
1702212039921836800,42.1688369140625,-0.4729999899864197,-3.8153998851776123,-1.083400011062622
1702212039981836800,42.2288369140625,-5.473399639129639,-7.196099758148193,0.715399980545044
1702212040041836800,42.2888369140625,-0.09030000120401382,-2.850100040435791,3.56499981880188
1702212040101836800,42.3488369140625,0.3025999963283539,0.8745999932289124,4.482800006866455
1702212040161836800,42.4088369140625,-0.675599992275238,1.8518999814987183,5.640199661254883
1702212040221836800,42.4688369140625,-1.3245999813079834,2.8763999938964844,8.332499504089355
1702212040281836800,42.5288369140625,-2.632699966430664,4.433899879455566,7.683399677276611
1702212040341836800,42.5888369140625,-4.106599807739258,2.616499900817871,6.721099853515625
1702212040401863400,42.648863525390624,-6.432600021362305,1.6441999673843384,5.891900062561035
1702212040461836800,42.7088369140625,-5.789499759674072,0.36890000104904175,6.017499923706055
1702212040521836800,42.7688369140625,-3.1519999504089355,1.267799973487854,4.461699962615967
1702212040581836800,42.8288369140625,-4.364200115203857,-1.6110999584197998,5.062900066375732
1702212040641836800,42.8888369140625,-4.376999855041504,-5.147500038146973,8.73699951171875
1702212040701836800,42.9488369140625,0.12700000405311584,-4.620899677276611,5.147299766540527
1702212040761836800,43.0088369140625,1.8071999549865723,-5.733299732208252,0.7303000092506409
1702212040821836800,43.0688369140625,3.42549991607666,-6.336099624633789,-1.5439000129699707
1702212040881836800,43.1288369140625,4.690199851989746,-5.015999794006348,-3.6014997959136963
1702212040941836800,43.1888369140625,4.1803998947143555,-3.7533998489379883,-5.649600028991699
1702212041001836800,43.2488369140625,3.5159997940063477,-4.332200050354004,-9.427599906921387
1702212041061836800,43.3088369140625,1.730799913406372,-4.461400032043457,-10.815499305725098
1702212041121836800,43.3688369140625,-0.272599995136261,-5.571199893951416,-6.916899681091309
1702212041181836800,43.4288369140625,-0.8238999843597412,-13.840299606323242,-3.7470998764038086
1702212041241836800,43.4888369140625,-2.038599967956543,-10.302800178527832,2.777599811553955
1702212041301836800,43.5488369140625,-7.5030999183654785,-6.167599678039551,9.16759967803955
1702212041361836800,43.6088369140625,-0.42829999327659607,-1.063599944114685,4.22029972076416
1702212041421836800,43.6688369140625,1.5956999063491821,-1.264699935913086,0.8887999653816223
1702212041481836800,43.7288369140625,3.805799961090088,-1.7914999723434448,2.865499973297119
1702212041541836800,43.7888369140625,4.604000091552734,-2.0625,7.624499797821045
1702212041601836800,43.8488369140625,2.3606998920440674,1.7813999652862549,12.962499618530273
1702212041661836800,43.9088369140625,-1.2519999742507935,3.196499824523926,10.361499786376953
1702212041721836800,43.9688369140625,-4.898799896240234,3.615299940109253,12.347999572753906
1702212041781836800,44.0288369140625,-7.689299583435059,2.1743998527526855,16.449899673461914
1702212041841836800,44.0888369140625,-7.044099807739258,-4.852499961853027,10.515799522399902
1702212041901836800,44.1488369140625,-6.029999732971191,-11.792699813842773,9.066899299621582
1702212041961836800,44.2088369140625,-0.6245999932289124,-9.600299835205078,2.9579999446868896
1702212042021836800,44.2688369140625,3.434999942779541,-5.16349983215332,-3.2876999378204346
1702212042081836800,44.3288369140625,4.351399898529053,-3.7956998348236084,-5.734399795532227
1702212042141836800,44.3888369140625,4.514100074768066,-4.731499671936035,-4.872099876403809
1702212042201836800,44.4488369140625,4.396699905395508,-4.099499702453613,-2.48580002784729
1702212042261836800,44.5088369140625,3.5044000148773193,-4.957799911499023,-1.7740999460220337
1702212042321836800,44.5688369140625,3.6631999015808105,-5.5731000900268555,-8.522199630737305
1702212042381836800,44.6288369140625,1.5983999967575073,-10.041799545288086,-9.166099548339844
1702212042441836800,44.6888369140625,-1.3365999460220337,-10.382999420166016,-0.24629999697208405
1702212042501836800,44.7488369140625,-4.902699947357178,-9.428999900817871,4.19320011138916
1702212042561836800,44.8088369140625,-2.9320998191833496,-0.5920999646186829,6.984399795532227
1702212042621836800,44.8688369140625,-2.4147000312805176,-0.26080000400543213,2.302999973297119
1702212042681836800,44.9288369140625,-2.757499933242798,0.6596999764442444,4.781599998474121
1702212042741836800,44.9888369140625,-3.62749981880188,2.952899932861328,9.827300071716309
1702212042801836800,45.0488369140625,-3.90939998626709,5.063799858093262,7.528199672698975
1702212042861836800,45.1088369140625,-4.764999866485596,3.2405998706817627,7.59089994430542
1702212042921836800,45.1688369140625,-3.3618998527526855,1.9928998947143555,8.901199340820312
1702212042981836800,45.2288369140625,-3.910799980163574,0.5263999700546265,8.990099906921387
1702212043041836800,45.2888369140625,-4.233999729156494,-1.3385999202728271,9.615499496459961
1702212043101836800,45.3488369140625,-2.861299991607666,-4.939699649810791,6.2764997482299805
1702212043161836800,45.4088369140625,0.07989999651908875,-4.229700088500977,2.7254998683929443
1702212043221836800,45.4688369140625,1.372399926185608,-3.016700029373169,1.2609000205993652
1702212043281836800,45.5288369140625,2.2360000610351562,-4.055699825286865,0.7997999787330627
1702212043341836800,45.5888369140625,3.565999984741211,-4.537899971008301,-0.010499999858438969
1702212043401836800,45.6488369140625,3.2518999576568604,-7.482800006866455,-2.9273998737335205
1702212043461836800,45.7088369140625,5.712100028991699,-7.954099655151367,-11.521100044250488
1702212043521836800,45.7688369140625,4.989199638366699,-11.748700141906738,-16.6614990234375
1702212043581836800,45.8288369140625,-1.169700026512146,-10.461899757385254,3.090399980545044
1702212043641836800,45.8888369140625,-3.231799840927124,-5.453199863433838,3.564199924468994
1702212043701836800,45.9488369140625,0.1119999960064888,-3.909099817276001,1.8190999031066895
1702212043761836800,46.0088369140625,-0.47769999504089355,-1.4225999116897583,1.6210999488830566
1702212043821836800,46.0688369140625,-3.0376999378204346,0.5533999800682068,3.7834999561309814
1702212043881836800,46.1288369140625,-5.433099746704102,2.347599983215332,7.584099769592285
1702212043941836800,46.1888369140625,-7.746699810028076,6.671199798583984,6.036499977111816
1702212044001836800,46.2488369140625,-9.880499839782715,6.366299629211426,9.207900047302246
1702212044061836800,46.3088369140625,-6.504899978637695,5.627799987792969,8.291899681091309
1702212044121836800,46.3688369140625,-3.4201998710632324,4.001800060272217,8.501999855041504
1702212044181836800,46.4288369140625,-2.7630999088287354,-1.1043000221252441,11.919099807739258
1702212044241836800,46.4888369140625,-1.4574999809265137,-4.944499969482422,10.521499633789062
1702212044301836800,46.5488369140625,0.3879999816417694,-6.43209981918335,5.169399738311768
1702212044361836800,46.6088369140625,1.977799892425537,-5.829799652099609,1.823599934577942
1702212044421836800,46.6688369140625,2.2254998683929443,-4.9629998207092285,0.23989999294281006
1702212044481836800,46.7288369140625,2.9091999530792236,-5.992300033569336,-1.8489999771118164
1702212044541836800,46.7888369140625,3.394699811935425,-6.690700054168701,-3.8006999492645264
1702212044601863400,46.84886352539063,4.029399871826172,-6.568299770355225,-8.474599838256836
1702212044661836800,46.9088369140625,2.986799955368042,-7.968499660491943,-9.688599586486816
1702212044721836800,46.9688369140625,0.17870000004768372,-8.803199768066406,-6.763099670410156
1702212044781836800,47.0288369140625,0.5924999713897705,-9.979399681091309,-1.492900013923645
1702212044841836800,47.0888369140625,-2.3961000442504883,-8.324899673461914,1.5958999395370483
1702212044901836800,47.1488369140625,-3.6288998126983643,-5.186899662017822,6.605599880218506
1702212044961836800,47.2088369140625,-2.137399911880493,-1.003999948501587,3.9647998809814453
1702212045021836800,47.2688369140625,-3.4121999740600586,0.6136999726295471,2.6930999755859375
1702212045081836800,47.3288369140625,-3.532899856567383,3.123800039291382,9.272899627685547
1702212045141836800,47.3888369140625,-3.0469000339508057,5.217599868774414,8.594599723815918
1702212045201836800,47.4488369140625,-1.011099934577942,4.815799713134766,8.664400100708008
1702212045261836800,47.5088369140625,-2.0297000408172607,3.999799966812134,8.90269947052002
1702212045321836800,47.5688369140625,-4.9293999671936035,1.5805000066757202,11.920199394226074
1702212045381836800,47.6288369140625,-4.588500022888184,-0.4763000011444092,8.958000183105469
1702212045441836800,47.6888369140625,-3.5326998233795166,-5.572000026702881,8.437199592590332
1702212045501836800,47.7488369140625,-0.1867000013589859,-4.299900054931641,4.332699775695801
1702212045561836800,47.8088369140625,1.5931999683380127,-4.3333001136779785,0.7627999782562256
1702212045621836800,47.8688369140625,2.650599956512451,-6.138199806213379,-0.3172999918460846
1702212045681836800,47.9288369140625,3.2316999435424805,-6.735199928283691,-0.17189998924732208
1702212045741836800,47.9888369140625,2.4974000453948975,-6.835599899291992,1.4323999881744385
1702212045801836800,48.0488369140625,4.444499969482422,-7.246999740600586,-1.4285999536514282
1702212045861836800,48.1088369140625,4.692599773406982,-9.572400093078613,-5.394599914550781
1702212045921836800,48.1688369140625,4.6707000732421875,-7.838599681854248,-6.901399612426758
1702212045981836800,48.2288369140625,0.21169999241828918,-8.805699348449707,-6.1707000732421875
1702212046041836800,48.2888369140625,-1.7807999849319458,-6.654299736022949,-3.7242000102996826
1702212046101836800,48.3488369140625,-5.255099773406982,-6.802099704742432,-2.6290998458862305
1702212046161836800,48.4088369140625,-4.154699802398682,-6.093400001525879,7.887599945068359
1702212046221836800,48.4688369140625,-6.381700038909912,1.9667999744415283,12.823699951171875
1702212046281836800,48.5288369140625,-3.974599838256836,4.632400035858154,3.157399892807007
1702212046341836800,48.5888369140625,-3.9298999309539795,6.010799884796143,8.925199508666992
1702212046401836800,48.6488369140625,-5.78279972076416,6.22189998626709,11.261199951171875
1702212046461836800,48.7088369140625,-3.6618998050689697,5.340099811553955,8.908699989318848
1702212046521836800,48.7688369140625,-4.449599742889404,-2.2595999240875244,9.366000175476074
1702212046581836800,48.8288369140625,-2.491799831390381,-4.7266998291015625,6.174799919128418
1702212046641836800,48.8888369140625,0.946399986743927,-2.6438000202178955,2.0729000568389893
1702212046701863400,48.94886352539063,2.0002999305725098,-3.0713000297546387,-1.4491000175476074
1702212046761836800,49.0088369140625,1.5026999711990356,-5.452600002288818,-2.382699966430664
1702212046821836800,49.0688369140625,0.2345999926328659,-6.659499645233154,-0.1907999962568283
1702212046881836800,49.1288369140625,1.3457000255584717,-6.591599941253662,-3.6789000034332275
1702212046941836800,49.1888369140625,5.755899906158447,-6.4726996421813965,-16.431499481201172
1702212047001836800,49.2488369140625,3.559999942779541,-9.533499717712402,-5.054699897766113
1702212047061836800,49.3088369140625,1.14329993724823,-9.677800178527832,-1.0097999572753906
1702212047121836800,49.3688369140625,-1.358199954032898,-7.2602996826171875,0.4949999749660492
1702212047181836800,49.4288369140625,-0.7017999887466431,-1.9362999200820923,-0.6060999631881714
1702212047241836800,49.4888369140625,-1.1586999893188477,0.10569999366998672,-0.8540999889373779
1702212047301836800,49.5488369140625,-6.10890007019043,0.14800000190734863,9.079099655151367
1702212047361836800,49.6088369140625,-4.2916998863220215,5.412600040435791,10.797499656677246
1702212047421836800,49.6688369140625,-5.032199859619141,5.485499858856201,7.906599998474121
1702212047481836800,49.7288369140625,-2.170599937438965,5.589399814605713,9.342299461364746
1702212047541836800,49.7888369140625,-4.505099773406982,2.968600034713745,6.384999752044678
1702212047601836800,49.8488369140625,-7.626499652862549,-4.150700092315674,11.466699600219727
1702212047661836800,49.9088369140625,-3.5653998851776123,-8.18970012664795,5.973099708557129
1702212047721836800,49.9688369140625,0.550599992275238,-3.4898998737335205,0.346699982881546
1702212047781836800,50.0288369140625,0.9532999992370605,-1.857699990272522,-4.076399803161621
1702212047841836800,50.0888369140625,0.9941999912261963,-4.872299671173096,-5.669699668884277
1702212047901836800,50.1488369140625,1.0780999660491943,-8.757399559020996,-4.8227996826171875
1702212047961836800,50.2088369140625,1.3799999952316284,-7.469799995422363,-7.998799800872803
1702212048021836800,50.2688369140625,1.9785000085830688,-7.993399620056152,-12.014399528503418
1702212048081836800,50.3288369140625,0.1696999967098236,-8.30210018157959,-4.3643999099731445
1702212048141836800,50.3888369140625,-1.871899962425232,-10.182999610900879,0.5940999984741211
1702212048201836800,50.4488369140625,0.4666000008583069,-7.359799861907959,2.063199996948242
1702212048261836800,50.5088369140625,-1.6022999286651611,-1.368299961090088,3.6359000205993652
1702212048321836800,50.5688369140625,-1.7182999849319458,1.4958999156951904,4.603300094604492
1702212048381836800,50.6288369140625,-1.4639999866485596,0.7281999588012695,5.424599647521973
1702212048441835300,50.68883520507813,-2.0327999591827393,2.86899995803833,8.163000106811523
1702212048501836800,50.7488369140625,-1.8029999732971191,3.5957999229431152,9.635199546813965
1702212048561836800,50.8088369140625,-2.085099935531616,2.8835999965667725,9.160999298095703
1702212048621836800,50.8688369140625,-4.144499778747559,3.531599998474121,9.598400115966797
1702212048681836800,50.9288369140625,-5.693999767303467,-1.4476999044418335,8.085899353027344
1702212048741836800,50.9888369140625,-2.866299867630005,-3.7602999210357666,5.318699836730957
1702212048801863400,51.04886352539062,-0.7224999666213989,-1.3564000129699707,0.8060999512672424
1702212048861836800,51.1088369140625,-0.22809998691082,-1.1536999940872192,-1.17330002784729
1702212048921836800,51.1688369140625,0.41749998927116394,-1.9169999361038208,-1.4027999639511108
1702212048981836800,51.2288369140625,-0.3310000002384186,-5.942299842834473,-1.7172999382019043
1702212049041836800,51.2888369140625,2.0393998622894287,-6.3028998374938965,-5.561899662017822
1702212049101836800,51.3488369140625,2.8940999507904053,-6.887699604034424,-9.755799293518066
1702212049161836800,51.4088369140625,-0.2586999833583832,-10.250800132751465,-5.920899868011475
1702212049221863400,51.468863525390624,0.6017000079154968,-7.663699626922607,-0.7817999720573425
1702212049281836800,51.5288369140625,0.79749995470047,-5.966599941253662,-0.8026999831199646
1702212049341836800,51.5888369140625,0.29580000042915344,-1.0613999366760254,1.0750999450683594
1702212049401836800,51.6488369140625,-2.7231998443603516,1.2360999584197998,4.101200103759766
1702212049461836800,51.7088369140625,-5.725800037384033,3.5959999561309814,10.626199722290039
1702212049521836800,51.7688369140625,-4.303599834442139,4.256799697875977,5.034599781036377
1702212049581836800,51.8288369140625,-1.2206000089645386,4.863699913024902,6.568299770355225
1702212049641836800,51.8888369140625,-0.02199999988079071,4.581699848175049,9.93019962310791
1702212049701836800,51.9488369140625,-3.141899824142456,2.538300037384033,10.515399932861328
1702212049761836800,52.0088369140625,-4.565899848937988,-2.7361998558044434,11.31559944152832
1702212049821836800,52.0688369140625,-2.0678999423980713,-8.0718994140625,8.916799545288086
1702212049881836800,52.1288369140625,0.6315000057220459,-5.453999996185303,3.5839998722076416
1702212049941836800,52.1888369140625,1.406499981880188,-4.678199768066406,-0.3564999997615814
1702212050001836800,52.2488369140625,1.5335999727249146,-6.462299823760986,-2.0112998485565186
1702212050061836800,52.3088369140625,3.725600004196167,-7.760599613189697,-7.502399921417236
1702212050121836800,52.3688369140625,3.2052998542785645,-9.076499938964844,-11.750399589538574
1702212050181836800,52.4288369140625,1.3047000169754028,-9.262800216674805,-11.251799583435059
1702212050241836800,52.4888369140625,1.4577999114990234,-9.851099967956543,-5.158899784088135
1702212050301836800,52.5488369140625,-1.2060999870300293,-8.902999877929688,1.4128999710083008
1702212050361836800,52.6088369140625,-0.14180000126361847,-7.15809965133667,3.3664000034332275
1702212050421836800,52.6688369140625,-1.292199969291687,-2.4754998683929443,6.004899978637695
1702212050481836800,52.7288369140625,-1.8769999742507935,1.063599944114685,4.795000076293945
1702212050541836800,52.7888369140625,-2.074199914932251,1.6894999742507935,5.246200084686279
1702212050601836800,52.8488369140625,-4.325200080871582,4.934899806976318,8.361499786376953
1702212050661836800,52.9088369140625,-7.779099941253662,6.032199859619141,10.541199684143066
1702212050721836800,52.9688369140625,-7.787299633026123,5.749199867248535,6.341599941253662
1702212050781836800,53.0288369140625,-9.607999801635742,0.2622999846935272,8.782699584960938
1702212050841836800,53.0888369140625,-5.311299800872803,-4.1666998863220215,8.081999778747559
1702212050901863400,53.148863525390624,-1.827299952507019,-5.734799861907959,4.742700099945068
1702212050961836800,53.2088369140625,0.8668999671936035,-3.0033998489379883,2.7309000492095947
1702212051021836800,53.2688369140625,1.4103000164031982,-2.5157999992370605,0.6449999809265137
1702212051081836800,53.3288369140625,2.5623998641967773,-3.494499921798706,-0.3910999894142151
1702212051141836800,53.3888369140625,3.7756998538970947,-5.625199794769287,-1.6861999034881592
1702212051201836800,53.4488369140625,4.890500068664551,-7.055899620056152,-4.433799743652344
1702212051261836800,53.5088369140625,5.004499912261963,-7.773699760437012,-9.635299682617188
1702212051321836800,53.5688369140625,1.1013000011444092,-9.650699615478516,-7.457900047302246
1702212051381836800,53.6288369140625,-0.8071999549865723,-7.565899848937988,-2.8551998138427734
1702212051441836800,53.6888369140625,-1.9833999872207642,-7.842599868774414,-0.7184000015258789
1702212051501836800,53.7488369140625,-0.9003999829292297,-4.531399726867676,1.337899923324585
1702212051561836800,53.8088369140625,-0.9873999953269958,0.45009997487068176,3.0467000007629395
1702212051621835300,53.86883520507813,-2.8001999855041504,1.5351999998092651,4.506499767303467
1702212051681836800,53.9288369140625,-4.210299968719482,1.6496999263763428,7.692599773406982
1702212051741836800,53.9888369140625,-3.4198999404907227,4.0478997230529785,7.231499671936035
1702212051801836800,54.0488369140625,-2.2688000202178955,4.029599666595459,6.553099632263184
1702212051861836800,54.1088369140625,-1.400499939918518,0.3261999785900116,9.250199317932129
1702212051921836800,54.1688369140625,-3.113499879837036,1.0981999635696411,8.123600006103516
1702212051981836800,54.2288369140625,-4.1956000328063965,-0.24819999933242798,6.134999752044678
1702212052041836800,54.2888369140625,-3.2171998023986816,-2.7398998737335205,4.628600120544434
1702212052101836800,54.3488369140625,-1.7645999193191528,-0.9673999547958374,2.241799831390381
1702212052161836800,54.4088369140625,-0.9498999714851379,-1.351599931716919,0.09609999507665634
1702212052221836800,54.4688369140625,1.1303999423980713,-2.610499858856201,-0.6462000012397766
1702212052281836800,54.5288369140625,2.3929998874664307,-3.6629998683929443,-2.447199821472168
1702212052341835300,54.58883520507813,3.1870999336242676,-5.596099853515625,-3.6203999519348145
1702212052401836800,54.6488369140625,3.8783998489379883,-6.073999881744385,-7.293799877166748
1702212052461836800,54.7088369140625,0.9333999752998352,-9.529099464416504,-7.218999862670898
1702212052521836800,54.7688369140625,1.4150999784469604,-6.717399597167969,-3.3128998279571533
1702212052581836800,54.8288369140625,-1.6998000144958496,-8.232600212097168,-1.2955999374389648
1702212052641836800,54.8888369140625,0.4333999752998352,-4.07289981842041,0.33329999446868896
1702212052701836800,54.9488369140625,-0.16259999573230743,-1.4649999141693115,1.701200008392334
1702212052761836800,55.0088369140625,-0.48829999566078186,-1.5126999616622925,4.648299694061279
1702212052821836800,55.0688369140625,-1.0829999446868896,-0.05700000002980232,7.62969970703125
1702212052881836800,55.1288369140625,-2.842399835586548,2.405900001525879,7.14739990234375
1702212052941836800,55.1888369140625,-4.4303998947143555,4.888299942016602,9.455299377441406
1702212053001863400,55.248863525390625,-6.462899684906006,4.023900032043457,12.122699737548828
1702212053061836800,55.3088369140625,-6.710599899291992,3.3760998249053955,12.716499328613281
1702212053121836800,55.3688369140625,-4.994499683380127,-2.853299856185913,9.898499488830566
1702212053181836800,55.4288369140625,-1.913699984550476,-5.501999855041504,6.936800003051758
1702212053241836800,55.4888369140625,0.4706999957561493,-2.9375,1.8878999948501587
1702212053301836800,55.5488369140625,0.9297999739646912,-2.3203999996185303,-0.8077999949455261
1702212053361836800,55.6088369140625,1.9993000030517578,-3.573699951171875,-1.1129000186920166
1702212053421836800,55.6688369140625,2.636699914932251,-4.5802998542785645,-0.7170999646186829
1702212053481836800,55.7288369140625,3.525099992752075,-6.218699932098389,-2.3778998851776123
1702212053541836800,55.7888369140625,4.589999675750732,-7.360099792480469,-10.592700004577637
1702212053601836800,55.8488369140625,0.491599977016449,-10.791500091552734,-10.691299438476562
1702212053661836800,55.9088369140625,-1.2602999210357666,-11.272199630737305,-1.7906999588012695
1702212053721836800,55.9688369140625,-1.708899974822998,-9.928999900817871,0.47369998693466187
1702212053781836800,56.0288369140625,-1.1030999422073364,-4.293399810791016,1.7009999752044678
1702212053841836800,56.0888369140625,-4.029999732971191,-0.6139999628067017,4.445199966430664
1702212053901836800,56.1488369140625,-6.967399597167969,2.5732998847961426,10.085399627685547
1702212053961836800,56.2088369140625,-5.775799751281738,3.5264999866485596,7.5569000244140625
1702212054021836800,56.2688369140625,-1.0299999713897705,4.875699996948242,8.021900177001953
1702212054081836800,56.3288369140625,0.7486000061035156,2.810699939727783,9.042200088500977
1702212054141836800,56.3888369140625,0.3527999818325043,2.239799976348877,9.887999534606934
1702212054201836800,56.4488369140625,-2.303999900817871,0.9377999901771545,8.710199356079102
1702212054261836800,56.5088369140625,-2.49399995803833,-4.866799831390381,8.98960018157959
1702212054321836800,56.5688369140625,-0.45799997448921204,-3.8581998348236084,4.179699897766113
1702212054381836800,56.6288369140625,0.3544999957084656,-1.838499903678894,0.5145999789237976
1702212054441836800,56.6888369140625,1.4005999565124512,-2.4716999530792236,-1.3568999767303467
1702212054501836800,56.7488369140625,2.368299961090088,-4.218800067901611,-1.8449000120162964
1702212054561836800,56.8088369140625,2.318699836730957,-6.2881999015808105,-1.830199956893921
1702212054621836800,56.8688369140625,3.3636999130249023,-7.8618998527526855,-4.754300117492676
1702212054681836800,56.9288369140625,2.682299852371216,-9.279899597167969,-8.633500099182129
1702212054741836800,56.9888369140625,0.35999998450279236,-7.060199737548828,-5.261099815368652
1702212054801836800,57.0488369140625,-0.6209999918937683,-6.308699607849121,-3.2747998237609863
1702212054861836800,57.1088369140625,-0.23309999704360962,-3.451200008392334,-1.9023000001907349
1702212054921836800,57.1688369140625,-0.6376000046730042,-0.4008999764919281,0.5230000019073486
1702212054981836800,57.2288369140625,-2.482300043106079,-0.6396999955177307,8.693300247192383
1702212055041836800,57.2888369140625,-2.643399953842163,1.9422999620437622,7.106499671936035
1702212055101863400,57.34886352539063,-1.9275000095367432,2.829699993133545,6.295599937438965
1702212055161836800,57.4088369140625,0.0908999964594841,4.233599662780762,7.115299701690674
1702212055221836800,57.4688369140625,0.6488999724388123,2.911900043487549,12.272699356079102
1702212055281836800,57.5288369140625,-1.5692999362945557,-2.1373000144958496,9.511899948120117
1702212055341836800,57.5888369140625,-1.0885999202728271,-4.409899711608887,7.1601996421813965
1702212055401836800,57.6488369140625,-0.5259000062942505,-3.037600040435791,2.981799840927124
1702212055461836800,57.7088369140625,0.4900999963283539,-1.291700005531311,-0.7057999968528748
1702212055521836800,57.7688369140625,0.8801999688148499,-1.1014999151229858,-2.7330000400543213
1702212055581836800,57.8288369140625,1.232200026512146,-1.7263998985290527,-1.7799999713897705
1702212055641836800,57.8888369140625,1.948099970817566,-3.606799840927124,-3.7697999477386475
1702212055701836800,57.9488369140625,1.8470999002456665,-4.799900054931641,-3.5358998775482178
1702212055761836800,58.0088369140625,0.8557999730110168,-6.66379976272583,-6.980199813842773
1702212055821836800,58.0688369140625,-1.6068999767303467,-7.320399761199951,-5.206500053405762
1702212055881836800,58.1288369140625,-0.7529999613761902,-7.3842997550964355,-1.6692999601364136
1702212055941836800,58.1888369140625,-1.7415999174118042,-6.383299827575684,1.8614000082015991
1702212056001836800,58.2488369140625,-1.3751999139785767,-1.979599952697754,3.2064998149871826
1702212056061836800,58.3088369140625,-1.5882999897003174,2.876699924468994,3.3671000003814697
1702212056121836800,58.3688369140625,-1.6143999099731445,3.3887999057769775,3.660599946975708
1702212056181836800,58.4288369140625,-2.147199869155884,3.836899995803833,6.611199855804443
1702212056241836800,58.4888369140625,-2.8506999015808105,6.322199821472168,5.577099800109863
1702212056301836800,58.5488369140625,-3.0976998805999756,4.515899658203125,6.838299751281738
1702212056361835300,58.60883520507812,-4.01200008392334,0.4422999918460846,8.637999534606934
1702212056421836800,58.6688369140625,-3.3242998123168945,1.94159996509552,8.169300079345703
1702212056481836800,58.7288369140625,-2.9863998889923096,-3.8531999588012695,5.412299633026123
1702212056541836800,58.7888369140625,-0.5378000140190125,-4.001899719238281,3.0351998805999756
1702212056601836800,58.8488369140625,0.9967999458312988,-2.3710999488830566,0.48399999737739563
1702212056661836800,58.9088369140625,1.944000005722046,-2.6312999725341797,-1.2484999895095825
1702212056721836800,58.9688369140625,2.427799940109253,-3.99429988861084,-2.026599884033203
1702212056781836800,59.0288369140625,2.1506998538970947,-4.2602996826171875,-2.8578999042510986
1702212056841836800,59.0888369140625,2.086099863052368,-5.81089973449707,-4.493099689483643
1702212056901836800,59.1488369140625,1.9332998991012573,-6.217599868774414,-6.868199825286865
1702212056961836800,59.2088369140625,-0.2870999872684479,-6.938799858093262,-8.052899360656738
1702212057021836800,59.2688369140625,-0.9238999485969543,-8.190899848937988,-2.4096999168395996
1702212057081836800,59.3288369140625,-3.6813998222351074,-5.4542999267578125,0.8851999640464783
1702212057141836800,59.3888369140625,-2.495300054550171,-1.7828999757766724,3.458699941635132
1702212057201863400,59.44886352539063,-0.4763000011444092,0.7409999966621399,1.7777999639511108
1702212057261836800,59.5088369140625,0.493399977684021,1.893399953842163,1.0166000127792358
1702212057321836800,59.5688369140625,0.6280999779701233,1.230299949645996,2.613499879837036
1702212057381836800,59.6288369140625,-1.3916000127792358,3.024600028991699,5.031199932098389
1702212057441836800,59.6888369140625,-2.47160005569458,4.984799861907959,6.583499908447266
1702212057501836800,59.7488369140625,-4.754799842834473,2.5048999786376953,7.551699638366699
1702212057561836800,59.8088369140625,-4.573299884796143,0.16920000314712524,11.873499870300293
1702212057621836800,59.8688369140625,-1.8788999319076538,0.210099995136261,5.9863996505737305
1702212057681836800,59.9288369140625,-0.8357999920845032,-1.7454999685287476,4.284599781036377
1702212057741836800,59.9888369140625,0.3700000047683716,-1.218400001525879,2.7391998767852783
1702212057801836800,60.0488369140625,0.8780999779701233,-1.9460999965667725,0.8495000004768372
1702212057861836800,60.1088369140625,1.9198999404907227,-3.638399839401245,-0.36910000443458557
1702212057921836800,60.1688369140625,2.7720999717712402,-4.159899711608887,-2.124300003051758
1702212057981836800,60.2288369140625,3.027599811553955,-4.639100074768066,-4.8429999351501465
1702212058041836800,60.2888369140625,1.9931999444961548,-5.868399620056152,-7.4452996253967285
1702212058101836800,60.3488369140625,-0.22339999675750732,-6.027299880981445,-6.849400043487549
1702212058161836800,60.4088369140625,1.3223999738693237,-6.089200019836426,-4.107100009918213
1702212058221836800,60.4688369140625,-1.031499981880188,-5.983500003814697,-1.914099931716919
1702212058281836800,60.5288369140625,-1.4843000173568726,-5.714799880981445,0.3905999958515167
1702212058341836800,60.5888369140625,-0.6416999697685242,-1.4270999431610107,2.7578999996185303
1702212058401836800,60.6488369140625,-0.8592000007629395,1.886299967765808,4.801700115203857
1702212058461836800,60.7088369140625,-2.5613999366760254,2.5053000450134277,3.5077998638153076
1702212058521836800,60.7688369140625,-4.444799900054932,4.839900016784668,5.626899719238281
1702212058581836800,60.8288369140625,-4.735699653625488,5.045899868011475,5.024799823760986
1702212058641836800,60.8888369140625,-2.4682998657226562,4.969299793243408,4.13539981842041
1702212058701836800,60.9488369140625,-3.7415997982025146,-0.23799999058246613,7.741799831390381
1702212058761836800,61.0088369140625,-3.0299999713897705,-0.9898999929428101,7.957199573516846
1702212058821836800,61.0688369140625,-1.9268999099731445,-1.7924000024795532,3.0588998794555664
1702212058881836800,61.1288369140625,-0.4285999834537506,-3.03629994392395,2.487799882888794
1702212058941836800,61.1888369140625,0.5199999809265137,-3.2256999015808105,1.1435999870300293
1702212059001836800,61.2488369140625,1.2226999998092651,-3.2588000297546387,-0.7506999969482422
1702212059061836800,61.3088369140625,1.3395999670028687,-3.743299961090088,-3.0147998332977295
1702212059121836800,61.3688369140625,1.6136000156402588,-3.989499807357788,-5.132699966430664
1702212059181836800,61.4288369140625,2.1547999382019043,-3.0139000415802,-8.621299743652344
1702212059241836800,61.4888369140625,0.5562999844551086,-4.82919979095459,-8.461400032043457
1702212059301863400,61.54886352539062,-1.3621000051498413,-7.561299800872803,-4.7281999588012695
1702212059361836800,61.6088369140625,-1.4757999181747437,-9.043700218200684,-0.500499963760376
1702212059421836800,61.6688369140625,-0.5701999664306641,-4.234299659729004,2.860299825668335
1702212059481836800,61.7288369140625,0.5394999980926514,-3.609799861907959,2.2024998664855957
1702212059541836800,61.7888369140625,1.3676999807357788,-0.7549999952316284,2.4161999225616455
1702212059601836800,61.8488369140625,-0.5051000118255615,1.1886999607086182,5.322700023651123
1702212059661836800,61.9088369140625,-2.188499927520752,3.4890999794006348,7.6417999267578125
1702212059721836800,61.9688369140625,-3.9733998775482178,5.488399982452393,6.959499835968018
1702212059781836800,62.0288369140625,-4.005300045013428,6.738100051879883,5.569900035858154
1702212059841836800,62.0888369140625,-3.8051998615264893,3.9041998386383057,7.918399810791016
1702212059901836800,62.1488369140625,-4.033299922943115,0.9835000038146973,11.190400123596191
1702212059961836800,62.2088369140625,-2.5708999633789062,-0.004900000058114529,7.2963995933532715
1702212060021836800,62.2688369140625,-1.7733999490737915,-3.077199935913086,5.980999946594238
1702212060081836800,62.3288369140625,-1.011199951171875,-3.173099994659424,5.280200004577637
1702212060141836800,62.3888369140625,0.8121999502182007,-3.583099842071533,1.7452999353408813
1702212060201836800,62.4488369140625,2.184499979019165,-4.891299724578857,0.03280000016093254
1702212060261836800,62.5088369140625,3.7453999519348145,-6.029599666595459,-1.517699956893921
1702212060321836800,62.5688369140625,4.789999961853027,-5.486099720001221,-3.1390998363494873
1702212060381836800,62.6288369140625,5.202699661254883,-6.144999980926514,-7.813799858093262
1702212060441836800,62.6888369140625,2.1654999256134033,-7.507599830627441,-8.848299980163574
1702212060501836800,62.7488369140625,-2.2681000232696533,-10.663000106811523,-5.416199684143066
1702212060561836800,62.8088369140625,-0.4271000027656555,-9.75059986114502,-1.0600999593734741
1702212060621836800,62.8688369140625,-2.0688998699188232,-8.780399322509766,1.6288999319076538
1702212060681836800,62.9288369140625,-1.2911999225616455,-2.780099868774414,2.8529999256134033
1702212060741836800,62.9888369140625,-2.2692999839782715,-0.1379999965429306,5.620100021362305
1702212060801836800,63.0488369140625,-2.7291998863220215,1.8334999084472656,7.633999824523926
1702212060861836800,63.1088369140625,-2.0629000663757324,4.370100021362305,7.777599811553955
1702212060921836800,63.1688369140625,-1.8481999635696411,5.816400051116943,6.959699630737305
1702212060981836800,63.2288369140625,-2.328199863433838,5.585399627685547,7.530299663543701
1702212061041836800,63.2888369140625,-4.061100006103516,1.7055999040603638,8.600299835205078
1702212061101836800,63.3488369140625,-3.86299991607666,1.1369999647140503,8.95989990234375
1702212061161836800,63.4088369140625,-3.0827999114990234,-2.7339999675750732,5.816299915313721
1702212061221836800,63.4688369140625,0.008899999782443047,-3.673499822616577,2.5836000442504883
1702212061281836800,63.5288369140625,1.1236000061035156,-1.3156999349594116,-0.368399977684021
1702212061341836800,63.5888369140625,1.583400011062622,-1.977099895477295,-1.0859999656677246
1702212061401863400,63.648863525390624,1.8269000053405762,-2.757499933242798,-0.8154999613761902
1702212061461836800,63.7088369140625,1.7516999244689941,-3.7476999759674072,-0.8798999786376953
1702212061521836800,63.7688369140625,2.2876999378204346,-5.187399864196777,-4.111599922180176
1702212061581836800,63.8288369140625,2.642699956893921,-5.404699802398682,-8.547999382019043
1702212061641836800,63.8888369140625,0.38189998269081116,-8.005199432373047,-5.183499813079834
1702212061701836800,63.9488369140625,0.43230000138282776,-6.227299690246582,-0.8349999785423279
1702212061761836800,64.0088369140625,-2.053999900817871,-5.079899787902832,0.1833999902009964
1702212061821836800,64.0688369140625,-0.3772999942302704,-0.11710000038146973,0.13570000231266022
1702212061881836800,64.1288369140625,-2.5511999130249023,1.928399920463562,0.2003999948501587
1702212061941836800,64.1888369140625,-3.976799964904785,2.146899938583374,3.9778997898101807
1702212062001836800,64.2488369140625,-4.779999732971191,4.4293999671936035,5.096299648284912
1702212062061836800,64.3088369140625,-5.222599983215332,4.3618998527526855,3.523899793624878
1702212062121836800,64.3688369140625,-4.138599872589111,1.577299952507019,5.577399730682373
1702212062181836800,64.4288369140625,-4.574699878692627,0.46879997849464417,7.458499908447266
1702212062241836800,64.4888369140625,-3.35479998588562,-1.6308999061584473,3.6693999767303467
1702212062301836800,64.5488369140625,-1.4428999423980713,-3.8030998706817627,2.905400037765503
1702212062361836800,64.6088369140625,0.44839999079704285,-1.587999939918518,0.683899998664856
1702212062421836800,64.6688369140625,0.6834999918937683,0.08889999985694885,-1.4020999670028687
1702212062481836800,64.7288369140625,1.4567999839782715,-1.035499930381775,-2.773599863052368
1702212062541836800,64.7888369140625,2.2921998500823975,-2.042099952697754,-3.6069998741149902
1702212062601836800,64.8488369140625,1.6891999244689941,-3.1268999576568604,-3.8018999099731445
1702212062661836800,64.9088369140625,1.5621999502182007,-4.296099662780762,-4.241699695587158
1702212062721836800,64.9688369140625,0.3037000000476837,-7.886399745941162,-5.590199947357178
1702212062781836800,65.0288369140625,2.1273999214172363,-4.601900100708008,-1.8700999021530151
1702212062841836800,65.0888369140625,-1.4052000045776367,-5.148699760437012,-0.28459998965263367
1702212062901836800,65.1488369140625,0.6449999809265137,-2.724299907684326,0.927299976348877
1702212062961836800,65.2088369140625,0.7217999696731567,0.4861999750137329,1.4290000200271606
1702212063021836800,65.2688369140625,0.5001999735832214,1.0614999532699585,3.4392998218536377
1702212063081836800,65.3288369140625,-0.3862999975681305,2.282399892807007,5.421499729156494
1702212063141836800,65.3888369140625,-2.787099838256836,2.2523000240325928,6.166199684143066
1702212063201836800,65.4488369140625,-4.6078996658325195,4.183300018310547,6.096999645233154
1702212063261836800,65.5088369140625,-5.815299987792969,4.448400020599365,5.471799850463867
1702212063321836800,65.5688369140625,-5.289799690246582,3.698899984359741,5.207399845123291
1702212063381836800,65.6288369140625,-5.243499755859375,2.394700050354004,9.705299377441406
1702212063441836800,65.6888369140625,-3.3197999000549316,-2.819200038909912,8.09589958190918
1702212063501863400,65.74886352539062,-0.05719999969005585,-2.915299892425537,5.082099914550781
1702212063561836800,65.8088369140625,-0.21409998834133148,-2.2612998485565186,2.9266998767852783
1702212063621836800,65.8688369140625,1.1435999870300293,-3.8011999130249023,1.0733000040054321
1702212063681836800,65.9288369140625,2.5504000186920166,-4.813199996948242,-0.9702999591827393
1702212063741836800,65.9888369140625,2.6785998344421387,-5.422800064086914,-4.422599792480469
1702212063801836800,66.0488369140625,3.0318000316619873,-8.564199447631836,-6.277099609375
1702212063861836800,66.1088369140625,2.665799856185913,-8.751799583435059,-9.663299560546875
1702212063921836800,66.1688369140625,1.9498999118804932,-9.828399658203125,-5.8964996337890625
1702212063981836800,66.2288369140625,-1.166599988937378,-9.690999984741211,-1.5814999341964722
1702212064041836800,66.2888369140625,-0.543999969959259,-7.378299713134766,1.5633000135421753
1702212064101836800,66.3488369140625,-1.146799921989441,-1.726099967956543,5.132899761199951
1702212064161836800,66.4088369140625,-1.1174999475479126,0.5329999923706055,5.616399765014648
1702212064221836800,66.4688369140625,-1.548799991607666,0.3423999845981598,4.27269983291626
1702212064281836800,66.5288369140625,-2.80649995803833,2.8406999111175537,8.274999618530273
1702212064341836800,66.5888369140625,-4.421299934387207,6.2322998046875,6.7316999435424805
1702212064401836800,66.6488369140625,-6.043600082397461,4.981400012969971,5.615799903869629
1702212064461836800,66.7088369140625,-5.60890007019043,3.4158999919891357,8.116299629211426
1702212064521836800,66.7688369140625,-4.576900005340576,3.5712997913360596,8.665800094604492
1702212064581836800,66.8288369140625,-3.684199810028076,-0.752299964427948,6.35159969329834
1702212064641836800,66.8888369140625,-2.0737998485565186,-3.7189998626708984,7.718999862670898
1702212064701836800,66.9488369140625,-0.7127000093460083,-3.8417999744415283,4.019799709320068
1702212064761836800,67.0088369140625,1.2903999090194702,-4.323599815368652,1.385699987411499
1702212064821905700,67.06890576171875,2.7368998527526855,-5.278899669647217,-0.6678999662399292
1702212064881836800,67.1288369140625,3.75219988822937,-4.956199645996094,-2.4159998893737793
1702212064941836800,67.1888369140625,4.656399726867676,-5.472799777984619,-7.023599624633789
1702212065001836800,67.2488369140625,3.7356998920440674,-7.031299591064453,-9.081099510192871
1702212065061836800,67.3088369140625,1.9169999361038208,-5.7423996925354,-6.887899875640869
1702212065121836800,67.3688369140625,-0.948699951171875,-10.258199691772461,-3.544600009918213
1702212065181836800,67.4288369140625,0.37959998846054077,-7.774699687957764,-1.4865999221801758
1702212065241836800,67.4888369140625,-1.2023999691009521,-6.393699645996094,0.6467999815940857
1702212065301836800,67.5488369140625,-0.5328999757766724,-1.3492999076843262,1.2918000221252441
1702212065361836800,67.6088369140625,-2.7239999771118164,0.11409999430179596,2.5127999782562256
1702212065421836800,67.6688369140625,-5.2444000244140625,0.3001999855041504,7.285099983215332
1702212065481836800,67.7288369140625,-4.730199813842773,3.7395999431610107,7.179499626159668
1702212065541836800,67.7888369140625,-4.390399932861328,4.532700061798096,5.630799770355225
1702212065601863400,67.84886352539063,-2.6185998916625977,1.9950000047683716,9.812199592590332
1702212065661836800,67.9088369140625,-3.2714998722076416,1.2009999752044678,9.876500129699707
1702212065721836800,67.9688369140625,-3.4976999759674072,0.7013999819755554,5.493499755859375
1702212065781836800,68.0288369140625,-3.2358999252319336,-4.134200096130371,6.277099609375
1702212065841836800,68.0888369140625,-1.5705000162124634,-3.4642999172210693,4.0416998863220215
1702212065901836800,68.1488369140625,0.39879998564720154,-2.084199905395508,1.0450999736785889
1702212065961836800,68.2088369140625,2.0341999530792236,-2.6751999855041504,-1.0898000001907349
1702212066021836800,68.2688369140625,2.6765999794006348,-4.079100131988525,-3.067499876022339
1702212066081836800,68.3288369140625,3.45770001411438,-4.107999801635742,-3.9214999675750732
1702212066141836800,68.3888369140625,3.4564998149871826,-5.189199924468994,-4.955499649047852
1702212066201836800,68.4488369140625,3.5539000034332275,-4.970200061798096,-5.499000072479248
1702212066261836800,68.5088369140625,1.4502999782562256,-7.38979959487915,-4.886600017547607
1702212066321836800,68.5688369140625,0.5076999664306641,-4.541899681091309,-2.7570998668670654
1702212066381836800,68.6288369140625,-3.0916998386383057,-3.864499807357788,-2.1805999279022217
1702212066441836800,68.6888369140625,-0.649899959564209,-5.103099822998047,0.9853999614715576
1702212066501836800,68.7488369140625,-0.08020000159740448,-1.077199935913086,3.180999994277954
1702212066561836800,68.8088369140625,-3.3138999938964844,1.7135999202728271,3.7528998851776123
1702212066621836800,68.8688369140625,-2.641700029373169,2.7894999980926514,2.7818000316619873
1702212066681836800,68.9288369140625,-3.4313998222351074,3.3509998321533203,3.7697999477386475
1702212066741836800,68.9888369140625,-2.711899995803833,2.3620998859405518,5.936999797821045
1702212066801836800,69.0488369140625,-1.5677999258041382,2.2634999752044678,6.340399742126465
1702212066861836800,69.1088369140625,-3.1987998485565186,0.12680000066757202,7.706299781799316
1702212066921836800,69.1688369140625,-3.220399856567383,1.4702999591827393,6.729899883270264
1702212066981836800,69.2288369140625,-3.0334999561309814,-1.7156000137329102,4.180099964141846
1702212067041836800,69.2888369140625,-1.52839994430542,-3.518399953842163,2.1714999675750732
1702212067101836800,69.3488369140625,0.8810999989509583,-2.8324999809265137,-0.8030999898910522
1702212067161836800,69.4088369140625,2.450700044631958,-2.4268999099731445,-3.401099920272827
1702212067221836800,69.4688369140625,3.4687998294830322,-2.6617000102996826,-5.059999942779541
1702212067281836800,69.5288369140625,3.8561999797821045,-2.748499870300293,-4.713500022888184
1702212067341836800,69.5888369140625,1.6730999946594238,-4.320699691772461,-3.7372000217437744
1702212067401836800,69.6488369140625,-1.6770999431610107,-4.750899791717529,-2.1803998947143555
1702212067461836800,69.7088369140625,-1.7375999689102173,-5.0341997146606445,-1.5269999504089355
1702212067521836800,69.7688369140625,-3.18179988861084,-1.1571999788284302,-1.6204999685287476
1702212067581836800,69.8288369140625,-2.956399917602539,-0.8211999535560608,-0.11099999397993088
1702212067641836800,69.8888369140625,-0.009200000204145908,1.6141999959945679,-0.7411999702453613
1702212067701863400,69.94886352539062,-0.7303000092506409,2.1659998893737793,-1.652400016784668
1702212067761836800,70.0088369140625,0.852400004863739,0.5478000044822693,0.46779999136924744
1702212067821836800,70.0688369140625,0.15569999814033508,1.121899962425232,2.0759999752044678
1702212067881836800,70.1288369140625,-1.8690999746322632,2.4019999504089355,1.5846999883651733
1702212067941836800,70.1888369140625,-2.173799991607666,2.4136998653411865,3.1364998817443848
1702212068001836800,70.2488369140625,-0.8154999613761902,2.987799882888794,2.426800012588501
1702212068061836800,70.3088369140625,-3.6245999336242676,-3.4893999099731445,6.346099853515625
1702212068121836800,70.3688369140625,-3.564199924468994,0.03849999979138374,7.290599822998047
1702212068181836800,70.4288369140625,-1.449199914932251,-2.7448999881744385,1.8870999813079834
1702212068241836800,70.4888369140625,0.5745999813079834,-0.7319999933242798,-1.3008999824523926
1702212068301836800,70.5488369140625,0.42809998989105225,0.9509999752044678,-2.9765000343322754
1702212068361836800,70.6088369140625,0.29569998383522034,0.11999999731779099,-3.749300003051758
1702212068421836800,70.6688369140625,0.7631999850273132,-2.121000051498413,-3.6519999504089355
1702212068481836800,70.7288369140625,0.4926999807357788,-2.7172000408172607,-2.8317999839782715
1702212068541836800,70.7888369140625,-0.3441999852657318,-3.239499807357788,-2.3232998847961426
1702212068601836800,70.8488369140625,-1.1398999691009521,-2.6480000019073486,-2.970099925994873
1702212068661836800,70.9088369140625,-1.6055999994277954,-4.06119966506958,-2.0595998764038086
1702212068721836800,70.9688369140625,-1.3901000022888184,-1.479699969291687,-0.8873999714851379
1702212068781836800,71.0288369140625,0.3172000050544739,-1.2760999202728271,-0.272599995136261
1702212068841836800,71.0888369140625,2.216599941253662,1.6212999820709229,-0.4421999752521515
1702212068901836800,71.1488369140625,2.263700008392334,1.385599970817566,-0.6561999917030334
1702212068961836800,71.2088369140625,0.3781999945640564,0.47589999437332153,2.2547998428344727
1702212069021836800,71.2688369140625,-3.023900032043457,3.511699914932251,6.977299690246582
1702212069081836800,71.3288369140625,-3.3481998443603516,2.578399896621704,4.0192999839782715
1702212069141836800,71.3888369140625,-1.684399962425232,2.2374000549316406,4.011499881744385
1702212069201836800,71.4488369140625,-3.3371999263763428,-1.1253999471664429,5.847499847412109
1702212069261836800,71.5088369140625,-3.5464999675750732,0.35040000081062317,5.760799884796143
1702212069321836800,71.5688369140625,-2.5046000480651855,-2.224900007247925,2.721099853515625
1702212069381836800,71.6288369140625,-0.652899980545044,-2.75249981880188,0.2701999843120575
1702212069441836800,71.6888369140625,1.1548999547958374,-2.239500045776367,-2.6073999404907227
1702212069501836800,71.7488369140625,1.8077999353408813,-1.2958999872207642,-3.5302999019622803
1702212069561836800,71.8088369140625,2.1476998329162598,-1.1881999969482422,-4.007499694824219
1702212069621836800,71.8688369140625,1.4292999505996704,-0.7346000075340271,-4.861000061035156
1702212069681836800,71.9288369140625,-0.1274999976158142,-2.3571999073028564,-4.270899772644043
1702212069741836800,71.9888369140625,-0.9113999605178833,-3.8279998302459717,-1.6210999488830566
1702212069801836800,72.0488369140625,-1.520799994468689,-2.881899833679199,-0.3685999810695648
1702212069861836800,72.1088369140625,-1.6470999717712402,-3.8650999069213867,0.3677999973297119
1702212069921836800,72.1688369140625,-1.3983999490737915,-1.1517999172210693,1.1074999570846558
1702212069981836800,72.2288369140625,-1.3918999433517456,-0.36139997839927673,1.420699954032898
1702212070041836800,72.2888369140625,1.083899974822998,1.257599949836731,-0.5631999969482422
1702212070101836800,72.3488369140625,1.9751999378204346,1.9828999042510986,-1.6936999559402466
1702212070161836800,72.4088369140625,1.7120000123977661,0.4172999858856201,-0.4998999834060669
1702212070221863400,72.46886352539063,-0.7299999594688416,0.32189998030662537,3.270599842071533
1702212070281836800,72.5288369140625,-3.2356998920440674,3.8483998775482178,4.515199661254883
1702212070341836800,72.5888369140625,-3.074899911880493,2.952199935913086,1.9443999528884888
1702212070401836800,72.6488369140625,-1.788599967956543,1.7670999765396118,2.021399974822998
1702212070461836800,72.7088369140625,-1.633099913597107,-0.5393999814987183,1.8463999032974243
1702212070521836800,72.7688369140625,-1.89739990234375,-0.41990000009536743,2.1875998973846436
1702212070581836800,72.8288369140625,-2.8703999519348145,-1.7462999820709229,2.648699998855591
1702212070641836800,72.8888369140625,-1.0378999710083008,-2.414799928665161,0.7228999733924866
1702212070701836800,72.9488369140625,0.18490000069141388,-0.2969000041484833,-2.2544000148773193
1702212070761836800,73.0088369140625,0.9408999681472778,1.4747999906539917,-3.7403998374938965
1702212070821836800,73.0688369140625,0.5609999895095825,0.45909997820854187,-3.79259991645813
1702212070881836800,73.1288369140625,0.29249998927116394,-0.2821999788284302,-2.3984999656677246
1702212070941836800,73.1888369140625,-1.0587999820709229,-0.7586999535560608,-1.0144000053405762
1702212071001836800,73.2488369140625,-1.9921998977661133,-2.050600051879883,-0.13379999995231628
1702212071061836800,73.3088369140625,-2.8668999671936035,-3.263399839401245,0.5015000104904175
1702212071121836800,73.3688369140625,-0.8869999647140503,1.2908999919891357,2.1118998527526855
1702212071181836800,73.4288369140625,-1.7804999351501465,-0.2724999785423279,1.0929999351501465
1702212071241836800,73.4888369140625,0.9016000032424927,-0.22669999301433563,0.7148999571800232
1702212071301836800,73.5488369140625,1.4745999574661255,1.9548999071121216,-1.029099941253662
1702212071361836800,73.6088369140625,1.2668999433517456,1.3181999921798706,-1.896299958229065
1702212071421836800,73.6688369140625,-1.2747999429702759,0.08139999955892563,-0.9039999842643738
1702212071481836800,73.7288369140625,-3.7177999019622803,1.2640999555587769,-0.7511999607086182
1702212071541836800,73.7888369140625,-2.088399887084961,3.212899923324585,-1.1345000267028809
1702212071601836800,73.8488369140625,-0.3147999942302704,1.2311999797821045,-0.2523999810218811
1702212071661836800,73.9088369140625,0.2678000032901764,1.3495999574661255,0.8779999613761902
1702212071721836800,73.9688369140625,-3.1526999473571777,-3.63539981842041,3.8661999702453613
1702212071781836800,74.0288369140625,-3.8554999828338623,1.3833999633789062,9.267399787902832
1702212071841836800,74.0888369140625,-0.8233000040054321,-1.7562999725341797,2.894899845123291
1702212071901863400,74.14886352539062,0.6403999924659729,0.6796999573707581,-0.017400000244379044
1702212071961836800,74.2088369140625,0.1639000028371811,1.6577999591827393,-1.7888000011444092
1702212072021836800,74.2688369140625,-0.40219998359680176,0.3149999976158142,-2.36899995803833
1702212072081836800,74.3288369140625,-0.4212999939918518,-0.00559999980032444,-2.758999824523926
1702212072141836800,74.3888369140625,-1.2079999446868896,-2.727099895477295,-2.9168999195098877
1702212072201836800,74.4488369140625,-1.6930999755859375,-4.402100086212158,-2.3337998390197754
1702212072261836800,74.5088369140625,-0.4754999876022339,-2.630699872970581,-4.322199821472168
1702212072321836800,74.5688369140625,-2.940500020980835,-5.072099685668945,-4.933199882507324
1702212072381836800,74.6288369140625,0.19859999418258667,-5.276000022888184,-1.566499948501587
1702212072441836800,74.6888369140625,1.6713999509811401,-3.412799835205078,0.07289999723434448
1702212072501836800,74.7488369140625,2.5588998794555664,0.16599999368190765,-0.1232999935746193
1702212072561836800,74.8088369140625,2.9024999141693115,0.4527999758720398,1.2999999523162842
1702212072621836800,74.8688369140625,0.9307000041007996,0.7700999975204468,2.6273999214172363
1702212072681836800,74.9288369140625,-0.15469999611377716,3.7595999240875244,7.648099899291992
1702212072741836800,74.9888369140625,-1.7175999879837036,4.217700004577637,8.046899795532227
1702212072801836800,75.0488369140625,-2.330399990081787,4.540499687194824,6.986299991607666
1702212072861836800,75.1088369140625,-4.368899822235107,4.31119966506958,7.320399761199951
1702212072921836800,75.1688369140625,-6.312900066375732,-1.080399990081787,8.331199645996094
1702212072981836800,75.2288369140625,-4.579799652099609,-4.8308000564575195,8.069000244140625
1702212073041836800,75.2888369140625,-0.8449999690055847,-1.6758999824523926,3.8713998794555664
1702212073101836800,75.3488369140625,1.129599928855896,-1.7851999998092651,1.2380999326705933
1702212073161836800,75.4088369140625,2.59689998626709,-3.4807000160217285,-0.592199981212616
1702212073221836800,75.4688369140625,2.6368000507354736,-4.809499740600586,-0.4236999750137329
1702212073281836800,75.5288369140625,2.563999891281128,-9.029799461364746,-2.5590999126434326
1702212073341836800,75.5888369140625,4.157599925994873,-11.355400085449219,-10.295499801635742
1702212073401836800,75.6488369140625,4.086599826812744,-11.949199676513672,-10.288899421691895
1702212073461836800,75.7088369140625,1.0149999856948853,-8.012700080871582,-3.930799961090088
1702212073521836800,75.7688369140625,-4.642299652099609,-10.288700103759766,-0.8497999906539917
1702212073581836800,75.8288369140625,-3.663599967956543,-5.155200004577637,5.536499977111816
1702212073641836800,75.8888369140625,-4.524799823760986,0.9312999844551086,10.507800102233887
1702212073701836800,75.9488369140625,-0.9448999762535095,-0.10339999943971634,4.405999660491943
1702212073761836800,76.0088369140625,-2.8631999492645264,3.1908998489379883,6.337399959564209
1702212073821836800,76.0688369140625,-5.174799919128418,4.536499977111816,8.807600021362305
1702212073881836800,76.1288369140625,-8.071100234985352,3.308799982070923,8.91249942779541
1702212073941836800,76.1888369140625,-8.45930004119873,4.3557000160217285,6.748899936676025
1702212074001863400,76.24886352539062,-6.353399753570557,1.3292999267578125,7.575999736785889
1702212074061836800,76.3088369140625,-6.152099609375,-5.782599925994873,11.561999320983887
1702212074121836800,76.3688369140625,-0.9515999555587769,-5.698400020599365,7.450799942016602
1702212074181836800,76.4288369140625,0.9886999726295471,-5.578799724578857,3.044299840927124
