time,seconds_elapsed,z,y,x
1702689204227155700,0.03415576171875,-0.25429999828338623,-0.2786000072956085,-0.29170000553131104
1702689204287154200,0.094154296875,-0.033799998462200165,-0.06650000065565109,0.03480000048875809
1702689204347154200,0.154154296875,-0.1898999959230423,0.06229999661445618,-0.12370000034570694
1702689204407154200,0.214154296875,0.03779999911785126,0.06659999489784241,0.0032999999821186066
1702689204467154200,0.274154296875,-0.20879998803138733,-0.1062999963760376,-0.012000000104308128
1702689204527154200,0.334154296875,-0.11369999498128891,-0.13609999418258667,-0.01549999974668026
1702689204587154200,0.394154296875,-0.016999999061226845,0.05509999766945839,-0.032600000500679016
1702689204647154200,0.454154296875,-0.01730000041425228,0.0867999941110611,0.031199999153614044
1702689204707154200,0.514154296875,-0.07559999823570251,0.08999999612569809,-0.13319998979568481
1702689204767154200,0.574154296875,-0.08949999511241913,0.02929999865591526,0.18649999797344208
1702689204827154200,0.634154296875,-0.15479999780654907,-0.13369999825954437,-0.2133999913930893
1702689204887154200,0.694154296875,-0.13040000200271606,-0.2874000072479248,0.24149999022483826
1702689204947154200,0.754154296875,-0.19039998948574066,-0.06759999692440033,-0.05009999871253967
1702689205007154200,0.814154296875,-0.27629998326301575,-0.0681999996304512,-0.13009999692440033
1702689205067154200,0.874154296875,-0.13319998979568481,0.15559999644756317,0.34919998049736023
1702689205127154200,0.934154296875,-0.17809998989105225,0.18539999425411224,0.2264999896287918
1702689205187154200,0.994154296875,-0.062199998646974564,-0.0364999994635582,0.09559999406337738
1702689205247154200,1.054154296875,-0.28759998083114624,-0.07769999653100967,-0.04529999941587448
1702689205307154200,1.114154296875,-0.5238000154495239,-0.03659999743103981,-0.2175999879837036
1702689205367154200,1.174154296875,0.3813000023365021,0.3158999979496002,-0.4098999798297882
1702689205427177500,1.234177490234375,0.00930000003427267,-0.7980999946594238,1.4519000053405762
1702689205487154200,1.294154296875,0.6588000059127808,0.2126999944448471,0.09719999879598618
1702689205547154200,1.354154296875,-0.24279999732971191,-0.3402999937534332,0.05999999865889549
1702689205607154200,1.414154296875,-0.09019999951124191,-0.04079999774694443,-0.7888000011444092
1702689205667154200,1.474154296875,-0.5242999792098999,-0.12469999492168427,0.2678000032901764
1702689205727154200,1.534154296875,0.11299999803304672,0.43320000171661377,-0.22619999945163727
1702689205787154200,1.594154296875,-0.12109999358654022,-0.0064999996684491634,0.17080000042915344
1702689205847154200,1.654154296875,-0.6019999980926514,-0.15629999339580536,0.3075999915599823
1702689205907154200,1.714154296875,-0.4731999933719635,-0.13359999656677246,0.7511999607086182
1702689205967154200,1.774154296875,-0.5983999967575073,-0.0648999959230423,0.2028999924659729
1702689206027154200,1.834154296875,0.20520000159740448,0.22190000116825104,0.19280000030994415
1702689206087154200,1.894154296875,-0.02969999983906746,-0.10049999505281448,0.001500000013038516
1702689206147154200,1.954154296875,-0.028999999165534973,-0.10929999500513077,0.18889999389648438
1702689206207154200,2.014154296875,-0.5022000074386597,-0.23389999568462372,-0.2101999968290329
1702689206267154200,2.074154296875,-1.1089999675750732,-0.5173999667167664,-0.219200000166893
1702689206327154200,2.134154296875,-0.1842999905347824,1.2479000091552734,-1.094099998474121
1702689206387154200,2.194154296875,-0.20889998972415924,-0.9098999500274658,0.7310000061988831
1702689206447154200,2.254154296875,0.7404999732971191,-0.5476999878883362,-0.2190999984741211
1702689206507154200,2.314154296875,0.36489999294281006,-0.3577999770641327,0.8007999658584595
1702689206567154200,2.374154296875,0.16849999129772186,0.30219998955726624,-0.01589999906718731
1702689206627154200,2.434154296875,-1.2702999114990234,0.241799995303154,-0.9120999574661255
1702689206687154200,2.494154296875,-0.5095999836921692,0.07880000025033951,0.33329999446868896
1702689206747154200,2.554154296875,-0.33789998292922974,-0.03680000081658363,0.08810000121593475
1702689206807154200,2.614154296875,-0.46709999442100525,-0.17589999735355377,0.18729999661445618
1702689206867154200,2.674154296875,0.11739999800920486,-0.2256999909877777,0.45979997515678406
1702689206927154200,2.734154296875,-0.09200000017881393,0.01529999915510416,0.14549998939037323
1702689206987154200,2.794154296875,-0.2516999840736389,0.1898999959230423,0.09209999442100525
1702689207047154200,2.854154296875,0.20430000126361847,0.020499998703598976,0.41749998927116394
1702689207107154200,2.914154296875,-0.5557999610900879,0.07499999552965164,-0.1882999986410141
1702689207167154200,2.974154296875,-0.3434999883174896,0.2011999934911728,0.025999998673796654
1702689207227154200,3.034154296875,-0.9027000069618225,-0.3942999839782715,-1.2961000204086304
1702689207287154200,3.094154296875,0.1599999964237213,-0.8615999817848206,-0.6647999882698059
1702689207347154200,3.154154296875,0.026899999007582664,-0.09200000017881393,-0.11919999867677689
1702689207407154200,3.214154296875,-0.27869999408721924,0.29979997873306274,-0.6022999882698059
1702689207467154200,3.274154296875,0.2913999855518341,0.2102999985218048,0.6776999831199646
1702689207527177500,3.334177490234375,-0.19119998812675476,-0.18619999289512634,0.17719998955726624
1702689207587154200,3.394154296875,-0.5712000131607056,-0.08579999953508377,0.6040999889373779
1702689207647154200,3.454154296875,-0.06679999828338623,-0.13449999690055847,0.3935999870300293
1702689207707154200,3.514154296875,-0.47529998421669006,0.09609999507665634,-0.18639999628067017
1702689207767154200,3.574154296875,0.09119999408721924,0.05169999971985817,0.2645999789237976
1702689207827154200,3.634154296875,-0.5806999802589417,-0.0471000000834465,0.08320000022649765
1702689207887154200,3.694154296875,0.17389999330043793,0.2791000008583069,0.21619999408721924
1702689207947154200,3.754154296875,0.6089999675750732,-0.4650999903678894,0.46320000290870667
1702689208007154200,3.814154296875,0.035499997437000275,-0.05889999866485596,-1.473699927330017
1702689208067154200,3.874154296875,-0.22939999401569366,-0.12189999967813492,-0.4226999878883362
1702689208127154200,3.934154296875,-0.0348999984562397,0.07909999787807465,-0.6092000007629395
1702689208187154200,3.994154296875,0.026899999007582664,0.16279999911785126,0.11919999867677689
1702689208247154200,4.054154296875,0.06709999591112137,-0.023000000044703484,0.5033999681472778
1702689208307154200,4.114154296875,-0.2606000006198883,-0.4917999804019928,-0.26479998230934143
1702689208367154200,4.174154296875,-0.5257999897003174,0.03629999980330467,0.7721999883651733
1702689208427154200,4.234154296875,-0.18949998915195465,-0.06759999692440033,-0.15119999647140503
1702689208487154200,4.294154296875,0.37049999833106995,0.40059998631477356,0.41279998421669006
1702689208547154200,4.354154296875,-0.19529999792575836,-0.26190000772476196,-0.015099999494850636
1702689208607154200,4.414154296875,-0.5109999775886536,0.0802999958395958,0.4519999921321869
1702689208667154200,4.474154296875,0.14659999310970306,-0.14180000126361847,-0.19189999997615814
1702689208727154200,4.534154296875,-0.21889999508857727,-0.2565000057220459,-0.5498999953269958
1702689208787154200,4.594154296875,-0.23819999396800995,-0.19460000097751617,-0.5242999792098999
1702689208847154200,4.654154296875,-0.6638000011444092,0.1841999888420105,-0.18050000071525574
1702689208907154200,4.714154296875,0.14069999754428864,0.03529999777674675,-0.2303999960422516
1702689208967154200,4.774154296875,0.19449999928474426,-0.13740000128746033,0.6444000005722046
1702689209027154200,4.834154296875,-0.09149999916553497,-0.2547999918460846,0.3310000002384186
1702689209087154200,4.894154296875,-0.5335000157356262,-0.09539999812841415,0.7931999564170837
1702689209147154200,4.954154296875,-0.12719999253749847,-0.11400000005960464,0.19820000231266022
1702689209207154200,5.014154296875,-0.06300000101327896,0.2475999891757965,0.15929999947547913
1702689209267154200,5.074154296875,-0.08269999921321869,0.03529999777674675,-0.155799999833107
1702689209327154200,5.134154296875,0.04919999837875366,-0.08839999884366989,-0.05009999871253967
1702689209387154200,5.194154296875,0.050599999725818634,0,0.14949999749660492
1702689209447154200,5.254154296875,-0.25699999928474426,-0.08129999786615372,0.07400000095367432
1702689209507154200,5.314154296875,-0.24619999527931213,0.05299999937415123,-0.13349999487400055
1702689209567154200,5.374154296875,-0.23240000009536743,-0.11479999870061874,-0.3928999900817871
1702689209627177500,5.434177490234375,-0.20499999821186066,-0.3537999987602234,-0.08760000020265579
1702689209687154200,5.494154296875,0.491599977016449,0.1867000013589859,-0.2505999803543091
1702689209747154200,5.554154296875,0.2206999957561493,-0.17159999907016754,0.15150000154972076
1702689209807154200,5.614154296875,-0.2987000048160553,-0.07899999618530273,0.2361999899148941
1702689209867154200,5.674154296875,-0.3520999848842621,-0.1825999915599823,0.17509999871253967
1702689209927154200,5.734154296875,-0.29679998755455017,-0.20069999992847443,0.1793999969959259
1702689209987154200,5.794154296875,-0.06719999760389328,-0.12229999899864197,0.3443000018596649
1702689210047154200,5.854154296875,-0.38019999861717224,0.2671999931335449,-0.6007999777793884
1702689210107154200,5.914154296875,-0.05159999802708626,-0.09529999643564224,0.12780000269412994
1702689210167154200,5.974154296875,-0.11949999630451202,-0.05260000005364418,0.423799991607666
1702689210227154200,6.034154296875,0.015199999324977398,0.009599999524652958,0.20889998972415924
1702689210287154200,6.094154296875,-0.03500000014901161,0.031700000166893005,-0.4788999855518341
1702689210347154200,6.154154296875,-0.5120999813079834,-0.04429999738931656,-0.282399982213974
1702689210407154200,6.214154296875,-0.3775999844074249,0.002899999963119626,-0.6642999649047852
1702689210467154200,6.274154296875,-0.2572000026702881,-0.24809999763965607,0.09919999539852142
1702689210527154200,6.334154296875,0.18230000138282776,0.03989999741315842,-0.35040000081062317
1702689210587154200,6.394154296875,0.273499995470047,-0.08150000125169754,0.5443999767303467
1702689210647154200,6.454154296875,-0.1152999997138977,-0.21689999103546143,0.23409999907016754
1702689210707154200,6.514154296875,-0.3734000027179718,-0.20149999856948853,0.29099997878074646
1702689210767154200,6.574154296875,0.45319998264312744,0.1005999967455864,0.7383999824523926
1702689210827154200,6.634154296875,-0.35740000009536743,-0.014399999752640724,-0.6019999980926514
1702689210887154200,6.694154296875,-0.08060000091791153,-0.08379999548196793,-0.023499999195337296
1702689210947154200,6.754154296875,0.04490000009536743,-0.15680000185966492,-0.18119999766349792
1702689211007154200,6.814154296875,0.28919997811317444,-0.00019999999494757503,0.25040000677108765
1702689211067154200,6.874154296875,-0.45329999923706055,-0.08069999516010284,0.1437000036239624
1702689211127154200,6.934154296875,0.06469999998807907,-0.10929999500513077,-0.17499999701976776
1702689211187154200,6.994154296875,-0.06659999489784241,-0.13109999895095825,-0.19689999520778656
1702689211247154200,7.054154296875,-0.11499999463558197,-0.04039999842643738,0.08219999819993973
1702689211307154200,7.114154296875,-0.42149999737739563,-0.057099997997283936,-0.20919999480247498
1702689211367154200,7.174154296875,-0.4283999800682068,-0.07419999688863754,-0.5430999994277954
1702689211427154200,7.234154296875,0.0916999951004982,0.29919999837875366,0.43209999799728394
1702689211487154200,7.294154296875,-0.4585999846458435,-0.24249999225139618,0.17790000140666962
1702689211547154200,7.354154296875,0.12129999697208405,-0.0640999972820282,0.5882999897003174
1702689211607154200,7.414154296875,-0.29350000619888306,-0.1842999905347824,0.5339999794960022
1702689211667154200,7.474154296875,-0.026599999517202377,0.031599998474121094,-0.10799999535083771
1702689211727177500,7.534177490234375,0.3564999997615814,-0.03150000050663948,-0.028999999165534973
1702689211787154200,7.594154296875,-0.35269999504089355,-0.11999999731779099,-0.15359999239444733
1702689211847154200,7.654154296875,0.07400000095367432,0.01860000006854534,0.16049998998641968
1702689211907154200,7.714154296875,-0.49549999833106995,-0.250900000333786,-0.5390999913215637
1702689211967154200,7.774154296875,-0.26969999074935913,-0.062199998646974564,0.9539999961853027
1702689212027154200,7.834154296875,-0.02929999865591526,-0.11969999969005585,-1.6338999271392822
1702689212087154200,7.894154296875,-0.14630000293254852,-0.44110000133514404,0.140299990773201
1702689212147154200,7.954154296875,-0.3301999866962433,0.11229999363422394,0.2011999934911728
1702689212207154200,8.014154296875,0.3684999942779541,-0.013700000010430813,-0.1306999921798706
1702689212267154200,8.074154296875,-0.2531999945640564,0.003000000026077032,0.18629999458789825
1702689212327154200,8.134154296875,-0.21139998733997345,-0.3077999949455261,-0.09609999507665634
1702689212387154200,8.194154296875,0.1680999994277954,-0.17219999432563782,0.3402999937534332
1702689212447154200,8.254154296875,-0.889799952507019,0.0828000009059906,-0.4521999955177307
1702689212507154200,8.314154296875,0.17430000007152557,0.10889999568462372,0.2667999863624573
1702689212567154200,8.374154296875,-0.7781999707221985,-0.04820000007748604,0.17309999465942383
1702689212627154200,8.434154296875,0.23389999568462372,0.5701000094413757,0.5776999592781067
1702689212687154200,8.494154296875,-0.2936999797821045,-0.3974999785423279,0.18789999186992645
1702689212747154200,8.554154296875,-0.15299999713897705,-0.03920000046491623,-0.7687000036239624
1702689212807154200,8.614154296875,-0.22039999067783356,-0.21939998865127563,-0.59579998254776
1702689212867154200,8.674154296875,-0.21660000085830688,0.07509999722242355,0.06719999760389328
1702689212927154200,8.734154296875,0.5722000002861023,0.026899999007582664,-0.15649999678134918
1702689212987154200,8.794154296875,-0.4828999936580658,-0.13809999823570251,0.06700000166893005
1702689213047154200,8.854154296875,-0.29420000314712524,-0.35599997639656067,0.4259999990463257
1702689213107154200,8.914154296875,-0.15860000252723694,-0.2913999855518341,0.3278999924659729
1702689213167154200,8.974154296875,-0.0011999999405816197,-0.07069999724626541,-0.8107999563217163
1702689213227154200,9.034154296875,-0.0632999986410141,-0.13349999487400055,0.07669999450445175
1702689213287154200,9.094154296875,0.16589999198913574,0.09209999442100525,0.018299998715519905
1702689213347154200,9.154154296875,-0.6721000075340271,-0.21939998865127563,-0.4226999878883362
1702689213407154200,9.214154296875,-0.30169999599456787,0.04479999840259552,0.7577999830245972
1702689213467154200,9.274154296875,-0.16759999096393585,-0.18949998915195465,-0.6800000071525574
1702689213527154200,9.334154296875,0.3037000000476837,0.011299999430775642,-0.1127999946475029
1702689213587154200,9.394154296875,0.21739999949932098,-0.11759999394416809,-0.2924000024795532
1702689213647154200,9.454154296875,1.0073000192642212,0.26409998536109924,-0.10679999738931656
1702689213707154200,9.514154296875,-1.5049999952316284,-0.12860000133514404,0.28540000319480896
1702689213767154200,9.574154296875,-0.9145999550819397,-0.48539999127388,0.10480000078678131
1702689213827177500,9.634177490234375,-0.14980000257492065,-0.23229999840259552,0.6342999935150146
1702689213887154200,9.694154296875,-0.6579999923706055,-0.14159999787807465,-0.11979999393224716
1702689213947154200,9.754154296875,-0.05429999902844429,-0.03689999878406525,0.05649999901652336
1702689214007154200,9.814154296875,-0.047599997371435165,0.009800000116229057,0.04809999838471413
1702689214067154200,9.874154296875,0.05480000004172325,0.00839999970048666,0.012600000016391277
1702689214127154200,9.934154296875,-0.4578000009059906,0.15439999103546143,0.1225999966263771
1702689214187154200,9.994154296875,-0.499099999666214,-0.0026000000070780516,-0.10559999942779541
1702689214247154200,10.054154296875,0.02759999968111515,0.17819999158382416,0.1614999920129776
1702689214307154200,10.114154296875,0.11779999732971191,-0.24449999630451202,-0.2653000056743622
1702689214367154200,10.174154296875,0.02719999849796295,-0.28949999809265137,-0.46859997510910034
1702689214427154200,10.234154296875,-0.19439999759197235,-0.19049999117851257,-0.3458999991416931
1702689214487154200,10.294154296875,-0.5519999861717224,-0.0011999999405816197,-0.0729999989271164
1702689214547154200,10.354154296875,0.34119999408721924,-0.13619999587535858,-0.2911999821662903
1702689214607154200,10.414154296875,-0.05869999900460243,-0.33739998936653137,-0.09549999982118607
1702689214667154200,10.474154296875,-0.14379999041557312,-0.14249999821186066,0.2549999952316284
1702689214727154200,10.534154296875,0.4205999970436096,0.1273999959230423,0.4195999801158905
1702689214787154200,10.594154296875,-0.3652999997138977,-0.02589999884366989,-0.09309999644756317
1702689214847154200,10.654154296875,-0.0064999996684491634,0.1826999932527542,0.37790000438690186
1702689214907154200,10.714154296875,-0.2409999966621399,0.09910000115633011,0.13210000097751617
1702689214967154200,10.774154296875,-0.21050000190734863,0.272599995136261,-0.1013999953866005
1702689215027154200,10.834154296875,-0.05779999867081642,-0.07649999856948853,-0.24939998984336853
1702689215087154200,10.894154296875,0.06449999660253525,-0.33980000019073486,-0.15809999406337738
1702689215147154200,10.954154296875,-0.06209999695420265,-0.3141999840736389,-0.23999999463558197
1702689215207154200,11.014154296875,0.03739999979734421,-0.18379999697208405,-0.3446999788284302
1702689215267154200,11.074154296875,-0.09209999442100525,-0.05299999937415123,-0.06719999760389328
1702689215327154200,11.134154296875,0.027699999511241913,0.06419999897480011,-0.16110000014305115
1702689215387154200,11.194154296875,-0.18389999866485596,-0.050599999725818634,0.2360999882221222
1702689215447154200,11.254154296875,-0.45579999685287476,-0.12060000002384186,0.26659998297691345
1702689215507154200,11.314154296875,-0.26819998025894165,0.1256999969482422,0.10819999873638153
1702689215567154200,11.374154296875,-0.14000000059604645,0.01979999989271164,-0.1762000024318695
1702689215627154200,11.434154296875,-0.04099999740719795,-0.02329999953508377,-0.038100000470876694
1702689215687154200,11.494154296875,-0.12479999661445618,-0.19020000100135803,-0.1436000019311905
1702689215747154200,11.554154296875,-0.17029999196529388,-0.148499995470047,-0.08009999990463257
1702689215807154200,11.614154296875,-0.40129998326301575,-0.2215999960899353,-0.15569999814033508
1702689215867154200,11.674154296875,0.06129999831318855,-0.08209999650716782,-0.11759999394416809
1702689215927177500,11.734177490234375,-0.007799999788403511,-0.00139999995008111,-0.2676999866962433
1702689215987154200,11.794154296875,-0.11459999531507492,-0.06839999556541443,0.0925000011920929
1702689216047154200,11.854154296875,-0.18599998950958252,-0.05089999735355377,-0.061799999326467514
1702689216107154200,11.914154296875,-0.26899999380111694,0.052299998700618744,0.011099999770522118
1702689216167154200,11.974154296875,-0.2061000019311905,-0.0026000000070780516,-0.019500000402331352
1702689216227154200,12.034154296875,-0.05219999700784683,-0.052400000393390656,-0.041600000113248825
1702689216287154200,12.094154296875,-0.10729999840259552,-0.06709999591112137,-0.05700000002980232
1702689216347154200,12.154154296875,0.2847000062465668,0.024799998849630356,0.03019999898970127
1702689216407154200,12.214154296875,-0.065700002014637,-0.08749999850988388,-0.10989999771118164
1702689216467154200,12.274154296875,-0.09389999508857727,-0.08630000054836273,-0.02929999865591526
1702689216527154200,12.334154296875,0.00559999980032444,-0.14959999918937683,-0.21279999613761902
1702689216587154200,12.394154296875,0.008599999360740185,0.065700002014637,-0.05819999799132347
1702689216647154200,12.454154296875,-0.019099999219179153,-0.015399999916553497,-0.15160000324249268
1702689216707154200,12.514154296875,-0.257099986076355,0.01979999989271164,-0.27719998359680176
1702689216767154200,12.574154296875,-0.2011999934911728,0.10429999977350235,-0.5788999795913696
1702689216827154200,12.634154296875,0.1598999947309494,0.34860000014305115,-0.9797999858856201
1702689216887154200,12.694154296875,-0.07999999821186066,-0.20679999887943268,-0.3643999993801117
1702689216947154200,12.754154296875,-0.0835999995470047,-0.12889999151229858,0.4510999917984009
1702689217007154200,12.814154296875,-0.19189999997615814,-0.1266999989748001,0.5519999861717224
1702689217067154200,12.874154296875,-0.1039000004529953,-0.11469999700784683,-0.1290999948978424
1702689217127154200,12.934154296875,-0.43939998745918274,0.03399999812245369,-0.29330000281333923
1702689217187154200,12.994154296875,-0.5572999715805054,-0.017899999395012856,-0.11569999903440475
1702689217247154200,13.054154296875,-0.23409999907016754,-0.43369999527931213,0.34619998931884766
1702689217307154200,13.114154296875,-0.7792999744415283,-0.561199963092804,0.2669000029563904
1702689217367154200,13.174154296875,1.073199987411499,-0.7213999629020691,0.738599956035614
1702689217427154200,13.234154296875,0.2937999963760376,0.09749999642372131,-0.12709999084472656
1702689217487154200,13.294154296875,0.20340000092983246,0.4161999821662903,-0.23499999940395355
1702689217547154200,13.354154296875,0.004100000020116568,-0.10459999740123749,0.056599996984004974
1702689217607155700,13.41415576171875,-0.21400000154972076,-0.02630000002682209,-0.05819999799132347
1702689217667154200,13.474154296875,-0.29089999198913574,-0.21439999341964722,-0.13379999995231628
1702689217727154200,13.534154296875,-0.11419999599456787,-0.16849999129772186,-0.1087999939918518
1702689217787154200,13.594154296875,-0.12799999117851257,-0.1454000025987625,-0.22540000081062317
1702689217847154200,13.654154296875,0.23189999163150787,0.005799999926239252,-0.305899977684021
1702689217907154200,13.714154296875,-0.2052999883890152,0.18889999389648438,0.4424999952316284
