time,seconds_elapsed,z,y,x
1702298777426731800,0.045731689453125,-0.41749998927116394,0.47269999980926514,-0.9610999822616577
1702298777486731800,0.105731689453125,1.1202999353408813,0.307699978351593,0.2976999878883362
1702298777546731800,0.165731689453125,0.6891999840736389,0.2856999933719635,0.05729999765753746
1702298777606731800,0.225731689453125,-0.7741999626159668,0.19599999487400055,0.1597999930381775
1702298777666731800,0.285731689453125,-0.6324999928474426,0.15330000221729279,-0.07050000131130219
1702298777726731800,0.345731689453125,-0.4553999900817871,-0.2696000039577484,-0.32679998874664307
1702298777786731800,0.405731689453125,-0.9532999992370605,-0.202799990773201,-0.3165999948978424
1702298777846731800,0.465731689453125,-0.4805999994277954,-0.22749999165534973,-0.3847000002861023
1702298777906731800,0.525731689453125,-0.7462999820709229,-0.2206999957561493,-0.6660999655723572
1702298777966731800,0.585731689453125,-0.949999988079071,-0.17649999260902405,-0.7057999968528748
1702298778026731800,0.645731689453125,-1.2960000038146973,0.9874999523162842,-0.09929999709129333
1702298778086800400,0.70580029296875,-0.6442999839782715,0.28189998865127563,-0.3752000033855438
1702298778146731800,0.765731689453125,0.9264000058174133,-0.9643999934196472,-0.39649999141693115
1702298778206731800,0.825731689453125,0.31209999322891235,-0.19449999928474426,0.554099977016449
1702298778266731800,0.885731689453125,0.4075999855995178,-0.8730999827384949,0.7945999503135681
1702298778326731800,0.945731689453125,0.6962999701499939,-0.9409999847412109,0.3677999973297119
1702298778386731800,1.005731689453125,-0.46309998631477356,-0.5449000000953674,-0.30219998955726624
1702298778446731800,1.065731689453125,0.16899999976158142,-0.8303999900817871,1.3073999881744385
1702298778506731800,1.125731689453125,-0.3236999809741974,0.7444999814033508,1.378600001335144
1702298778566731800,1.185731689453125,0.0746999979019165,0.20260000228881836,1.0018999576568604
1702298778626731800,1.245731689453125,0.3149999976158142,-0.3082999885082245,0.07180000096559525
1702298778686731800,1.305731689453125,-0.7567999958992004,0.3537999987602234,0.8736000061035156
1702298778746731800,1.365731689453125,-0.030799999833106995,0.5781999826431274,0.592799961566925
1702298778806731800,1.425731689453125,-0.121799997985363,-0.5205000042915344,-0.5442999601364136
1702298778866731800,1.485731689453125,-0.9039999842643738,-1.593400001525879,-1.7300999164581299
1702298778926731800,1.545731689453125,-4.108500003814697,-0.645799994468689,-2.162600040435791
1702298778986731800,1.605731689453125,-3.9870998859405518,-0.6414999961853027,-3.162799835205078
1702298779046731800,1.665731689453125,-2.927500009536743,0.24319998919963837,-2.526900053024292
1702298779106731800,1.725731689453125,-0.6313999891281128,-0.6959999799728394,-0.983199954032898
1702298779166731800,1.785731689453125,2.293299913406372,-1.1136000156402588,-6.936699867248535
1702298779226731800,1.845731689453125,4.188600063323975,-3.4742000102996826,-3.515199899673462
1702298779286731800,1.905731689453125,6.97629976272583,-4.0341997146606445,-2.9296000003814697
1702298779346731800,1.965731689453125,3.372999906539917,0.36579999327659607,0.5471999645233154
1702298779406731800,2.025731689453125,1.1973999738693237,-0.19349999725818634,-1.827699899673462
1702298779466731800,2.085731689453125,2.1263999938964844,-1.091599941253662,0.4065999984741211
1702298779526731800,2.145731689453125,2.5443999767303467,-1.567699909210205,-3.825500011444092
1702298779586731800,2.205731689453125,-1.0325000286102295,0.9271000027656555,-1.5899999141693115
1702298779646731800,2.265731689453125,2.2927000522613525,1.2203999757766724,-0.09629999846220016
1702298779706731800,2.325731689453125,0.020399998873472214,-1.3866000175476074,-0.11490000039339066
1702298779766731800,2.385731689453125,0.19349999725818634,-1.552299976348877,2.1926000118255615
1702298779826731800,2.445731689453125,2.3935999870300293,1.3246999979019165,0.6703999638557434
1702298779886731800,2.505731689453125,0.7493000030517578,4.403599739074707,0.10859999805688858
1702298779946731800,2.565731689453125,2.209399938583374,-0.17829999327659607,-0.003700000001117587
1702298780006731800,2.625731689453125,2.608099937438965,0.5396999716758728,-2.7187998294830322
1702298780066759700,2.685759765625,-1.2590999603271484,1.4002999067306519,-1.8413000106811523
1702298780126731800,2.745731689453125,-5.2418999671936035,2.5078999996185303,-0.3182999789714813
1702298780186731800,2.805731689453125,-1.5259000062942505,0.25509998202323914,-0.6114000082015991
1702298780246731800,2.865731689453125,-1.7795000076293945,-1.7041000127792358,0.08079999685287476
1702298780306731800,2.925731689453125,-0.6513000130653381,2.354300022125244,5.271599769592285
1702298780366731800,2.985731689453125,1.0582000017166138,-1.073199987411499,0.7184999585151672
1702298780426731800,3.045731689453125,1.86899995803833,-1.2666999101638794,-1.5683000087738037
1702298780486731800,3.105731689453125,1.9539999961853027,-0.0957999974489212,-2.9563000202178955
1702298780546731800,3.165731689453125,0.31189998984336853,1.02839994430542,-0.2848999798297882
1702298780606731800,3.225731689453125,-1.250999927520752,3.5896999835968018,0.8123999834060669
1702298780666731800,3.285731689453125,1.4644999504089355,1.1819000244140625,0.3626999855041504
1702298780726731800,3.345731689453125,0.2768000066280365,2.25600004196167,0.7580999732017517
1702298780786731800,3.405731689453125,-2.1534998416900635,0.22299998998641968,2.0839998722076416
1702298780846731800,3.465731689453125,-0.01599999889731407,-2.8726999759674072,1.2764999866485596
1702298780906731800,3.525731689453125,-0.7567999958992004,-3.00819993019104,1.598099946975708
1702298780966731800,3.585731689453125,-0.38199999928474426,-3.170300006866455,1.2441999912261963
1702298781026731800,3.645731689453125,1.5644999742507935,-2.0795998573303223,2.1726999282836914
1702298781086759700,3.705759765625,8.58430004119873,1.9320999383926392,-3.656599998474121
1702298781146731800,3.765731689453125,0.12610000371932983,2.042099952697754,-0.996399998664856
1702298781206731800,3.825731689453125,-0.6965999603271484,1.4189000129699707,3.0460000038146973
1702298781266731800,3.885731689453125,-5.06279993057251,-0.0071000000461936,1.701799988746643
1702298781326731800,3.945731689453125,0.9039999842643738,2.463599920272827,1.0419999361038208
1702298781386731800,4.005731689453125,0.34039998054504395,-0.8299999833106995,1.7519999742507935
1702298781446731800,4.065731689453125,-7.3155999183654785,-0.5394999980926514,-4.848700046539307
1702298781506731800,4.125731689453125,1.9746999740600586,-0.9535999894142151,1.4101999998092651
1702298781566731800,4.185731689453125,1.9631999731063843,-1.1180000305175781,-1.698099970817566
1702298781626731800,4.245731689453125,2.5690999031066895,-2.0931999683380127,-2.907599925994873
1702298781686731800,4.305731689453125,0.7637999653816223,0.2685999870300293,-0.8616999983787537
1702298781746731800,4.365731689453125,1.6690999269485474,0.5888000130653381,-1.997399926185608
1702298781806731800,4.425731689453125,-2.562999963760376,-0.21959999203681946,-1.837899923324585
1702298781866731800,4.485731689453125,-1.0151000022888184,2.6905999183654785,-1.8499000072479248
1702298781926731800,4.545731689453125,-0.3066999912261963,3.751499891281128,1.1496000289916992
1702298781986731800,4.605731689453125,1.069599986076355,-1.6505999565124512,0.3700999915599823
1702298782046731800,4.665731689453125,-2.288599967956543,-1.916599988937378,2.337599992752075
1702298782106731800,4.725731689453125,-2.0987000465393066,-1.9224998950958252,2.439199924468994
1702298782166731800,4.785731689453125,-1.6354999542236328,-1.3309999704360962,4.3206000328063965
1702298782226731800,4.845731689453125,6.581199645996094,3.7346999645233154,0.6901999711990356
1702298782286731800,4.905731689453125,-3.3241000175476074,-3.3598999977111816,-4.812699794769287
1702298782346731800,4.965731689453125,0.7953999638557434,2.210700035095215,-1.3174999952316284
1702298782406731800,5.025731689453125,-2.8213000297546387,5.203199863433838,2.069499969482422
1702298782466731800,5.085731689453125,-3.405900001525879,-1.6460999250411987,3.2777998447418213
1702298782526731800,5.145731689453125,-1.2664999961853027,2.097399950027466,0.46889999508857727
1702298782586731800,5.205731689453125,-0.6262999773025513,-0.6462000012397766,1.0795999765396118
1702298782646731800,5.265731689453125,0.31869998574256897,-1.730199933052063,1.6483999490737915
1702298782706731800,5.325731689453125,-0.4341000020503998,-1.0288000106811523,-1.664099931716919
1702298782766731800,5.385731689453125,3.1942999362945557,-2.260699987411499,-2.2009999752044678
1702298782826731800,5.445731689453125,1.1333999633789062,-1.590499997138977,-1.2238999605178833
1702298782886731800,5.505731689453125,0.9070000052452087,0.34610000252723694,-0.5525999665260315
1702298782946731800,5.565731689453125,1.740399956703186,0.08349999785423279,-0.5400999784469604
1702298783006731800,5.625731689453125,-0.1639999896287918,-0.847599983215332,-0.40959998965263367
1702298783066731800,5.685731689453125,-1.1187000274658203,4.526299953460693,-3.145699977874756
1702298783126731800,5.745731689453125,4.111199855804443,4.332099914550781,1.564099907875061
1702298783186731800,5.805731689453125,-0.6882999539375305,-1.298699975013733,1.4153000116348267
1702298783246731800,5.865731689453125,-1.6535999774932861,-2.381999969482422,3.9559998512268066
1702298783306731800,5.925731689453125,-2.0929999351501465,-2.87719988822937,3.099599838256836
1702298783366731800,5.985731689453125,-0.17159999907016754,-2.53439998626709,3.289599895477295
1702298783426731800,6.045731689453125,6.615299701690674,7.5366997718811035,-0.536300003528595
1702298783486731800,6.105731689453125,5.372299671173096,-4.996099948883057,-7.16439962387085
1702298783546731800,6.165731689453125,-2.9716999530792236,4.339600086212158,2.673099994659424
1702298783606731800,6.225731689453125,-3.000999927520752,1.1008999347686768,0.9761999845504761
1702298783666731800,6.285731689453125,-3.3033998012542725,0.2224999964237213,0.5349999666213989
1702298783726731800,6.345731689453125,-0.2971999943256378,0.28939998149871826,-0.8700999617576599
1702298783786731800,6.405731689453125,-0.6875999569892883,-2.1789000034332275,2.683799982070923
1702298783846731800,6.465731689453125,-2.932499885559082,-0.26440000534057617,0.36479997634887695
1702298783906731800,6.525731689453125,2.491999864578247,-1.2315999269485474,-2.0439999103546143
1702298783966731800,6.585731689453125,4.446599960327148,-2.526099920272827,-1.1705999374389648
1702298784026731800,6.645731689453125,-1.621399998664856,-0.040699999779462814,-1.0576000213623047
1702298784086731800,6.705731689453125,2.3796000480651855,-0.1607999950647354,-1.046199917793274
1702298784146731800,6.765731689453125,-0.8917999863624573,0.3780999779701233,-1.0166000127792358
1702298784206731800,6.825731689453125,-1.0713000297546387,1.9602999687194824,-2.031100034713745
1702298784266731800,6.885731689453125,2.9875998497009277,6.308599948883057,-0.5267999768257141
1702298784326731800,6.945731689453125,0.13920000195503235,-0.8323000073432922,1.2457000017166138
1702298784386731800,7.005731689453125,-0.8570999503135681,-1.9921998977661133,2.400399923324585
1702298784446731800,7.065731689453125,-1.7706999778747559,-2.7179999351501465,2.1410999298095703
1702298784506731800,7.125731689453125,-1.4093999862670898,-1.9124999046325684,4.923500061035156
1702298784566731800,7.185731689453125,1.730799913406372,2.3315000534057617,1.6643999814987183
1702298784626731800,7.245731689453125,-0.23959998786449432,-2.112499952316284,-6.699499607086182
1702298784686731800,7.305731689453125,2.066499948501587,-0.48909997940063477,-0.6563999652862549
1702298784746731800,7.365731689453125,-5.776400089263916,7.9039998054504395,0.36239999532699585
1702298784806731800,7.425731689453125,-0.5479999780654907,-0.963699996471405,4.162899971008301
1702298784866731800,7.485731689453125,-3.310699939727783,0.16609999537467957,0.08389999717473984
1702298784926731800,7.545731689453125,2.5550999641418457,-0.4967999756336212,0.6121000051498413
1702298784986731800,7.605731689453125,0.21149998903274536,-1.3917999267578125,2.755499839782715
1702298785046731800,7.665731689453125,3.6679999828338623,-1.2300000190734863,-2.677799940109253
1702298785106731800,7.725731689453125,1.3925999402999878,-3.2533998489379883,-1.149899959564209
1702298785166731800,7.785731689453125,1.1342999935150146,-0.3211999833583832,-0.8513999581336975
1702298785226731800,7.845731689453125,2.5508999824523926,-0.5819999575614929,-0.6847000122070312
1702298785286731800,7.905731689453125,0.8745999932289124,-0.46289998292922974,-0.8072999715805054
1702298785346731800,7.965731689453125,-1.6990998983383179,3.6621999740600586,-4.360300064086914
1702298785406731800,8.025731689453124,3.506899833679199,8.198200225830078,0.5056999921798706
1702298785466731800,8.085731689453125,-0.1428999900817871,0.48399999737739563,1.3944000005722046
1702298785526731800,8.145731689453125,-1.3205000162124634,-1.9767999649047852,3.5284998416900635
1702298785586731800,8.205731689453126,-2.7625999450683594,-3.2246999740600586,3.7268998622894287
1702298785646731800,8.265731689453125,-0.343099981546402,-2.875,4.241499900817871
1702298785706731800,8.325731689453125,2.404099941253662,5.406099796295166,0.35589998960494995
1702298785766731800,8.385731689453126,1.8393999338150024,-5.166199684143066,-6.6402997970581055
1702298785826731800,8.445731689453124,-2.2925000190734863,4.416999816894531,2.006999969482422
1702298785886731800,8.505731689453125,0.5842999815940857,3.1347999572753906,1.146399974822998
1702298785946731800,8.565731689453125,-5.0792999267578125,0.41019999980926514,1.4422999620437622
1702298786006731800,8.625731689453126,1.2091000080108643,1.7172999382019043,0.5058000087738037
1702298786066731800,8.685731689453124,-1.6967999935150146,-2.0599000453948975,2.9781999588012695
1702298786126731800,8.745731689453125,-2.7998998165130615,-0.7347999811172485,1.309399962425232
1702298786186731800,8.805731689453125,2.39739990234375,-1.4599000215530396,-2.057999849319458
1702298786246731800,8.865731689453124,3.2518999576568604,-0.9643999934196472,-0.8710999488830566
1702298786306731800,8.925731689453125,-1.8659999370574951,-0.12700000405311584,-0.9371999502182007
1702298786366731800,8.985731689453125,2.672499895095825,-0.19689999520778656,-1.5138999223709106
1702298786426731800,9.045731689453126,-0.9512999653816223,-1.2685999870300293,-1.0845999717712402
1702298786486731800,9.105731689453124,-0.7847999930381775,2.2279999256134033,-2.1621999740600586
1702298786546731800,9.165731689453125,2.3183999061584473,8.605199813842773,0.1678999960422516
1702298786606731800,9.225731689453125,0.4885999858379364,-0.2831999957561493,1.499899983406067
1702298786666731800,9.285731689453126,-2.124699831008911,-2.3701000213623047,3.890199899673462
1702298786726731800,9.345731689453125,-0.9095999598503113,-2.4049999713897705,1.3557000160217285
1702298786786731800,9.405731689453125,-0.16939999163150787,-2.7990000247955322,3.818199872970581
1702298786846731800,9.465731689453126,3.0181000232696533,5.432300090789795,1.3948999643325806
1702298786906731800,9.525731689453124,2.2934999465942383,-5.888799667358398,-5.34529972076416
1702298786966731800,9.585731689453125,-1.4981999397277832,3.8902997970581055,-2.535599946975708
1702298787026731800,9.645731689453125,0.9476999640464783,2.399899959564209,0.8241999745368958
1702298787086731800,9.705731689453126,-5.521299839019775,0.4202999770641327,2.464200019836426
1702298787146731800,9.765731689453125,1.9792999029159546,2.710599899291992,0.4229999780654907
1702298787206731800,9.825731689453125,-0.2888000011444092,-2.319700002670288,0.6089000105857849
1702298787266731800,9.885731689453126,-3.2304999828338623,-1.1002999544143677,2.151700019836426
1702298787326731800,9.945731689453124,1.7917999029159546,-0.9797999858856201,-1.0303000211715698
1702298787386731800,10.005731689453125,1.2980999946594238,-1.9569998979568481,-1.101599931716919
1702298787446731800,10.065731689453125,1.9674999713897705,-1.1354999542236328,-1.5123000144958496
1702298787506731800,10.125731689453126,2.7836999893188477,0.31369999051094055,-1.4265999794006348
1702298787566731800,10.185731689453124,0.2721000015735626,1.1779999732971191,-1.0299999713897705
1702298787626731800,10.245731689453125,-0.22280000150203705,1.3680999279022217,-0.03819999843835831
1702298787686731800,10.305731689453125,-0.9215999841690063,6.351999759674072,-0.4018999934196472
1702298787746731800,10.365731689453124,1.368499994277954,1.084299921989441,0.3028999865055084
1702298787806731800,10.425731689453125,-1.2512999773025513,-2.746299982070923,2.295300006866455
1702298787866731800,10.485731689453125,-0.802299976348877,-0.6918999552726746,1.3162000179290771
1702298787926733300,10.5457333984375,-0.3330000042915344,-2.661900043487549,4.298900127410889
1702298787986731800,10.605731689453124,-0.07189999520778656,-2.632499933242798,2.9961998462677
1702298788046731800,10.665731689453125,6.513000011444092,2.5802998542785645,-4.940299987792969
1702298788106731800,10.725731689453125,-0.5544999837875366,0.09369999915361404,1.785099983215332
1702298788166731800,10.785731689453126,1.240399956703186,0.661300003528595,2.5020999908447266
1702298788226731800,10.845731689453125,-3.6778998374938965,1.034999966621399,-1.7077000141143799
1702298788286731800,10.905731689453125,-1.9339998960494995,2.694700002670288,3.3060998916625977
1702298788346731800,10.965731689453126,-1.9865999221801758,-0.23899999260902405,-0.040300000458955765
1702298788406731800,11.025731689453124,-0.28689998388290405,-0.3423999845981598,1.5544999837875366
1702298788466731800,11.085731689453125,0.3012000024318695,-1.3876999616622925,4.172699928283691
1702298788526731800,11.145731689453125,1.2172999382019043,-0.7501999735832214,-2.3942999839782715
1702298788586731800,11.205731689453126,3.079399824142456,-2.632699966430664,-2.8267998695373535
1702298788646731800,11.265731689453125,-0.5238000154495239,-0.5335999727249146,-1.0680999755859375
1702298788706731800,11.325731689453125,2.786799907684326,0.18689998984336853,-0.8907999992370605
1702298788766731800,11.385731689453126,-0.9391999840736389,0.04389999806880951,-1.035499930381775
1702298788826731800,11.445731689453124,3.339599847793579,1.1708999872207642,-2.1180999279022217
1702298788886731800,11.505731689453125,-1.0205999612808228,7.781899929046631,-1.9200999736785889
1702298788946731800,11.565731689453125,2.2411999702453613,-0.13359999656677246,1.3054999113082886
1702298789006731800,11.625731689453126,-1.4523999691009521,-3.4223999977111816,2.200000047683716
1702298789066731800,11.685731689453124,-1.419600009918213,-1.2659999132156372,1.8530999422073364
1702298789126731800,11.745731689453125,-1.0119999647140503,-2.634699821472168,4.954799652099609
1702298789186731800,11.805731689453125,0.3856000006198883,-2.5595998764038086,3.5384998321533203
1702298789246731800,11.865731689453124,4.997799873352051,2.855799913406372,-3.63319993019104
1702298789306731800,11.925731689453125,4.383299827575684,-1.2663999795913696,-0.9786999821662903
1702298789366731800,11.985731689453125,-3.238499879837036,7.017999649047852,0.26669999957084656
1702298789426731800,12.045731689453126,-5.065700054168701,-2.423099994659424,-0.20069999992847443
1702298789486731800,12.105731689453124,-3.7177999019622803,0.7076999545097351,-0.18279999494552612
1702298789546731800,12.165731689453125,-0.0705999955534935,1.5204999446868896,-0.01889999955892563
1702298789606731800,12.225731689453125,3.073499917984009,-2.2718000411987305,5.322299957275391
1702298789666731800,12.285731689453126,0.7764999866485596,-0.9293999671936035,-0.9902999997138977
1702298789726731800,12.345731689453125,2.3339998722076416,-2.1464998722076416,-2.149199962615967
1702298789786731800,12.405731689453125,2.9814000129699707,-1.6406999826431274,-0.5830999612808228
1702298789846731800,12.465731689453126,1.3131999969482422,-0.757099986076355,-1.5087000131607056
1702298789906731800,12.525731689453124,3.8551998138427734,-0.9975999593734741,-1.76829993724823
1702298789966731800,12.585731689453125,-2.1640000343322754,0.06949999928474426,-2.738499879837036
1702298790026731800,12.645731689453125,0.30809998512268066,0.5878999829292297,-4.7704997062683105
1702298790086731800,12.705731689453126,-3.2919998168945312,8.83080005645752,-1.4541999101638794
1702298790146731800,12.765731689453125,2.1661999225616455,0.5425999760627747,1.4026999473571777
1702298790206731800,12.825731689453125,-2.977599859237671,-1.6904000043869019,3.0042998790740967
1702298790266731800,12.885731689453126,-2.3934998512268066,-3.537299871444702,3.1870999336242676
1702298790326731800,12.945731689453124,-1.5614999532699585,-2.530400037765503,3.361599922180176
1702298790386731800,13.005731689453125,-1.9549999237060547,1.8628000020980835,2.5481998920440674
1702298790446731800,13.065731689453125,-1.6008999347686768,-3.4320998191833496,-5.578099727630615
1702298790506731800,13.125731689453126,0.6588000059127808,2.5441999435424805,-1.0591000318527222
1702298790566731800,13.185731689453124,-0.3489999771118164,2.419299840927124,-1.1627999544143677
1702298790626731800,13.245731689453125,-7.924099922180176,-0.3886999785900116,1.1131999492645264
1702298790686731800,13.305731689453125,-1.8048999309539795,2.7042999267578125,-0.3748999834060669
1702298790746731800,13.365731689453124,-3.1069998741149902,-1.1376999616622925,1.3252999782562256
1702298790806731800,13.425731689453125,-2.1171998977661133,-0.976699948310852,3.402599811553955
1702298790866731800,13.485731689453125,1.800399899482727,-0.034699998795986176,-1.1728999614715576
1702298790926731800,13.545731689453126,0.7240999937057495,-1.6028999090194702,-0.7461999654769897
1702298790986731800,13.605731689453124,3.729300022125244,-0.8788999915122986,-1.78249990940094
1702298791046731800,13.665731689453125,0.646399974822998,-1.0607999563217163,-2.750200033187866
1702298791106731800,13.725731689453125,1.6606999635696411,-0.13840000331401825,-2.7239999771118164
1702298791166731800,13.785731689453126,0.35439997911453247,-1.800399899482727,-0.5120999813079834
1702298791226731800,13.845731689453125,-2.3516998291015625,3.739799976348877,-1.3726999759674072
1702298791286731800,13.905731689453125,4.294399738311768,4.15369987487793,-0.579800009727478
1702298791346731800,13.965731689453126,-0.4602999985218048,-0.39969998598098755,1.187600016593933
1702298791406731800,14.025731689453124,-1.8878999948501587,-1.7950999736785889,3.7505998611450195
1702298791466731800,14.085731689453125,-1.9919999837875366,-2.5288000106811523,2.7714998722076416
1702298791526731800,14.145731689453125,-1.155900001525879,-2.444700002670288,3.672299861907959
1702298791586731800,14.205731689453126,7.235799789428711,7.462699890136719,1.9499999284744263
1702298791646731800,14.265731689453125,2.4594998359680176,-4.490299701690674,-4.300899982452393
1702298791706733300,14.3257333984375,-0.655299961566925,-2.9144999980926514,3.466899871826172
1702298791766731800,14.385731689453126,-4.168499946594238,7.284800052642822,-3.102799892425537
1702298791826731800,14.445731689453124,2.9844000339508057,1.4043999910354614,2.172299861907959
1702298791886731800,14.505731689453125,-4.21560001373291,-2.5297000408172607,2.375200033187866
1702298791946731800,14.565731689453125,-1.0023999214172363,3.4709999561309814,1.0515999794006348
1702298792006731800,14.625731689453126,1.177299976348877,-1.4900999069213867,1.3991999626159668
1702298792066731800,14.685731689453124,-4.237599849700928,-2.1908998489379883,-2.1034998893737793
1702298792126731800,14.745731689453125,6.888799667358398,-2.7904999256134033,-0.7581999897956848
1702298792186731800,14.805731689453125,1.778499960899353,-0.859499990940094,0.023799998685717583
1702298792246731800,14.865731689453124,2.1355998516082764,0.8956999778747559,-0.2329999953508377
1702298792306731800,14.925731689453125,0.2944999933242798,1.0455999374389648,-1.7769999504089355
1702298792366731800,14.985731689453125,1.2099000215530396,-0.12139999866485596,-3.094899892807007
1702298792426731800,15.045731689453126,-2.5730998516082764,5.795499801635742,-3.728599786758423
1702298792486731800,15.105731689453124,3.5590999126434326,0.9637999534606934,-0.5860999822616577
1702298792546731800,15.165731689453125,-0.8743000030517578,-1.9864000082015991,2.0167999267578125
1702298792606731800,15.225731689453125,-2.894699811935425,-2.554499864578247,2.1263999938964844
1702298792666731800,15.285731689453126,-2.2886998653411865,-2.066200017929077,5.554800033569336
1702298792726731800,15.345731689453125,-0.7209999561309814,-1.6720999479293823,4.47599983215332
1702298792786731800,15.405731689453125,14.212800025939941,5.9721999168396,-0.23259998857975006
1702298792846731800,15.465731689453126,4.3805999755859375,-3.544600009918213,-9.462299346923828
1702298792906731800,15.525731689453124,-5.039000034332275,9.841899871826172,0.890999972820282
1702298792966731800,15.585731689453125,-4.576600074768066,-3.0539000034332275,3.393899917602539
1702298793026731800,15.645731689453125,-3.2707998752593994,3.09089994430542,1.6448999643325806
1702298793086731800,15.705731689453126,2.7904999256134033,0.50409996509552,0.8636999726295471
1702298793146731800,15.765731689453125,0.2597000002861023,-4.230999946594238,1.292799949645996
1702298793206731800,15.825731689453125,0.6471999883651733,-1.3356999158859253,-3.6454999446868896
1702298793266731800,15.885731689453126,0.9422000050544739,-1.1448999643325806,0.23019999265670776
1702298793326731800,15.945731689453124,1.3406999111175537,0.10729999840259552,-0.07809999585151672
1702298793386731800,16.005731689453125,1.360700011253357,-0.18529999256134033,-1.5476999282836914
1702298793446731800,16.065731689453123,1.8351999521255493,0.11840000003576279,-2.3882999420166016
1702298793506731800,16.125731689453126,0.22379998862743378,0.1922999918460846,-0.8816999793052673
1702298793566731800,16.185731689453124,0.1193000003695488,2.0658998489379883,-0.871999979019165
1702298793626731800,16.245731689453127,1.6488999128341675,5.142699718475342,2.011399984359741
1702298793686731800,16.305731689453125,0.5357999801635742,-0.1785999983549118,0.984499990940094
1702298793746731800,16.365731689453124,-1.1547999382019043,-1.430400013923645,3.405399799346924
1702298793806731800,16.425731689453126,-1.1924999952316284,-0.8973999619483948,1.7253999710083008
1702298793866731800,16.485731689453125,-0.28189998865127563,-1.879499912261963,4.661999702453613
1702298793926731800,16.545731689453124,1.9191999435424805,1.7281999588012695,1.8635998964309692
1702298793986731800,16.605731689453126,1.3977999687194824,-2.7890000343322754,-10.020999908447266
1702298794046731800,16.665731689453125,-0.9127999544143677,3.7342000007629395,0.5361999869346619
1702298794106731800,16.725731689453124,-0.016699999570846558,-2.4361000061035156,2.352599859237671
1702298794166731800,16.785731689453126,-3.46589994430542,1.379699945449829,0.039000000804662704
1702298794226731800,16.845731689453125,-0.6241999864578247,2.0736000537872314,0.35259997844696045
1702298794286731800,16.905731689453123,-0.5361999869346619,-3.0371999740600586,1.0476000308990479
1702298794346731800,16.965731689453126,1.5787999629974365,-1.6137999296188354,-0.25949999690055847
1702298794406731800,17.025731689453124,0.7833999991416931,-0.9917999505996704,-0.40959998965263367
1702298794466731800,17.085731689453127,2.1534998416900635,-1.6303999423980713,-0.8513000011444092
1702298794526731800,17.145731689453125,0.4893999993801117,-0.07829999923706055,-0.42549997568130493
1702298794586731800,17.205731689453124,1.5017999410629272,0.1387999951839447,-0.876800000667572
1702298794646731800,17.265731689453126,1.5180000066757202,0.4781999886035919,-2.685299873352051
1702298794706731800,17.325731689453125,1.9122999906539917,0.382999986410141,-0.3010999858379364
1702298794766731800,17.385731689453124,-1.9651999473571777,4.80019998550415,-0.9404000043869019
1702298794826731800,17.445731689453126,3.0774998664855957,4.0346999168396,1.015299916267395
1702298794886731800,17.505731689453125,0.3668999969959259,-1.7294999361038208,2.1531999111175537
1702298794946731800,17.565731689453123,-1.1977999210357666,-1.8305000066757202,2.677299976348877
1702298795006731800,17.625731689453126,-0.361299991607666,-2.6566998958587646,2.8571999073028564
1702298795066731800,17.685731689453124,1.1785999536514282,-3.742799997329712,3.2057998180389404
1702298795126731800,17.745731689453127,4.723499774932861,3.933300018310547,-4.249499797821045
1702298795186731800,17.805731689453125,4.093499660491943,-2.530900001525879,-0.9990999698638916
1702298795246731800,17.865731689453124,-3.164099931716919,5.076099872589111,1.670199990272522
1702298795306731800,17.925731689453126,-3.2761998176574707,-0.25119999051094055,0.545799970626831
1702298795366731800,17.985731689453125,-3.3736000061035156,0.29749998450279236,0.13169999420642853
1702298795426731800,18.045731689453124,0.46779999136924744,1.8868999481201172,-0.4675000011920929
1702298795486731800,18.105731689453126,1.5787999629974365,-2.615999937057495,3.838599920272827
1702298795546731800,18.165731689453125,0.6100000143051147,-1.1741999387741089,-1.0250999927520752
1702298795606731800,18.225731689453124,3.185499906539917,-2.369499921798706,-2.8213000297546387
1702298795666731800,18.285731689453126,1.5140999555587769,-1.3193999528884888,-0.6015999913215637
1702298795726731800,18.345731689453125,0.32199999690055847,0.17579999566078186,-0.6597999930381775
1702298795786731800,18.405731689453123,2.8576998710632324,-0.840499997138977,-0.726099967956543
1702298795846731800,18.465731689453126,-0.9781000018119812,-0.9131999611854553,-2.7475998401641846
1702298795906731800,18.525731689453124,1.560499906539917,0.2830999791622162,-3.399600028991699
1702298795966731800,18.585731689453127,-2.554299831390381,5.547399997711182,-1.6816999912261963
1702298796026731800,18.645731689453125,2.97379994392395,1.1644999980926514,0.3254999816417694
1702298796086731800,18.705731689453124,-0.7132999897003174,-2.0157999992370605,3.1255998611450195
1702298796146731800,18.765731689453126,-1.6562999486923218,-3.288100004196167,2.4335999488830566
1702298796206731800,18.825731689453125,-1.4993000030517578,-2.1633999347686768,3.3950998783111572
1702298796266731800,18.885731689453124,0.17389999330043793,1.289699912071228,3.535099983215332
1702298796326731800,18.945731689453126,5.133800029754639,-0.5769000053405762,-5.605899810791016
1702298796386731800,19.005731689453125,2.1201000213623047,-1.1061999797821045,-1.2192999124526978
1702298796446731800,19.065731689453123,-0.835599958896637,8.469499588012695,3.2699999809265137
1702298796506731800,19.125731689453126,-3.881699800491333,-2.012199878692627,2.1891000270843506
1702298796566731800,19.185731689453124,0.5523999929428101,2.285599946975708,-0.618399977684021
1702298796626731800,19.245731689453127,0.29679998755455017,-1.996999979019165,0.773099958896637
1702298796686731800,19.305731689453125,-1.2879999876022339,-0.9813999533653259,2.974400043487549
1702298796746731800,19.365731689453124,1.8655999898910522,-0.5449000000953674,-0.6351999640464783
1702298796806731800,19.425731689453126,1.4026999473571777,-2.2665998935699463,-0.9912999868392944
1702298796866731800,19.485731689453125,1.636299967765808,-0.45170000195503235,-1.949199914932251
1702298796926731800,19.545731689453124,3.2249999046325684,0.21209999918937683,-1.635699987411499
1702298796986731800,19.605731689453126,-0.8496999740600586,-0.014999999664723873,-1.6552999019622803
1702298797046731800,19.665731689453125,0.1875,0.8206999897956848,-2.969399929046631
1702298797106731800,19.725731689453124,-1.4774999618530273,6.217400074005127,0.0013000000035390258
1702298797166731800,19.785731689453126,2.292099952697754,-0.18809999525547028,0.5960999727249146
1702298797226731800,19.845731689453125,-0.24859999120235443,-1.8947999477386475,2.033099889755249
1702298797286731800,19.905731689453123,-2.1180999279022217,-1.7792999744415283,2.1124000549316406
1702298797346731800,19.965731689453126,-1.4400999546051025,-1.125599980354309,4.220600128173828
1702298797406731800,20.025731689453124,-0.37139999866485596,-0.9319999814033508,4.513000011444092
1702298797466731800,20.085731689453127,10.161199569702148,10.45009994506836,-2.0272998809814453
1702298797526731800,20.145731689453125,2.5336999893188477,-5.563499927520752,-5.613499641418457
1702298797586731800,20.205731689453124,-1.2281999588012695,4.524499893188477,4.814599990844727
1702298797646731800,20.265731689453126,-5.1026997566223145,-0.07169999927282333,1.014699935913086
1702298797706731800,20.325731689453125,-2.495699882507324,3.454900026321411,1.284600019454956
1702298797766731800,20.385731689453124,2.700199842453003,-1.1410999298095703,0.6466999650001526
1702298797826731800,20.445731689453126,-1.6341999769210815,-1.7822999954223633,1.9002000093460083
1702298797886731800,20.505731689453125,1.0609999895095825,-1.244499921798706,-0.25290000438690186
1702298797946733300,20.5657333984375,5.633899688720703,-2.2149999141693115,-2.510999917984009
1702298798006731800,20.625731689453126,0.6882999539375305,-0.795799970626831,-1.9102998971939087
1702298798066731800,20.685731689453124,0.45069998502731323,1.2447999715805054,-0.4643999934196472
1702298798126731800,20.745731689453127,1.7350000143051147,0.4553999900817871,-1.5169999599456787
1702298798186731800,20.805731689453125,-1.1065000295639038,0.6152999997138977,-1.0776000022888184
1702298798246731800,20.865731689453124,-0.4992999732494354,4.116399765014648,-1.3420000076293945
1702298798306731800,20.925731689453126,1.0398999452590942,3.274099826812744,1.2450000047683716
1702298798366731800,20.985731689453125,0.9637999534606934,-1.865799903869629,2.7970998287200928
1702298798426731800,21.045731689453124,-1.3557000160217285,-2.934999942779541,3.256899833679199
1702298798486731800,21.105731689453126,-0.33879998326301575,-2.9284000396728516,2.6572999954223633
1702298798546731800,21.165731689453125,0.2635999917984009,-1.9119999408721924,3.146199941635132
1702298798606731800,21.225731689453124,4.970999717712402,3.615000009536743,-2.4354000091552734
1702298798666731800,21.285731689453126,5.273900032043457,-4.197299957275391,-4.961899757385254
1702298798726731800,21.345731689453125,-2.8195998668670654,4.543399810791016,1.2110999822616577
1702298798786731800,21.405731689453123,-3.577899932861328,1.6327999830245972,2.6723999977111816
1702298798846731800,21.465731689453126,-2.488100051879883,0.25,0.24879999458789825
1702298798906731800,21.525731689453124,0.5069000124931335,-0.13279999792575836,-0.5934999585151672
1702298798966731800,21.585731689453127,-0.37379997968673706,-2.0072999000549316,4.314300060272217
1702298799026731800,21.645731689453125,2.491499900817871,0.004799999762326479,-1.1207000017166138
1702298799086731800,21.705731689453124,2.393699884414673,-2.4587998390197754,-1.7559999227523804
1702298799146731800,21.765731689453126,2.180999994277954,-0.6775000095367432,-2.936199903488159
1702298799206731800,21.825731689453125,2.0016000270843506,-0.6527999639511108,-1.7943999767303467
1702298799266731800,21.885731689453124,-0.04429999738931656,0.08799999952316284,-1.6517999172210693
1702298799326731800,21.945731689453126,1.7869999408721924,2.0062999725341797,-1.827699899673462
1702298799386731800,22.005731689453125,-1.0870000123977661,6.443599700927734,-0.47099998593330383
1702298799446731800,22.065731689453123,2.560699939727783,0.8104999661445618,0.6495000123977661
1702298799506731800,22.125731689453126,-1.2696999311447144,-2.952899932861328,2.861999988555908
1702298799566731800,22.185731689453124,-1.003999948501587,-2.0917999744415283,2.319499969482422
1702298799626731800,22.245731689453127,-1.0418999195098877,-2.3778998851776123,3.6621999740600586
1702298799686731800,22.305731689453125,0.26649999618530273,0.17509999871253967,3.398099899291992
1702298799746731800,22.365731689453124,6.485099792480469,-1.101599931716919,-5.827199935913086
1702298799806731800,22.425731689453126,0.7125999927520752,4.9101996421813965,-2.1466000080108643
1702298799866731800,22.485731689453125,-1.23989999294281,2.7697999477386475,2.1784000396728516
1702298799926731800,22.545731689453124,-5.253900051116943,-0.7267000079154968,0.8174999952316284
1702298799986731800,22.605731689453126,-0.24689999222755432,4.2204999923706055,2.284899950027466
1702298800046731800,22.665731689453125,-0.37610000371932983,-2.111999988555908,1.683899998664856
1702298800106731800,22.725731689453124,-3.0508999824523926,-1.0463999509811401,2.435699939727783
1702298800166731800,22.785731689453126,3.9828999042510986,-0.3774999976158142,-2.958699941635132
1702298800226731800,22.845731689453125,1.3588999509811401,-1.8792999982833862,-0.5239999890327454
1702298800286731800,22.905731689453123,1.6074999570846558,-0.7703999876976013,-1.0099999904632568
1702298800346731800,22.965731689453126,1.657599925994873,0.030899999663233757,-1.7105998992919922
1702298800406731800,23.025731689453124,1.0606999397277832,0.20909999310970306,-2.50600004196167
1702298800466731800,23.085731689453127,-0.9470999836921692,0.5544999837875366,0.1387999951839447
1702298800526731800,23.145731689453125,-1.246399998664856,4.055099964141846,-0.8327999711036682
1702298800586731800,23.205731689453124,2.698899984359741,3.097599983215332,1.2269999980926514
1702298800646731800,23.265731689453126,0.08810000121593475,-1.9824999570846558,1.938499927520752
1702298800706731800,23.325731689453125,-0.15299999713897705,-2.055299997329712,2.220599889755249
1702298800766731800,23.385731689453124,-0.21249999105930328,-1.742799997329712,1.959999918937683
1702298800826731800,23.445731689453126,-0.1396999955177307,-2.0810999870300293,3.657599925994873
1702298800886731800,23.505731689453125,5.380799770355225,3.5388998985290527,-0.9545999765396118
1702298800946731800,23.565731689453123,2.517199993133545,-2.506899833679199,-7.174699783325195
1702298801006731800,23.625731689453126,-2.7704999446868896,3.6710000038146973,-0.3358999788761139
1702298801066731800,23.685731689453124,3.131899833679199,-0.7023999691009521,3.9081997871398926
1702298801126731800,23.745731689453127,-3.6126999855041504,5.17519998550415,3.2983999252319336
1702298801186731800,23.805731689453125,1.1166999340057373,0.4350000023841858,0.05130000039935112
1702298801246731800,23.865731689453124,0.19349999725818634,-4.2139997482299805,-0.7461999654769897
1702298801306731800,23.925731689453126,0.14909999072551727,-0.8233000040054321,0.8271999955177307
1702298801366731800,23.985731689453125,2.2314999103546143,-1.0503000020980835,-0.2929999828338623
1702298801426731800,24.045731689453124,1.9301999807357788,-1.1582000255584717,-0.6118999719619751
1702298801486731800,24.105731689453126,1.4269999265670776,-0.667199969291687,-1.0853999853134155
1702298801546731800,24.165731689453125,0.8574000000953674,0.061799999326467514,-3.074899911880493
1702298801606731800,24.225731689453124,1.669600009918213,0.7393999695777893,-2.5669000148773193
1702298801666731800,24.285731689453126,0.9639999866485596,1.5261999368667603,0.3312999904155731
1702298801726731800,24.345731689453125,-0.45749998092651367,5.315799713134766,0.397599995136261
1702298801786731800,24.405731689453123,1.5858999490737915,2.2999000549316406,2.5010998249053955
1702298801846731800,24.465731689453126,0.7190999984741211,-2.5911998748779297,1.9961999654769897
1702298801906731800,24.525731689453124,-1.1057000160217285,-2.500499963760376,1.5655999183654785
1702298801966731800,24.585731689453127,-0.07559999823570251,-2.487799882888794,3.074199914932251
1702298802026731800,24.645731689453125,0.5295999646186829,-2.863499879837036,2.922299861907959
1702298802086731800,24.705731689453124,6.236000061035156,6.704099655151367,-3.6210999488830566
1702298802146731800,24.765731689453126,4.080199718475342,-4.67009973526001,-0.9501000046730042
1702298802206731800,24.825731689453125,-3.5123000144958496,4.075799942016602,0.9788999557495117
1702298802266731800,24.885731689453124,-2.185299873352051,4.518399715423584,0.8356999754905701
1702298802326731800,24.945731689453126,-3.6933999061584473,-1.1151000261306763,0.7112999558448792
1702298802386731800,25.005731689453125,1.4483000040054321,1.1201999187469482,0.7178999781608582
1702298802446731800,25.065731689453123,0.11580000072717667,-2.3831000328063965,3.557299852371216
1702298802506731800,25.125731689453126,-0.3165999948978424,-0.335099995136261,-0.7347999811172485
1702298802566731800,25.185731689453124,3.458199977874756,-2.2894999980926514,-2.091599941253662
1702298802626731800,25.245731689453127,3.033900022506714,-1.5472999811172485,-1.6957999467849731
1702298802686731800,25.305731689453125,2.0873000621795654,0.10040000081062317,-1.2919999361038208
1702298802746731800,25.365731689453124,-0.5170999765396118,-1.2355999946594238,-0.8007999658584595
1702298802806731800,25.425731689453126,2.9694998264312744,0.4876999855041504,-2.204400062561035
1702298802866731800,25.485731689453125,-2.5771000385284424,5.51639986038208,-4.187399864196777
1702298802926731800,25.545731689453124,3.9385998249053955,1.097599983215332,-1.6596999168395996
1702298802986731800,25.605731689453126,-0.2872999906539917,-0.2831999957561493,1.169700026512146
1702298803046731800,25.665731689453125,-3.09879994392395,-2.7925000190734863,4.464099884033203
1702298803106731800,25.725731689453124,-1.4589999914169312,-2.863499879837036,5.6367998123168945
1702298803166731800,25.785731689453126,-1.719599962234497,1.6933000087738037,5.716300010681152
1702298803226731800,25.845731689453125,4.900599956512451,-0.7078999876976013,-4.425300121307373
1702298803286731800,25.905731689453123,2.5332999229431152,-2.6160998344421387,-1.3446999788284302
1702298803346731800,25.965731689453126,2.1977999210357666,3.141899824142456,-2.0750999450683594
1702298803406731800,26.025731689453124,-2.723099946975708,3.3919999599456787,1.979200005531311
1702298803466731800,26.085731689453127,-1.893899917602539,-0.8819999694824219,3.8997998237609863
1702298803526731800,26.145731689453125,1.8496999740600586,1.9256999492645264,-0.5552999973297119
1702298803586731800,26.205731689453124,0.9062999486923218,-2.7474000453948975,3.3108999729156494
1702298803646731800,26.265731689453126,-1.593500018119812,-0.16769999265670776,1.0691999197006226
1702298803706731800,26.325731689453125,4.476900100708008,-2.102599859237671,-2.530099868774414
1702298803766731800,26.385731689453124,2.98009991645813,-1.5942999124526978,-0.8651999831199646
1702298803826731800,26.445731689453126,0.4747999906539917,0.8366000056266785,-1.191100001335144
1702298803886731800,26.505731689453125,3.2079999446868896,-0.47919997572898865,-1.063099980354309
1702298803946731800,26.565731689453123,-0.9515999555587769,-1.0405999422073364,-1.9469999074935913
1702298804006731800,26.625731689453126,1.5597999095916748,1.986199975013733,-2.831399917602539
1702298804066731800,26.685731689453124,0.530299961566925,8.010700225830078,0.31839999556541443
1702298804126731800,26.745731689453127,1.6064000129699707,-0.2777000069618225,1.0058000087738037
1702298804186731800,26.805731689453125,-1.181999921798706,-2.487799882888794,3.583599805831909
1702298804246731800,26.865731689453124,-1.1526999473571777,-2.381999969482422,2.0404999256134033
1702298804306731800,26.925731689453126,0.2620999813079834,-2.822000026702881,4.576099872589111
1702298804366731800,26.985731689453125,2.294999837875366,4.072299957275391,0.9967999458312988
1702298804426731800,27.045731689453124,3.1603000164031982,-5.146199703216553,-7.042500019073486
1702298804486731800,27.105731689453126,-0.8154000043869019,3.185699939727783,-0.3422999978065491
1702298804546731800,27.165731689453125,-1.1719999313354492,5.4934000968933105,2.8043999671936035
1702298804606731800,27.225731689453124,-4.779799938201904,-1.8325999975204468,1.507099986076355
1702298804666731800,27.285731689453126,2.6196999549865723,3.2772998809814453,1.222000002861023
1702298804726731800,27.345731689453125,-1.05239999294281,-1.5609999895095825,2.5351998805999756
1702298804786731800,27.405731689453123,-0.5776000022888184,-0.9947999715805054,2.709199905395508
1702298804846731800,27.465731689453126,2.1190998554229736,-0.7477999925613403,-2.166599988937378
1702298804906731800,27.525731689453124,5.0742998123168945,-2.0625,-2.874699831008911
1702298804966731800,27.585731689453127,-1.0608999729156494,1.124899983406067,-1.7809998989105225
1702298805026731800,27.645731689453125,2.766199827194214,-0.1386999934911728,-0.7313999533653259
1702298805086731800,27.705731689453124,-0.8412999510765076,-1.649899959564209,-1.9398999214172363
1702298805146731800,27.765731689453126,1.3258999586105347,2.3850998878479004,-2.2077999114990234
1702298805206731800,27.825731689453125,-0.4381999969482422,7.491099834442139,-0.953499972820282
1702298805266731800,27.885731689453124,2.1693999767303467,-1.274899959564209,0.41749998927116394
1702298805326731800,27.945731689453126,-0.6933000087738037,-2.373699903488159,1.9393999576568604
1702298805386731800,28.005731689453125,-1.8884999752044678,-2.359799861907959,3.1738998889923096
1702298805446731800,28.065731689453123,-1.4685999155044556,-0.2554999887943268,6.953099727630615
1702298805506731800,28.125731689453126,10.360400199890137,2.6826000213623047,1.8727999925613403
1702298805566731800,28.185731689453124,-3.221099853515625,-4.057799816131592,-7.7667999267578125
1702298805626731800,28.245731689453127,2.3244998455047607,4.2027997970581055,-4.663599967956543
1702298805686731800,28.305731689453125,1.956299901008606,1.3471999168395996,1.1411999464035034
1702298805746731800,28.365731689453124,-4.041399955749512,2.979300022125244,4.060499668121338
1702298805806731800,28.425731689453126,-0.5235999822616577,3.4198999404907227,1.8464999198913574
1702298805866731800,28.485731689453125,2.4724998474121094,-2.172499895095825,0.5260999798774719
1702298805926731800,28.545731689453124,-5.7363996505737305,-1.2070999145507812,2.4874000549316406
1702298805986731800,28.605731689453126,5.757899761199951,-1.5247999429702759,-3.012899875640869
1702298806046731800,28.665731689453125,3.463399887084961,-2.513200044631958,-2.391899824142456
1702298806106731800,28.725731689453124,1.386099934577942,-0.3402999937534332,-0.763700008392334
1702298806166731800,28.785731689453126,0.6416000127792358,1.0756999254226685,-0.23569999635219574
1702298806226731800,28.845731689453125,0.8155999779701233,1.070099949836731,-2.147899866104126
1702298806286731800,28.905731689453123,1.2898999452590942,0.8104999661445618,-1.8853999376296997
1702298806346731800,28.965731689453126,-0.0364999994635582,6.532099723815918,-1.3253999948501587
1702298806406731800,29.025731689453124,1.9504998922348022,1.472999930381775,1.8380999565124512
1702298806466731800,29.085731689453127,-0.7095999717712402,-2.3513998985290527,3.1992998123168945
1702298806526731800,29.145731689453125,-0.6913999915122986,-2.0508999824523926,1.972000002861023
1702298806586731800,29.205731689453124,-1.0649999380111694,-2.128499984741211,3.965099811553955
1702298806646731800,29.265731689453126,-0.1597999930381775,-1.7391999959945679,4.548399925231934
1702298806706731800,29.325731689453125,6.860499858856201,2.0569000244140625,-5.786999702453613
1702298806766731800,29.385731689453124,3.70169997215271,-2.3968000411987305,-2.557499885559082
1702298806826731800,29.445731689453126,4.405200004577637,2.3267998695373535,0.1662999987602234
1702298806886731800,29.505731689453125,-2.1624999046325684,4.176199913024902,-2.061300039291382
1702298806946731800,29.565731689453123,-3.7059998512268066,-3.200899839401245,5.880899906158447
1702298807006731800,29.625731689453126,1.1523000001907349,5.876100063323975,2.053799867630005
1702298807066733300,29.6857333984375,2.758999824523926,-1.44159996509552,-0.8373000025749207
1702298807126731800,29.745731689453127,-3.845899820327759,-1.6634999513626099,1.836899995803833
1702298807186731800,29.805731689453125,2.146699905395508,-1.4180999994277954,-0.5367000102996826
1702298807246731800,29.865731689453124,2.4793999195098877,-1.1373999118804932,-0.2263999879360199
1702298807306731800,29.925731689453126,2.9646999835968018,-1.334999918937683,-0.9542999863624573
1702298807366731800,29.985731689453125,1.7472999095916748,0.5310999751091003,-0.8923999667167664
1702298807426731800,30.045731689453124,1.6101999282836914,0.9634999632835388,-1.4912999868392944
1702298807486731800,30.105731689453126,1.5130000114440918,-1.5576999187469482,-1.7766000032424927
1702298807546731800,30.165731689453125,-0.36649999022483826,4.134500026702881,-2.7734999656677246
1702298807606731800,30.225731689453124,3.416299819946289,5.259500026702881,2.9560999870300293
1702298807666731800,30.285731689453126,0.47859999537467957,-0.9686999917030334,2.3222999572753906
1702298807726731800,30.345731689453125,-0.3755999803543091,-2.8035998344421387,3.4935998916625977
1702298807786731800,30.405731689453123,-0.710099995136261,-3.485999822616577,2.161900043487549
1702298807846731800,30.465731689453126,0.21570000052452087,-2.5130999088287354,4.763299942016602
1702298807906731800,30.525731689453124,9.699799537658691,11.539899826049805,-0.9291999936103821
1702298807966731800,30.585731689453127,6.041199684143066,-6.9542999267578125,-4.065199851989746
1702298808026731800,30.645731689453125,-1.6720999479293823,5.7789998054504395,0.46059998869895935
1702298808086731800,30.705731689453124,-2.068199872970581,1.1191999912261963,2.0952999591827393
1702298808146731800,30.765731689453126,-2.100299835205078,1.2117999792099,0.7608000040054321
1702298808206731800,30.825731689453125,0.48799997568130493,-0.4878999888896942,0.4465000033378601
1702298808266731800,30.885731689453124,-1.4616999626159668,-1.694700002670288,3.6532998085021973
1702298808326731800,30.945731689453126,-0.04999999701976776,-0.6107000112533569,-1.510599970817566
1702298808386731800,31.005731689453125,4.360300064086914,-2.1480000019073486,-2.4550998210906982
1702298808446731800,31.065731689453123,3.1823999881744385,-0.4520999789237976,-1.6069999933242798
1702298808506731800,31.125731689453126,1.921199917793274,0.8869999647140503,-0.9550999999046326
1702298808566731800,31.185731689453124,0.637499988079071,0.1824999898672104,-2.359499931335449
1702298808626731800,31.245731689453127,2.0843000411987305,-0.9544000029563904,-2.3164000511169434
1702298808686731800,31.305731689453125,-0.9886999726295471,3.869499921798706,-2.126499891281128
1702298808746731800,31.365731689453124,3.3345999717712402,4.954400062561035,2.998499870300293
1702298808806731800,31.425731689453126,0.11289999634027481,-2.145900011062622,2.3397998809814453
1702298808866731800,31.485731689453125,-1.4117999076843262,-2.3299999237060547,3.244999885559082
1702298808926731800,31.545731689453124,-0.7401999831199646,-2.1778998374938965,3.3026998043060303
1702298808986731800,31.605731689453126,0.6449999809265137,-2.2381999492645264,4.277499675750732
1702298809046731800,31.665731689453125,11.304499626159668,4.639400005340576,-2.8964998722076416
1702298809106731800,31.725731689453124,5.648299694061279,-3.5154998302459717,-3.288599967956543
1702298809166731800,31.785731689453126,-4.591899871826172,8.280799865722656,0.7938999533653259
1702298809226731800,31.845731689453125,-4.351900100708008,0.299699991941452,2.4629998207092285
1702298809286731800,31.905731689453123,-0.8567000031471252,2.329900026321411,1.4853999614715576
1702298809346731800,31.965731689453126,0.6136999726295471,-0.5715000033378601,-0.0471000000834465
1702298809406731800,32.025731689453124,-1.1302000284194946,-2.046099901199341,3.221400022506714
1702298809466731800,32.08573168945313,1.5674999952316284,-1.0327999591827393,-1.2542999982833862
1702298809526731800,32.14573168945312,3.538100004196167,-1.9249999523162842,-2.6684000492095947
1702298809586731800,32.205731689453124,1.6674000024795532,-0.5989999771118164,-0.9164999723434448
1702298809646731800,32.265731689453126,1.6869999170303345,-0.5669999718666077,-2.1754000186920166
1702298809706731800,32.32573168945312,2.345900058746338,0.33559998869895935,-1.4263999462127686
1702298809766731800,32.385731689453124,2.94789981842041,0.16380000114440918,-0.8813999891281128
1702298809826731800,32.445731689453126,-1.1506999731063843,2.8695998191833496,-2.8992998600006104
1702298809886731800,32.50573168945313,5.4923996925354,8.442699432373047,3.587599992752075
1702298809946731800,32.56573168945312,0.33079999685287476,-1.92739999294281,2.0996999740600586
1702298810006731800,32.625731689453126,-0.583899974822998,-2.82099986076355,2.8875999450683594
1702298810066731800,32.68573168945313,-0.5735999941825867,-4.234999656677246,3.1770999431610107
1702298810126731800,32.74573168945312,1.309399962425232,-2.006999969482422,4.133199691772461
1702298810186731800,32.805731689453125,2.8104000091552734,-0.5870000123977661,-7.564999580383301
1702298810246731800,32.86573168945313,2.3645999431610107,3.4191999435424805,2.3173999786376953
1702298810306731800,32.92573168945312,1.2135999202728271,3.941999912261963,0.6053000092506409
1702298810366731800,32.985731689453125,-3.8640999794006348,2.1731998920440674,2.225100040435791
1702298810426731800,33.04573168945313,0.13679999113082886,0.6833999752998352,0.0405999980866909
1702298810486731800,33.10573168945312,0.23739999532699585,-1.1603000164031982,2.630699872970581
1702298810546731800,33.165731689453125,-1.9354000091552734,-1.4400999546051025,2.3362998962402344
1702298810606731800,33.22573168945313,4.326900005340576,-1.82069993019104,-3.349799871444702
1702298810666731800,33.28573168945312,4.03380012512207,-1.3208999633789062,-1.118899941444397
1702298810726731800,33.345731689453125,2.057499885559082,0.40860000252723694,-1.8047999143600464
1702298810786731800,33.40573168945313,2.5326998233795166,-0.9104999899864197,-3.1617000102996826
1702298810846731800,33.46573168945312,-1.2592999935150146,-0.9434999823570251,-0.611299991607666
1702298810906731800,33.525731689453124,-0.21159999072551727,3.120999813079834,-2.9330999851226807
1702298810966731800,33.58573168945313,2.0613999366760254,7.678099632263184,3.149899959564209
1702298811026731800,33.64573168945312,1.6165999174118042,-0.5419999957084656,1.5918999910354614
1702298811086731800,33.705731689453124,-1.032599925994873,-1.6959999799728394,2.8999998569488525
1702298811146731800,33.765731689453126,-1.5460000038146973,-1.5532000064849854,2.1907999515533447
1702298811206731800,33.82573168945312,0.51419997215271,-2.185999870300293,5.464099884033203
1702298811266731800,33.885731689453124,4.779699802398682,4.659299850463867,0.6241999864578247
1702298811326731800,33.945731689453126,4.183399677276611,-6.324599742889404,-4.825699806213379
1702298811386731800,34.00573168945313,-1.0013999938964844,5.5092997550964355,2.486599922180176
1702298811446731800,34.06573168945312,2.8529000282287598,-0.7128999829292297,-1.3571999073028564
1702298811506731800,34.125731689453126,-3.2600998878479004,0.8003000020980835,1.7109999656677246
1702298811566731800,34.18573168945313,0.26499998569488525,0.8482999801635742,-0.5537999868392944
1702298811626731800,34.24573168945312,-0.19869999587535858,-1.8184999227523804,1.4476999044418335
1702298811686731800,34.305731689453125,-1.758099913597107,-0.43149998784065247,3.3118999004364014
1702298811746731800,34.36573168945313,1.8610999584197998,-0.723800003528595,-1.0997999906539917
1702298811806759700,34.425759765625,3.3987998962402344,-1.399899959564209,-0.6133999824523926
1702298811866731800,34.485731689453125,0.32749998569488525,0.6184999942779541,-0.9151999950408936
1702298811926731800,34.54573168945313,1.7969999313354492,-0.16519999504089355,-1.7529000043869019
1702298811986731800,34.60573168945312,1.1962999105453491,0.6038999557495117,-2.178299903869629
1702298812046731800,34.665731689453125,2.0434000492095947,-1.4174000024795532,-0.48559999465942383
1702298812106731800,34.72573168945313,-1.09089994430542,4.863399982452393,-1.7103999853134155
1702298812166731800,34.78573168945312,2.4387998580932617,4.854000091552734,3.298799991607666
1702298812226731800,34.845731689453125,0.7569999694824219,-2.0700998306274414,2.452899932861328
1702298812286731800,34.90573168945313,-0.2678000032901764,-2.8378000259399414,1.930999994277954
1702298812346731800,34.96573168945312,0.2833999991416931,-3.5274999141693115,3.223099946975708
1702298812406731800,35.025731689453124,2.0332000255584717,-1.4678999185562134,2.547600030899048
1702298812466731800,35.08573168945313,4.399600028991699,-1.4155999422073364,-6.281199932098389
1702298812526731800,35.14573168945312,-0.917199969291687,-1.9892998933792114,2.588899850845337
1702298812586731800,35.205731689453124,0.8859999775886536,10.479399681091309,0.9333999752998352
1702298812646731800,35.265731689453126,-3.231799840927124,-2.0072999000549316,2.964099884033203
1702298812706731800,35.32573168945312,0.6086999773979187,2.785099983215332,1.9997999668121338
1702298812766731800,35.385731689453124,-0.0494999997317791,-1.2897999286651611,2.1189000606536865
1702298812826731800,35.445731689453126,-1.5197999477386475,-0.5875999927520752,1.0708999633789062
1702298812886731800,35.50573168945313,5.0640997886657715,-1.6509000062942505,-2.9574999809265137
1702298812946731800,35.56573168945312,3.6718997955322266,-2.2040998935699463,-1.5023999214172363
1702298813006731800,35.625731689453126,1.0058000087738037,-0.05159999802708626,-1.9632999897003174
1702298813066731800,35.68573168945313,2.535099983215332,0.019600000232458115,-0.6190999746322632
1702298813126731800,35.74573168945312,2.24429988861084,0.2886999845504761,-0.2639999985694885
1702298813186731800,35.805731689453125,-2.3099000453948975,3.2376999855041504,-3.284799814224243
1702298813246731800,35.86573168945313,5.848499774932861,9.262499809265137,1.561900019645691
1702298813306731800,35.92573168945312,0.12889999151229858,-1.0318000316619873,2.91729998588562
1702298813366731800,35.985731689453125,-0.6658999919891357,-3.0226998329162598,3.8471999168395996
1702298813426731800,36.04573168945313,-1.5408999919891357,-3.4428999423980713,2.622999906539917
1702298813486731800,36.10573168945312,-0.013199999928474426,-3.8548998832702637,4.791500091552734
1702298813546731800,36.165731689453125,8.0718994140625,6.6215996742248535,0.849299967288971
1702298813606731800,36.22573168945313,6.264800071716309,-5.606100082397461,-6.263000011444092
1702298813666731800,36.28573168945312,0.4576999843120575,4.036799907684326,2.474799871444702
1702298813726731800,36.345731689453125,-1.4326000213623047,3.7667999267578125,1.50819993019104
1702298813786731800,36.40573168945313,-2.891199827194214,-1.2872999906539917,0.3229999840259552
1702298813846731800,36.46573168945312,0.6322999596595764,0.5658999681472778,0.2946999967098236
1702298813906731800,36.525731689453124,0.06019999831914902,-1.8583999872207642,3.7978999614715576
1702298813966731800,36.58573168945313,-1.0253000259399414,-0.7150999903678894,-0.7366999983787537
1702298814026731800,36.64573168945312,4.159899711608887,-1.8828999996185303,-1.7001999616622925
1702298814086731800,36.705731689453124,2.613999843597412,0.35819998383522034,-0.5349999666213989
1702298814146731800,36.765731689453126,1.4197999238967896,-0.41499999165534973,-1.5130999088287354
1702298814206731800,36.82573168945312,2.811199903488159,-0.1410999894142151,-2.9433999061584473
1702298814266731800,36.885731689453124,1.8186999559402466,0.028599999845027924,-2.3262999057769775
1702298814326731800,36.945731689453126,-0.8646999597549438,6.04449987411499,-1.8500999212265015
1702298814386731800,37.00573168945313,2.655900001525879,1.677799940109253,0.9484999775886536
1702298814446731800,37.06573168945312,-0.18859998881816864,-2.597100019454956,3.2095999717712402
1702298814506731800,37.125731689453126,-1.0755000114440918,-2.25600004196167,2.8185999393463135
1702298814566731800,37.18573168945313,0.33869999647140503,-3.8015999794006348,3.717099905014038
1702298814626731800,37.24573168945312,0.34769999980926514,2.2869999408721924,3.1633999347686768
1702298814686731800,37.305731689453125,2.2156999111175537,-3.519699811935425,-7.192999839782715
1702298814746731800,37.36573168945313,-2.4654998779296875,-1.4929999113082886,2.4392998218536377
1702298814806731800,37.42573168945312,0.20899999141693115,12.156399726867676,0.7742999792098999
1702298814866731800,37.485731689453125,-3.1071999073028564,-0.6732000112533569,3.5195999145507812
1702298814926731800,37.54573168945313,-1.2769999504089355,0.25999999046325684,0.03869999945163727
1702298814986731800,37.60573168945312,0.7710999846458435,-0.8885999917984009,1.6062999963760376
1702298815046731800,37.665731689453125,-0.6252999901771545,-0.8941999673843384,2.2465999126434326
1702298815106731800,37.72573168945313,7.690099716186523,-2.0105998516082764,-5.2434000968933105
1702298815166731800,37.78573168945312,1.962899923324585,-2.100100040435791,-1.9848999977111816
1702298815226731800,37.845731689453125,1.7451999187469482,-0.22999998927116394,-1.5710999965667725
1702298815286731800,37.90573168945313,1.1722999811172485,-0.37790000438690186,-0.8654999732971191
1702298815346731800,37.96573168945312,0.6862999796867371,-1.5435999631881714,-0.2305999994277954
1702298815406731800,38.025731689453124,-0.7550999522209167,3.8279998302459717,-3.0134999752044678
1702298815466731800,38.08573168945313,2.9438998699188232,4.1605000495910645,0.936199963092804
1702298815526731800,38.14573168945312,0.3416000008583069,-1.0692999362945557,1.5168999433517456
1702298815586731800,38.205731689453124,-0.25459998846054077,-0.20099999010562897,1.2553999423980713
1702298815646731800,38.265731689453126,-1.13319993019104,0.20839999616146088,2.9305999279022217
1702298815706731800,38.32573168945312,-1.3787999153137207,-0.7853999733924866,5.586099624633789
1702298815766733300,38.3857333984375,3.336400032043457,-2.876499891281128,7.115999698638916
1702298815826731800,38.445731689453126,-3.1382999420166016,4.360300064086914,-11.460700035095215
1702298815886731800,38.50573168945313,2.128000020980835,1.9833999872207642,-3.02810001373291
1702298815946731800,38.56573168945312,-1.2595999240875244,1.3244999647140503,3.169600009918213
1702298816006731800,38.625731689453126,-5.3678998947143555,0,1.7358999252319336
1702298816066731800,38.68573168945313,3.8932998180389404,3.6096999645233154,0.8208000063896179
1702298816126731800,38.74573168945312,0.22179999947547913,-2.6004998683929443,2.450899839401245
1702298816186731800,38.805731689453125,1.4651999473571777,-1.4977999925613403,-0.25369998812675476
1702298816246731800,38.86573168945313,4.794899940490723,-2.1382999420166016,-1.8015999794006348
1702298816306731800,38.92573168945312,-0.17109999060630798,-0.9399999976158142,-0.0364999994635582
1702298816366731800,38.985731689453125,-1.952799916267395,3.212100028991699,-2.0864999294281006
1702298816426731800,39.04573168945313,-0.6121000051498413,1.9510999917984009,-0.42569997906684875
1702298816486731800,39.10573168945312,1.427299976348877,3.3760998249053955,-1.9530999660491943
1702298816546731800,39.165731689453125,1.594499945640564,2.3750998973846436,2.512899875640869
1702298816606731800,39.22573168945313,-0.4777999818325043,-1.6729999780654907,1.4327999353408813
1702298816666731800,39.28573168945312,-0.24650000035762787,-1.5096999406814575,2.6648998260498047
1702298816726731800,39.345731689453125,-1.2760000228881836,-0.6847999691963196,3.2408998012542725
1702298816786731800,39.40573168945313,-0.08269999921321869,-1.1171000003814697,3.5124998092651367
1702298816846731800,39.46573168945312,5.338799953460693,0.9508999586105347,-0.04659999907016754
1702298816906731800,39.525731689453124,4.637099742889404,-1.948099970817566,-2.5760998725891113
1702298816966731800,39.58573168945313,-0.5170999765396118,3.8757998943328857,1.8424999713897705
1702298817026731800,39.64573168945312,3.6768999099731445,3.443499803543091,5.628999710083008
1702298817086731800,39.705731689453124,-7.11359977722168,-0.3968999981880188,-1.2251999378204346
1702298817146731800,39.765731689453126,2.682299852371216,-1.0231999158859253,-3.312299966812134
1702298817206731800,39.82573168945312,-6.432999610900879,1.236299991607666,0.6953999996185303
1702298817266731800,39.885731689453124,2.718400001525879,-0.16699999570846558,1.8686999082565308
1702298817326731800,39.945731689453126,1.473099946975708,-2.5439999103546143,-0.5403000116348267
1702298817386731800,40.00573168945313,2.2921998500823975,-2.587599992752075,-1.048699975013733
1702298817446731800,40.06573168945312,2.0081000328063965,-0.19669999182224274,-0.09049999713897705
1702298817506731800,40.125731689453126,1.062600016593933,0.5421000123023987,0.7732999920845032
1702298817566731800,40.18573168945313,-0.09009999781847,-1.3133999109268188,-1.308899998664856
1702298817626731800,40.24573168945312,1.129599928855896,-1.1128000020980835,-5.0467000007629395
1702298817686731800,40.305731689453125,-1.351699948310852,-0.32909998297691345,-0.5741999745368958
1702298817746731800,40.36573168945313,-1.2644000053405762,4.444499969482422,2.9545998573303223
1702298817806731800,40.42573168945312,-0.21159999072551727,1.639299988746643,-2.5185999870300293
1702298817866731800,40.485731689453125,-2.856799840927124,3.9704999923706055,0.10269999504089355
1702298817926731800,40.54573168945313,-2.023200035095215,-0.5370999574661255,1.170799970626831
1702298817986731800,40.60573168945312,-3.109799861907959,-0.2945999801158905,2.77020001411438
1702298818046731800,40.665731689453125,-1.8890999555587769,-2.3892998695373535,1.5936999320983887
1702298818106731800,40.72573168945313,-1.194000005722046,1.2939000129699707,2.1419999599456787
1702298818166731800,40.78573168945312,-2.998800039291382,-0.5554999709129333,2.0040998458862305
1702298818226731800,40.845731689453125,-0.5001000165939331,0.30570000410079956,2.5314998626708984
1702298818286731800,40.90573168945313,0.44839999079704285,-1.4280999898910522,1.1305999755859375
1702298818346731800,40.96573168945312,-0.0949999988079071,1.2152999639511108,0.09640000015497208
1702298818406731800,41.025731689453124,-2.3541998863220215,7.696300029754639,-4.217099666595459
1702298818466731800,41.08573168945313,-5.399199962615967,-9.924200057983398,6.303799629211426
1702298818526731800,41.14573168945312,1.1546000242233276,4.0152997970581055,-5.2104997634887695
1702298818586731800,41.205731689453124,-0.4097999930381775,-1.1787999868392944,2.229099988937378
1702298818646731800,41.265731689453126,0.4641999900341034,-0.33570000529289246,-0.7997999787330627
1702298818706731800,41.32573168945312,0.7276999950408936,-0.4869999885559082,0.9802999496459961
1702298818766731800,41.385731689453124,1.0227999687194824,0.9441999793052673,0.717199981212616
1702298818826731800,41.445731689453126,1.3252999782562256,0.11899999529123306,1.452299952507019
1702298818886731800,41.50573168945313,1.8325999975204468,0.15879999101161957,1.6713999509811401
1702298818946731800,41.56573168945312,2.5727999210357666,-0.6287999749183655,1.12309992313385
1702298819006731800,41.625731689453126,0.3384999930858612,0.008799999952316284,-0.10679999738931656
1702298819066731800,41.68573168945313,-1.5305999517440796,0.8876999616622925,1.6358999013900757
1702298819126731800,41.74573168945312,-3.226300001144409,0.6924999952316284,0.22119998931884766
1702298819186731800,41.805731689453125,-0.7003999948501587,2.0476999282836914,0.2012999951839447
1702298819246731800,41.86573168945313,-1.174899935722351,0.9203999638557434,0.34459999203681946
1702298819306731800,41.92573168945312,1.7889999151229858,-1.4158999919891357,0.7168999910354614
1702298819366731800,41.985731689453125,1.1439999341964722,0.14499999582767487,0.9565999507904053
1702298819426731800,42.04573168945313,-0.3310000002384186,1.5644999742507935,-2.047600030899048
1702298819486731800,42.10573168945312,4.252299785614014,-2.4408998489379883,-2.148200035095215
1702298819546731800,42.165731689453125,4.581699848175049,-1.814099907875061,-1.6145999431610107
1702298819606731800,42.22573168945313,4.0279998779296875,1.2711999416351318,1.2870999574661255
1702298819666731800,42.28573168945312,1.4266999959945679,1.017899990081787,0.7188000082969666
1702298819726731800,42.345731689453125,-0.5400999784469604,3.789599895477295,-0.052799999713897705
1702298819786731800,42.40573168945313,-0.31439998745918274,3.702699899673462,0.445499986410141
1702298819846731800,42.46573168945312,-0.1362999975681305,2.4781999588012695,1.230199933052063
1702298819906731800,42.525731689453124,2.162799835205078,-0.5162000060081482,2.9179999828338623
1702298819966731800,42.58573168945313,-0.1404999941587448,-4.047599792480469,2.032399892807007
1702298820026731800,42.64573168945312,-0.06729999929666519,-4.977499961853027,1.2833999395370483
1702298820086731800,42.705731689453124,1.472499966621399,-5.830399990081787,3.034799814224243
1702298820146731800,42.765731689453126,4.100899696350098,3.371699810028076,1.0830999612808228
1702298820206731800,42.82573168945312,8.475199699401855,-3.751499891281128,0.07239999622106552
1702298820266731800,42.885731689453124,-4.294899940490723,6.610899925231934,-2.3016998767852783
1702298820326731800,42.945731689453126,-4.4238996505737305,2.2948999404907227,1.2954000234603882
1702298820386731800,43.00573168945313,-2.8195998668670654,2.5688998699188232,0.5917999744415283
1702298820446731800,43.06573168945312,4.265599727630615,-2.4739999771118164,1.4800000190734863
1702298820506731800,43.125731689453126,1.88319993019104,-0.767799973487854,1.1960999965667725
1702298820566731800,43.18573168945313,1.2060999870300293,-1.0484999418258667,-1.219599962234497
1702298820626731800,43.24573168945312,4.559799671173096,-1.8395999670028687,-1.445199966430664
1702298820686731800,43.305731689453125,3.396199941635132,-2.059799909591675,-3.585599899291992
1702298820746731800,43.36573168945313,-0.7001999616622925,2.020699977874756,-0.7152000069618225
1702298820806731800,43.42573168945312,0.9217999577522278,-0.02239999920129776,1.1826999187469482
1702298820866731800,43.485731689453125,-1.6978999376296997,5.023399829864502,-0.305899977684021
1702298820926731800,43.54573168945313,2.785099983215332,0.34860000014305115,0.14970000088214874
1702298820986731800,43.60573168945312,-0.6166999936103821,-1.4151999950408936,2.1238999366760254
1702298821046731800,43.665731689453125,0.06499999761581421,-2.0511999130249023,2.428299903869629
1702298821106731800,43.72573168945313,-0.21069999039173126,-2.025599956512451,3.0164999961853027
1702298821166731800,43.78573168945312,2.312299966812134,-0.585599958896637,2.5832998752593994
1702298821226731800,43.845731689453125,2.1888999938964844,-1.5281999111175537,-3.288599967956543
1702298821286731800,43.90573168945313,2.5421998500823975,5.898499965667725,-1.167199969291687
1702298821346731800,43.96573168945312,1.598099946975708,-2.3272998332977295,1.7002999782562256
1702298821406731800,44.025731689453124,-4.56850004196167,0.9881999492645264,2.0525999069213867
1702298821466731800,44.08573168945313,1.1444000005722046,2.218600034713745,-0.7188999652862549
1702298821526731800,44.14573168945312,0.6159999966621399,-1.6180999279022217,-0.21599999070167542
1702298821586731800,44.205731689453124,-0.3261999785900116,-1.253000020980835,1.3690999746322632
1702298821646731800,44.265731689453126,1.7702000141143799,-0.45249998569488525,-0.406499981880188
1702298821706731800,44.32573168945312,2.73799991607666,-1.2381999492645264,-0.5389999747276306
1702298821766731800,44.385731689453124,2.6298999786376953,-0.5198999643325806,-1.82069993019104
1702298821826731800,44.445731689453126,1.5261999368667603,1.277999997138977,-1.461899995803833
1702298821886731800,44.50573168945313,3.1420998573303223,2.205699920654297,-2.2776999473571777
1702298821946731800,44.56573168945312,-0.714199960231781,0.22349999845027924,0.18159998953342438
1702298822006731800,44.625731689453126,0.0543999969959259,4.539599895477295,-1.0227999687194824
1702298822066731800,44.68573168945313,0.875,0.27160000801086426,0.9049999713897705
1702298822126731800,44.74573168945312,0.727899968624115,-2.381700038909912,3.5384998321533203
1702298822186731800,44.805731689453125,-1.0683000087738037,-4.750499725341797,2.291300058364868
1702298822246731800,44.86573168945313,0.864799976348877,-4.7876996994018555,2.7142999172210693
1702298822306731800,44.92573168945312,5.529399871826172,7.0055999755859375,-2.7732999324798584
1702298822366731800,44.985731689453125,4.643499851226807,-0.8517999649047852,1.6014999151229858
1702298822426733300,45.0457333984375,-0.32569998502731323,4.025599956512451,-2.069200038909912
1702298822486731800,45.10573168945312,-3.999699831008911,-0.8145999908447266,-1.6678999662399292
1702298822546731800,45.165731689453125,-0.6234999895095825,1.8673999309539795,-1.4412000179290771
1702298822606731800,45.22573168945313,0.4043999910354614,-1.43559992313385,4.362100124359131
1702298822666731800,45.28573168945312,0.8084999918937683,0.011500000022351742,1.638700008392334
1702298822726731800,45.345731689453125,1.257599949836731,-1.3033000230789185,-2.0040998458862305
1702298822786731800,45.40573168945313,1.0875999927520752,-1.5539000034332275,-1.1575000286102295
1702298822846731800,45.46573168945312,1.9749999046325684,-0.5830999612808228,-0.3815999925136566
1702298822906731800,45.525731689453124,0.8723999857902527,0.11909999698400497,0.7687000036239624
1702298822966731800,45.58573168945313,0.9188999533653259,0.5767999887466431,-1.4134999513626099
1702298823026731800,45.64573168945312,1.9972999095916748,-0.7569999694824219,-1.7845999002456665
1702298823086731800,45.705731689453124,-1.5281000137329102,4.311800003051758,-1.0981999635696411
1702298823146731800,45.765731689453126,3.243000030517578,3.86899995803833,2.158599853515625
1702298823206731800,45.82573168945312,0.1817999929189682,-1.9490998983383179,1.04830002784729
1702298823266731800,45.885731689453124,-3.6984000205993652,-1.1280999183654785,3.451399803161621
1702298823326731800,45.945731689453126,2.0806000232696533,-0.8662999868392944,2.7565999031066895
1702298823386731800,46.00573168945313,0.5733000040054321,0.8418999910354614,3.741499900817871
1702298823446731800,46.06573168945312,2.268199920654297,-1.1647999286651611,-2.617300033569336
1702298823506731800,46.125731689453126,-0.21279999613761902,-0.311599999666214,-0.1762000024318695
1702298823566731800,46.18573168945313,3.5199999809265137,5.113100051879883,4.539299964904785
1702298823626731800,46.24573168945312,-9.901599884033203,4.53439998626709,1.8741999864578247
1702298823686731800,46.305731689453125,0.7602999806404114,-8.758299827575684,-8.908499717712402
1702298823746731800,46.36573168945313,-0.5504999756813049,6.599099636077881,1.9937999248504639
1702298823806731800,46.42573168945312,-0.6471999883651733,-3.9921998977661133,1.1726999282836914
1702298823866731800,46.485731689453125,3.309499979019165,-1.3488999605178833,-1.477199912071228
1702298823926731800,46.54573168945313,0.8003999590873718,-0.6672999858856201,-2.8894999027252197
1702298823986731800,46.60573168945312,3.307799816131592,-2.2481000423431396,-1.284600019454956
1702298824046731800,46.665731689453125,0.9404000043869019,-1.392300009727478,-2.094099998474121
1702298824106731800,46.72573168945313,1.4227999448776245,-2.146899938583374,-1.452799916267395
1702298824166731800,46.78573168945312,2.336699962615967,-1.2350000143051147,-1.854200005531311
1702298824226731800,46.845731689453125,1.4090999364852905,-0.6827999949455261,-1.2355999946594238
1702298824286731800,46.90573168945313,0.6193999648094177,1.4825999736785889,0.34219998121261597
1702298824346731800,46.96573168945312,3.55049991607666,5.059899806976318,-1.7263998985290527
1702298824406731800,47.025731689453124,2.0241000652313232,1.6857999563217163,1.1243000030517578
1702298824466731800,47.08573168945313,1.2930999994277954,-2.9086999893188477,0.8053999543190002
1702298824526731800,47.14573168945312,-0.05480000004172325,-3.1850998401641846,1.7239999771118164
1702298824586731800,47.205731689453124,0.5716999769210815,-4.804699897766113,4.706199645996094
1702298824646731800,47.265731689453126,0.25759997963905334,1.3531999588012695,2.524099826812744
1702298824706731800,47.32573168945312,5.1305999755859375,0.7870999574661255,-10.797499656677246
1702298824766731800,47.385731689453124,-6.234999656677246,2.921999931335449,-1.855799913406372
1702298824826731800,47.445731689453126,-1.7984999418258667,-3.2458999156951904,4.292900085449219
1702298824886731800,47.50573168945313,-1.3601999282836914,7.011999607086182,7.818399906158447
1702298824946731800,47.56573168945312,0.590999960899353,-2.469399929046631,1.090999960899353
1702298825006731800,47.625731689453126,2.510699987411499,-0.6074999570846558,2.214400053024292
1702298825066731800,47.68573168945313,1.1402000188827515,-0.5209999680519104,0.5647000074386597
1702298825126731800,47.74573168945312,1.6208000183105469,-0.48649999499320984,1.0678999423980713
1702298825186731800,47.805731689453125,2.843600034713745,-2.3666000366210938,-2.303999900817871
1702298825246731800,47.86573168945313,-1.4204999208450317,3.8798999786376953,-1.407599925994873
1702298825306731800,47.92573168945312,2.0234999656677246,2.033900022506714,-0.990399956703186
1702298825366731800,47.985731689453125,2.5140998363494873,1.1492999792099,-3.044600009918213
1702298825426731800,48.04573168945313,-2.808499813079834,3.318699836730957,-3.4749999046325684
1702298825486731800,48.10573168945312,2.996999979019165,2.6347999572753906,2.528599977493286
1702298825546731800,48.165731689453125,-0.36319997906684875,-2.6960999965667725,4.216000080108643
1702298825606731800,48.22573168945313,-2.183199882507324,-4.2342000007629395,3.390899896621704
1702298825666731800,48.28573168945312,1.036199927330017,-4.74839973449707,2.2923998832702637
1702298825726731800,48.345731689453125,4.502399921417236,4.454099655151367,-1.667699933052063
1702298825786731800,48.40573168945313,5.736599922180176,-2.017400026321411,-0.376800000667572
1702298825846731800,48.46573168945312,-3.623699903488159,4.973700046539307,-1.1507999897003174
1702298825906731800,48.525731689453124,-1.7662999629974365,-2.0779998302459717,2.638399839401245
1702298825966731800,48.58573168945313,-1.793299913406372,2.6823999881744385,1.2203999757766724
1702298826026731800,48.64573168945312,0.4514999985694885,-1.5477999448776245,1.1074999570846558
1702298826086731800,48.705731689453124,-0.12479999661445618,-1.309999942779541,0.2839999794960022
1702298826146731800,48.765731689453126,0.4648999869823456,-1.229599952697754,-0.8474999666213989
1702298826206731800,48.82573168945312,1.3452999591827393,-0.02719999849796295,1.1302999258041382
1702298826266731800,48.885731689453124,2.5539000034332275,-0.21050000190734863,-0.6038999557495117
1702298826326731800,48.945731689453126,2.5576999187469482,0.4139999747276306,-1.591599941253662
1702298826386731800,49.00573168945313,1.4010999202728271,0.802899956703186,-1.3761999607086182
1702298826446731800,49.06573168945312,-0.07029999792575836,-0.05590000003576279,-2.9993999004364014
1702298826506731800,49.125731689453126,-0.366599977016449,8.848999977111816,1.2120000123977661
1702298826566731800,49.18573168945313,1.7221999168395996,-0.382999986410141,1.435499906539917
1702298826626731800,49.24573168945312,-1.1216999292373657,-2.2319998741149902,3.726799964904785
1702298826686731800,49.305731689453125,-0.22289998829364777,-1.976599931716919,2.5490000247955322
1702298826746731800,49.36573168945313,-0.4619999825954437,-1.7487999200820923,3.5648000240325928
1702298826806731800,49.42573168945312,1.306399941444397,-0.9513999819755554,2.9168999195098877
1702298826866731800,49.485731689453125,4.5879998207092285,1.789199948310852,-4.745800018310547
1702298826926731800,49.54573168945313,5.414499759674072,-4.140599727630615,-0.8885999917984009
1702298826986731800,49.60573168945312,-2.1327998638153076,5.420899868011475,1.1208999156951904
1702298827046731800,49.665731689453125,-0.4274999797344208,3.2609000205993652,3.511199951171875
1702298827106731800,49.72573168945313,-2.5802998542785645,0.44359999895095825,2.396699905395508
1702298827166731800,49.78573168945312,3.335399866104126,0.7427999973297119,0.9538999795913696
1702298827226731800,49.845731689453125,-0.5342000126838684,-1.7454999685287476,2.0606000423431396
1702298827286731800,49.90573168945313,-0.5189999938011169,-1.3997999429702759,-0.8964999914169312
1702298827346731800,49.96573168945312,6.141200065612793,-1.254499912261963,-2.822499990463257
1702298827406731800,50.025731689453124,3.254199981689453,-0.5220000147819519,-1.1713999509811401
1702298827466731800,50.08573168945313,2.341899871826172,0.17649999260902405,-0.6780999898910522
1702298827526731800,50.14573168945312,2.317199945449829,-0.49949997663497925,-1.7217999696731567
1702298827586731800,50.205731689453124,1.051200032234192,-1.1754000186920166,-1.4555000066757202
1702298827646731800,50.265731689453126,-0.6049000024795532,3.4743998050689697,-3.0446999073028564
1702298827706731800,50.32573168945312,2.8952999114990234,7.588699817657471,3.032099962234497
1702298827766731800,50.385731689453124,1.2810999155044556,-1.1836999654769897,1.8931999206542969
1702298827826731800,50.445731689453126,-1.6370999813079834,-2.4575998783111572,3.671799898147583
1702298827886731800,50.50573168945313,-0.9785999655723572,-2.535599946975708,3.2366998195648193
1702298827946731800,50.56573168945312,0.3333999812602997,-2.445199966430664,4.874300003051758
1702298828006731800,50.625731689453126,8.961099624633789,8.629599571228027,-1.1744999885559082
1702298828066731800,50.68573168945313,4.535399913787842,-2.3732998371124268,-5.518099784851074
1702298828126731800,50.74573168945312,-3.776399850845337,4.957200050354004,0.8517999649047852
1702298828186731800,50.805731689453125,-3.621799945831299,0.9962999820709229,2.703199863433838
1702298828246731800,50.86573168945313,-1.5300999879837036,2.7321999073028564,1.000499963760376
1702298828306731800,50.92573168945312,0.8035999536514282,-0.21480000019073486,1.3650000095367432
1702298828366731800,50.985731689453125,-0.29490000009536743,-1.670699954032898,3.2672998905181885
1702298828426731800,51.04573168945313,2.100800037384033,-0.7471999526023865,-1.6725000143051147
1702298828486731800,51.10573168945312,2.835899829864502,-1.9701999425888062,-1.5982999801635742
1702298828546731800,51.165731689453125,2.6676998138427734,-0.07199999690055847,-1.268399953842163
1702298828606731800,51.22573168945313,2.938199996948242,0.9079999923706055,-0.8883999586105347
1702298828666731800,51.28573168945312,1.2587999105453491,-1.156599998474121,-1.1864999532699585
1702298828726731800,51.345731689453125,3.1712000370025635,-0.7245999574661255,-1.854699969291687
1702298828786731800,51.40573168945313,-1.517799973487854,3.3945999145507812,-1.6818000078201294
1702298828846731800,51.46573168945312,4.238699913024902,6.3078999519348145,2.3429999351501465
1702298828906731800,51.525731689453124,0.23669999837875366,-1.3980000019073486,2.1303999423980713
1702298828966731800,51.58573168945313,-0.6870999932289124,-2.1029999256134033,3.0869998931884766
1702298829026731800,51.64573168945312,-1.0339999198913574,-2.2019999027252197,2.8543999195098877
1702298829086731800,51.705731689453124,0.9423999786376953,-0.8732999563217163,4.387199878692627
1702298829146731800,51.765731689453126,6.399299621582031,3.670599937438965,-3.2973999977111816
1702298829206731800,51.82573168945312,4.654999732971191,-3.328399896621704,-0.9514999985694885
1702298829266731800,51.885731689453124,-0.3953999876976013,5.324399948120117,1.4541999101638794
1702298829326731800,51.945731689453126,-1.647499918937683,-0.20879998803138733,1.883099913597107
1702298829386731800,52.00573168945313,-1.4825999736785889,2.3411998748779297,0.9442999958992004
1702298829446731800,52.06573168945312,1.0698000192642212,0.0674000009894371,-0.2541999816894531
1702298829506731800,52.125731689453126,-0.01549999974668026,-2.0176000595092773,3.0934998989105225
1702298829566731800,52.18573168945313,0.3985999822616577,-0.009599999524652958,0.4357999861240387
1702298829626731800,52.24573168945312,4.322299957275391,-1.9643999338150024,-2.075500011444092
1702298829686731800,52.305731689453125,2.1231000423431396,-0.02929999865591526,-1.1074999570846558
1702298829746731800,52.36573168945313,2.0485999584198,0.8357999920845032,-0.8987999558448792
1702298829806731800,52.42573168945312,2.1559998989105225,0.1582999974489212,-2.1140999794006348
1702298829866731800,52.485731689453125,0.16169999539852142,-1.4460999965667725,-0.726099967956543
1702298829926731800,52.54573168945313,-0.4251999855041504,2.3903000354766846,-2.732499837875366
1702298829986731800,52.60573168945312,2.266700029373169,6.602499961853027,0.2110999971628189
1702298830046731800,52.665731689453125,1.8700999021530151,-0.4989999830722809,1.2566999197006226
1702298830106731800,52.72573168945313,-1.254599928855896,-1.9049999713897705,2.6669998168945312
1702298830166731800,52.78573168945312,-0.774399995803833,-1.8703999519348145,2.655099868774414
1702298830226731800,52.845731689453125,-0.5241999626159668,-1.4643999338150024,4.911600112915039
1702298830286731800,52.90573168945313,1.3429999351501465,3.550999879837036,2.6540000438690186
1702298830346731800,52.96573168945312,2.276900053024292,-4.124399662017822,-6.105199813842773
1702298830406731800,53.025731689453124,1.1891999244689941,4.785699844360352,0.45489999651908875
1702298830466731800,53.08573168945313,0.24719999730587006,-0.8680999875068665,1.1234999895095825
1702298830526731800,53.14573168945312,-5.464799880981445,1.2150999307632446,0.6438999772071838
1702298830586731800,53.205731689453124,0.5999000072479248,2.4173998832702637,0.3522999882698059
1702298830646731800,53.265731689453126,0.36910000443458557,-1.6556999683380127,1.3667999505996704
1702298830706731800,53.32573168945312,-0.7365999817848206,-1.1204999685287476,1.5841999053955078
1702298830766731800,53.385731689453124,1.860700011253357,-0.8709999918937683,-0.4675999879837036
1702298830826731800,53.445731689453126,3.7470998764038086,-1.924899935722351,-0.9711999893188477
1702298830886731800,53.50573168945313,0.10339999943971634,0.07459999620914459,-0.5030999779701233
1702298830946731800,53.56573168945312,2.3301000595092773,-0.08259999752044678,-1.4608999490737915
1702298831006731800,53.625731689453126,1.7728999853134155,0.6072999835014343,-2.027600049972534
1702298831066731800,53.68573168945313,1.605299949645996,-0.6212999820709229,-1.2055000066757202
1702298831126731800,53.74573168945312,-0.7853999733924866,3.499300003051758,-1.9153999090194702
1702298831186731800,53.805731689453125,5.285299777984619,5.907899856567383,2.3459999561309814
1702298831246731800,53.86573168945313,0.7416999936103821,-2.2065999507904053,1.2731000185012817
1702298831306731800,53.92573168945312,-1.0823999643325806,-3.0931999683380127,2.805799961090088
1702298831366731800,53.985731689453125,-0.9858999848365784,-2.4345998764038086,2.661099910736084
1702298831426731800,54.04573168945313,0.4382999837398529,-2.4433000087738037,5.139999866485596
1702298831486731800,54.10573168945312,3.232800006866455,4.419699668884277,0.05089999735355377
1702298831546731800,54.165731689453125,4.169300079345703,-0.5546999573707581,-8.536199569702148
1702298831606731800,54.22573168945313,-4.911099910736084,6.204599857330322,1.021299958229065
1702298831666731800,54.28573168945312,-3.0478999614715576,0.33709999918937683,4.0493998527526855
1702298831726731800,54.345731689453125,-2.3461999893188477,2.3461999893188477,0.43389999866485596
1702298831786731800,54.40573168945313,2.177799940109253,-0.41290000081062317,1.2226999998092651
1702298831846731800,54.46573168945312,2.1603000164031982,-2.7909998893737793,3.690699815750122
1702298831906731800,54.525731689453124,5.178599834442139,-1.187999963760376,-3.7518999576568604
1702298831966731800,54.58573168945313,2.5839998722076416,-3.040299892425537,-1.7654999494552612
1702298832026731800,54.64573168945312,-0.5054999589920044,0.31119999289512634,-1.5881999731063843
1702298832086731800,54.705731689453124,3.0042998790740967,0.4941999912261963,-1.4294999837875366
1702298832146731800,54.765731689453126,1.4286999702453613,-0.09459999948740005,-1.4709999561309814
1702298832206731800,54.82573168945312,2.679800033569336,0.9407999515533447,-2.0441999435424805
1702298832266731800,54.885731689453124,-1.4767999649047852,3.8055999279022217,-1.3672999143600464
1702298832326731800,54.945731689453126,4.537399768829346,2.750699996948242,0.5985999703407288
1702298832386731800,55.00573168945313,-0.1841999888420105,-2.8439998626708984,2.471099853515625
1702298832446731800,55.06573168945312,-1.0745999813079834,-1.8446999788284302,2.6305999755859375
1702298832506731800,55.125731689453126,-1.0677999258041382,-1.4751999378204346,3.599599838256836
1702298832566731800,55.18573168945313,0.726099967956543,-1.2795000076293945,4.223499774932861
1702298832626731800,55.24573168945312,9.640799522399902,3.8973000049591064,-2.836400032043457
1702298832686731800,55.305731689453125,4.586999893188477,-4.268099784851074,-2.9275999069213867
1702298832746731800,55.36573168945313,-1.6697999238967896,5.858699798583984,4.485499858856201
1702298832806731800,55.42573168945312,-4.920199871063232,2.1612000465393066,0.4668999910354614
1702298832866731800,55.485731689453125,-2.1993000507354736,0.9078999757766724,1.2573999166488647
1702298832926731800,55.54573168945313,0.8334999680519104,-0.28519999980926514,0.6596999764442444
1702298832986731800,55.60573168945312,-0.8962999582290649,-1.8716999292373657,3.749799966812134
1702298833046731800,55.665731689453125,0.511900007724762,-0.02630000002682209,-0.9819999933242798
1702298833106731800,55.72573168945313,2.6122000217437744,-1.7156999111175537,-2.4584999084472656
1702298833166731800,55.78573168945312,2.2649998664855957,-0.7240999937057495,-2.601799964904785
1702298833226731800,55.845731689453125,3.258999824523926,0.11819999665021896,-1.315999984741211
1702298833286731800,55.90573168945313,0.9563999772071838,-0.5730000138282776,-1.2563999891281128
1702298833346731800,55.96573168945312,2.523599863052368,0.946399986743927,-2.3538999557495117
1702298833406731800,56.025731689453124,-1.7640999555587769,3.8483998775482178,-2.1141998767852783
1702298833466731800,56.08573168945313,4.9593000411987305,4.019700050354004,1.7314999103546143
1702298833526731800,56.14573168945312,-0.243599995970726,-2.035399913787842,1.8777999877929688
1702298833586731800,56.205731689453124,-0.9696999788284302,-1.5583000183105469,2.5356998443603516
1702298833646731800,56.265731689453126,-1.434899926185608,-2.41159987449646,4.252099990844727
1702298833706731800,56.32573168945312,0.8849999904632568,-1.1305999755859375,4.661399841308594
1702298833766731800,56.385731689453124,9.13759994506836,3.8337998390197754,-3.480799913406372
1702298833826731800,56.445731689453126,2.745999813079834,-4.605799674987793,-3.7786998748779297
1702298833886731800,56.50573168945313,-3.308300018310547,8.798099517822266,0.22369998693466187
1702298833946731800,56.56573168945312,-3.2812998294830322,-0.9953999519348145,3.895399808883667
1702298834006731800,56.625731689453126,-3.2470998764038086,2.1902999877929688,1.8089998960494995
1702298834066731800,56.68573168945313,2.528599977493286,1.7875999212265015,0.2254999876022339
1702298834126731800,56.74573168945312,0.10199999809265137,-2.4273998737335205,2.487299919128418
1702298834186731800,56.805731689453125,-0.5162999629974365,-0.447299987077713,-0.06359999626874924
1702298834246731800,56.86573168945313,4.611199855804443,-2.292099952697754,-2.1405999660491943
1702298834306731800,56.92573168945312,1.2968000173568726,-0.9548999667167664,-0.5428000092506409
1702298834366731800,56.985731689453125,1.3695999383926392,0.4949999749660492,-0.6658999919891357
1702298834426731800,57.04573168945313,2.3762998580932617,0.0810999944806099,-0.6887999773025513
1702298834486731800,57.10573168945312,0.3903999924659729,-0.6079999804496765,-1.9246000051498413
1702298834546731800,57.165731689453125,-0.04919999837875366,2.242300033569336,-2.506500005722046
1702298834606731800,57.22573168945313,2.0550999641418457,7.75029993057251,0.8185999989509583
1702298834666731800,57.28573168945312,1.2967000007629395,-0.018299998715519905,1.4387999773025513
1702298834726731800,57.345731689453125,-0.8054999709129333,-1.872499942779541,3.546099901199341
1702298834786731800,57.40573168945313,-0.498199999332428,-1.7856999635696411,2.3736000061035156
1702298834846731800,57.46573168945312,0.6978999972343445,-1.8823999166488647,5.052099704742432
1702298834906731800,57.525731689453124,3.3864998817443848,4.192899703979492,0.9574999809265137
1702298834966731800,57.58573168945313,1.744499921798706,-5.506099700927734,-5.502899646759033
1702298835026731800,57.64573168945312,-1.4291999340057373,5.342299938201904,-0.14159999787807465
1702298835086731800,57.705731689453124,1.0530999898910522,0.3619000017642975,1.9574999809265137
1702298835146731800,57.765731689453126,-4.96619987487793,0.7250999808311462,1.7548999786376953
1702298835206731800,57.82573168945312,2.4795000553131104,3.275099992752075,0.314300000667572
1702298835266731800,57.885731689453124,0.4973999857902527,-2.320499897003174,1.3701999187469482
1702298835326731800,57.945731689453126,-0.7566999793052673,-0.20340000092983246,2.1979000568389893
1702298835386731800,58.00573168945313,2.520699977874756,-0.7116000056266785,-1.1475999355316162
1702298835446731800,58.06573168945312,4.320699691772461,-1.7486000061035156,-2.045599937438965
1702298835506731800,58.125731689453126,0.7408999800682068,-0.9435999989509583,-2.037600040435791
1702298835566731800,58.18573168945313,3.4814999103546143,0.05549999698996544,-1.1822999715805054
1702298835626731800,58.24573168945312,1.0568000078201294,0.3432999849319458,-0.7888000011444092
1702298835686731800,58.305731689453125,1.5450999736785889,1.7450000047683716,-2.501199960708618
1702298835746731800,58.36573168945313,-1.2429999113082886,3.533099889755249,-1.6029999256134033
1702298835806731800,58.42573168945312,3.4391000270843506,3.2802999019622803,1.9754999876022339
1702298835866731800,58.485731689453125,-0.39800000190734863,-2.33489990234375,3.39139986038208
1702298835926731800,58.54573168945313,-0.33219999074935913,-2.752699851989746,2.8376998901367188
1702298835986731800,58.60573168945312,-0.557200014591217,-2.219399929046631,3.3997998237609863
1702298836046731800,58.665731689453125,2.1731998920440674,1.0825999975204468,2.3992998600006104
1702298836106731800,58.72573168945313,2.4057998657226562,-2.0852999687194824,-5.569200038909912
1702298836166731800,58.78573168945312,0.5861999988555908,2.309999942779541,-2.253700017929077
1702298836226731800,58.845731689453125,0.9987999796867371,7.19189977645874,2.4171998500823975
1702298836286731800,58.90573168945313,-4.155999660491943,-1.2078999280929565,2.3980000019073486
1702298836346731800,58.96573168945312,1.6085000038146973,2.4707999229431152,0.566100001335144
1702298836406731800,59.025731689453124,-0.02449999935925007,-1.212399959564209,1.2390999794006348
1702298836466731800,59.08573168945313,-1.9570999145507812,-0.42319998145103455,3.1512999534606934
1702298836526731800,59.14573168945312,2.706899881362915,-0.5310999751091003,-0.9044999480247498
1702298836586731800,59.205731689453124,2.8650999069213867,-2.0802998542785645,-1.6024999618530273
1702298836646731800,59.265731689453126,2.0501999855041504,1.19569993019104,-1.02839994430542
1702298836706731800,59.32573168945312,4.215699672698975,-0.08339999616146088,-1.0619999170303345
1702298836766731800,59.385731689453124,-0.03720000013709068,-1.4215999841690063,-0.15869998931884766
1702298836826731800,59.445731689453126,2.1036999225616455,1.6069999933242798,-2.148099899291992
1702298836886731800,59.50573168945313,-2.049499988555908,6.047599792480469,-1.187600016593933
1702298836946731800,59.56573168945312,2.4323999881744385,1.9727998971939087,0.29989999532699585
1702298837006731800,59.625731689453126,-0.280599981546402,-0.9179999828338623,3.000200033187866
1702298837066731800,59.68573168945313,-1.1749999523162842,-1.8666999340057373,3.0513999462127686
1702298837126731800,59.74573168945312,-0.5803999900817871,-1.4036999940872192,4.474299907684326
1702298837186731800,59.805731689453125,1.1793999671936035,2.093899965286255,3.233599901199341
1702298837246731800,59.86573168945313,2.6092000007629395,-1.7209999561309814,-3.0641000270843506
1702298837306731800,59.92573168945312,2.846299886703491,1.5144000053405762,-2.620699882507324
1702298837366731800,59.985731689453125,3.37719988822937,5.829599857330322,-0.29989999532699585
1702298837426731800,60.04573168945313,-3.9477999210357666,-1.1382999420166016,2.431299924850464
1702298837486731800,60.10573168945312,-0.5791000127792358,1.9190999269485474,1.0733000040054321
1702298837546731800,60.165731689453125,1.0612000226974487,0.5306999683380127,0.8156999945640564
1702298837606731800,60.22573168945313,-0.8671999573707581,-1.4057999849319458,2.2388999462127686
1702298837666731800,60.28573168945312,0.3824999928474426,-0.4810999929904938,-0.29009997844696045
1702298837726731800,60.345731689453125,3.7667999267578125,-0.6448000073432922,-1.1036999225616455
1702298837786733300,60.4057333984375,2.3013999462127686,-1.7281999588012695,-0.7983999848365784
1702298837846731800,60.46573168945312,1.1717000007629395,1.829699993133545,-1.3734999895095825
1702298837906802000,60.525802001953124,1.0432000160217285,1.5794999599456787,-0.2742999792098999
1702298837966731800,60.58573168945313,2.4550998210906982,-1.3823999166488647,-1.0870000123977661
1702298838026731800,60.64573168945312,0.5230000019073486,0.7109000086784363,-0.08549999445676804
1702298838086731800,60.705731689453124,2.774199962615967,3.3104000091552734,-0.6261999607086182
1702298838146731800,60.765731689453126,1.264799952507019,-0.6420999765396118,0.5830000042915344
1702298838206731800,60.82573168945312,1.55239999294281,0.11809999495744705,1.5389000177383423
1702298838266731800,60.885731689453124,0.15199999511241913,-1.976599931716919,1.7131999731063843
1702298838326731800,60.945731689453126,1.2660999298095703,-3.0058999061584473,1.5468999147415161
1702298838386731800,61.00573168945313,2.111599922180176,-2.057999849319458,1.06659996509552
1702298838446731800,61.06573168945312,4.9899001121521,-0.23199999332427979,-3.516899824142456
1702298838506731800,61.125731689453126,1.5221999883651733,-1.3148000240325928,-1.167199969291687
1702298838566731800,61.18573168945313,-1.734299898147583,6.55709981918335,-0.148499995470047
1702298838626731800,61.24573168945312,3.9196999073028564,1.824299931526184,2.0053999423980713
1702298838686731800,61.305731689453125,-3.665799856185913,0.5074999928474426,3.373199939727783
1702298838746731800,61.36573168945313,3.671599864959717,0.5315999984741211,-1.0679999589920044
1702298838806731800,61.42573168945312,-4.068399906158447,-1.8887999057769775,1.2812999486923218
1702298838866731800,61.485731689453125,2.826200008392334,-0.49729999899864197,-0.8295999765396118
1702298838926731800,61.54573168945313,0.02850000001490116,-0.5544999837875366,1.8078999519348145
1702298838986731800,61.60573168945312,3.1980998516082764,-0.885699987411499,-0.01850000023841858
1702298839046731800,61.665731689453125,3.319199800491333,-1.1405999660491943,-3.0859999656677246
1702298839106731800,61.72573168945313,2.822999954223633,-0.14239999651908875,-1.7537999153137207
1702298839166731800,61.78573168945312,0.48079997301101685,0.07180000096559525,-0.5005999803543091
1702298839226731800,61.845731689453125,0.33390000462532043,1.8010998964309692,-1.1952999830245972
1702298839286731800,61.90573168945313,0.8267999887466431,7.5630998611450195,-0.7026000022888184
1702298839346731800,61.96573168945312,2.184299945831299,1.1304999589920044,2.532899856567383
1702298839406731800,62.025731689453124,0.018400000408291817,-3.1633999347686768,2.7356998920440674
1702298839466731800,62.08573168945313,0.10599999874830246,-2.4835000038146973,1.2404999732971191
1702298839526731800,62.14573168945312,1.0579999685287476,-2.1819000244140625,3.3155999183654785
1702298839586731800,62.205731689453124,1.3823999166488647,0.8840999603271484,2.631199836730957
1702298839646731800,62.265731689453126,4.746399879455566,-3.1887998580932617,-5.5441999435424805
1702298839706731800,62.32573168945312,0.5827000141143799,2.3461999893188477,-0.8014000058174133
1702298839766731800,62.385731689453124,1.6952999830245972,5.093299865722656,1.3392999172210693
1702298839826731800,62.445731689453126,-4.402899742126465,0.26909998059272766,1.4038000106811523
1702298839886731800,62.50573168945313,-0.16539999842643738,1.6603000164031982,1.6143999099731445
1702298839946731800,62.56573168945312,0.7354999780654907,-0.5593999624252319,0.8461999893188477
1702298840006731800,62.625731689453126,0.613099992275238,-1.1478999853134155,2.6041998863220215
1702298840066731800,62.68573168945313,0.1160999983549118,-0.7829999923706055,-1.7436999082565308
1702298840126731800,62.74573168945312,4.122799873352051,-2.2353999614715576,-1.8210999965667725
1702298840186731800,62.805731689453125,1.9280999898910522,-1.5496999025344849,-0.8502999544143677
1702298840246731800,62.86573168945313,2.688199996948242,1.2351999282836914,-1.69760000705719
1702298840306731800,62.92573168945312,1.7531999349594116,-0.03240000084042549,-0.8671000003814697
1702298840366731800,62.985731689453125,3.2268998622894287,-2.4974000453948975,-2.166100025177002
1702298840426731800,63.04573168945313,-1.1762999296188354,4.689599990844727,-2.1285998821258545
1702298840486731800,63.10573168945312,3.2263998985290527,3.953199863433838,2.649600028991699
1702298840546731800,63.165731689453125,0.910099983215332,-1.5058000087738037,1.289699912071228
1702298840606731800,63.22573168945313,-0.6664999723434448,-1.8476999998092651,3.0447998046875
1702298840666731800,63.28573168945312,-1.6858999729156494,-2.334699869155884,3.7928998470306396
1702298840726731800,63.345731689453125,0.435699999332428,-1.0910999774932861,3.639899969100952
1702298840786731800,63.40573168945313,8.653200149536133,1.4085999727249146,-4.282599925994873
1702298840846731800,63.46573168945312,2.822000026702881,-0.9979999661445618,-0.5562999844551086
1702298840906731800,63.525731689453124,2.4951000213623047,-1.532099962234497,1.1934999227523804
1702298840966731800,63.58573168945313,-3.963899850845337,6.405999660491943,-1.909999966621399
1702298841026731800,63.64573168945312,-1.1881999969482422,0.1873999983072281,2.4042999744415283
1702298841086731800,63.705731689453124,-1.7461999654769897,-2.4161999225616455,1.6749999523162842
1702298841146731800,63.765731689453126,0.5848999619483948,1.5784999132156372,0.2231999933719635
1702298841206731800,63.82573168945312,0.335099995136261,-0.35349997878074646,3.1013998985290527
1702298841266731800,63.885731689453124,2.5214998722076416,-1.125599980354309,-2.0070998668670654
1702298841326731800,63.945731689453126,2.4378998279571533,-1.3658000230789185,-1.6137999296188354
1702298841386731800,64.00573168945313,5.209699630737305,0.03229999914765358,-0.9496999979019165
1702298841446731800,64.06573168945313,1.9783999919891357,-0.8849999904632568,-1.5073999166488647
1702298841506759700,64.125759765625,1.6022999286651611,-2.419600009918213,-1.5845999717712402
1702298841566731800,64.18573168945312,0.49949997663497925,-0.0778999999165535,-2.949699878692627
1702298841626731800,64.24573168945312,-3.0615999698638916,0.9993999600410461,-0.9296999573707581
1702298841686731800,64.30573168945313,1.5577999353408813,2.6998000144958496,0.7124999761581421
1702298841746731800,64.36573168945313,1.4257999658584595,2.684499979019165,-0.5547999739646912
1702298841806731800,64.42573168945313,0.9377999901771545,-0.6584999561309814,1.3461999893188477
1702298841866731800,64.48573168945312,0.4000999927520752,-1.6268999576568604,1.1424999237060547
1702298841926731800,64.54573168945312,-0.9812999963760376,-1.1689000129699707,3.282399892807007
1702298841986731800,64.60573168945312,-1.1073999404907227,-2.462599992752075,4.986799716949463
1702298842046731800,64.66573168945312,3.9019999504089355,1.499400019645691,1.5446999073028564
1702298842106731800,64.72573168945313,-0.6304999589920044,-1.1129999160766602,-10.370699882507324
1702298842166731800,64.78573168945313,-2.421099901199341,4.705899715423584,1.3492999076843262
1702298842226731800,64.84573168945313,1.8229999542236328,-4.516299724578857,5.025000095367432
1702298842286731800,64.90573168945312,-4.65339994430542,4.116199970245361,1.3644999265670776
1702298842346731800,64.96573168945312,-2.389699935913086,-0.13040000200271606,1.5281000137329102
1702298842406731800,65.02573168945312,4.415299892425537,0.20729999244213104,-0.7874000072479248
1702298842466731800,65.08573168945313,-0.16569998860359192,-1.9747999906539917,0.679099977016449
1702298842526731800,65.14573168945313,2.0399999618530273,-0.8122999668121338,0.17949999868869781
1702298842586731800,65.20573168945313,1.9383999109268188,-0.32839998602867126,0.08579999953508377
1702298842646731800,65.26573168945312,2.8559999465942383,-2.063499927520752,-1.531599998474121
1702298842706731800,65.32573168945312,2.3996999263763428,-1.3270000219345093,-1.3467999696731567
1702298842766731800,65.38573168945312,0.5561999678611755,0.4453999996185303,-0.7048999667167664
1702298842826731800,65.44573168945313,1.8015999794006348,2.1080000400543213,-3.4057998657226562
1702298842886731800,65.50573168945313,-2.4902000427246094,-0.8452000021934509,0.46480000019073486
1702298842946731800,65.56573168945313,3.2983999252319336,4.284899711608887,-0.7803999781608582
1702298843006731800,65.62573168945312,0.0038999998942017555,2.620499849319458,2.1731998920440674
1702298843066731800,65.68573168945312,1.583299994468689,-1.1941999197006226,1.4198999404907227
1702298843126731800,65.74573168945312,0.7809999585151672,-2.450199842453003,0.1087999939918518
1702298843186731800,65.80573168945313,-0.48589998483657837,-2.6360998153686523,4.33929967880249
1702298843246731800,65.86573168945313,0.9542999863624573,-1.880199909210205,3.7231998443603516
1702298843306731800,65.92573168945313,1.7826999425888062,-0.9529999494552612,-7.447099685668945
1702298843366731800,65.98573168945312,0.9781999588012695,-0.12529999017715454,0.3504999876022339
1702298843426731800,66.04573168945312,1.3693000078201294,8.385299682617188,1.9503999948501587
1702298843486731800,66.10573168945312,-2.9961998462677,-0.585599958896637,2.6601998805999756
1702298843546731800,66.16573168945312,-3.212899923324585,0.5634999871253967,0.7960999608039856
1702298843606731800,66.22573168945313,2.0000998973846436,1.4779999256134033,1.291100025177002
1702298843666731800,66.28573168945313,-2.922999858856201,1.6872999668121338,2.998499870300293
1702298843726731800,66.34573168945313,1.1717000007629395,-0.7026999592781067,-2.286900043487549
1702298843786731800,66.40573168945312,-0.9057999849319458,-1.972000002861023,0.23499999940395355
1702298843846731800,66.46573168945312,2.7221999168395996,0.9860000014305115,-0.059699997305870056
1702298843906731800,66.52573168945312,0.4179999828338623,-0.24959999322891235,1.2247999906539917
1702298843966731800,66.58573168945313,1.8770999908447266,-0.652999997138977,0.9548999667167664
1702298844026731800,66.64573168945313,0.9414999485015869,-0.8201999664306641,0.4829999804496765
1702298844086731800,66.70573168945313,1.5128999948501587,1.872999906539917,1.9098999500274658
1702298844146731800,66.76573168945312,-0.5892999768257141,0.48019999265670776,-0.6180999875068665
1702298844206731800,66.82573168945312,1.625100016593933,-1.01419997215271,-1.6821999549865723
1702298844266731800,66.88573168945312,0.7159000039100647,-1.0463999509811401,-0.4099999964237213
1702298844326731800,66.94573168945313,0.6467999815940857,0.8995999693870544,-2.270699977874756
1702298844386731800,67.00573168945313,3.6900999546051025,2.984299898147583,-4.720999717712402
1702298844446731800,67.06573168945313,3.881699800491333,-0.4976999759674072,1.990899920463562
1702298844506731800,67.12573168945312,1.8924999237060547,-0.21969999372959137,2.0825998783111572
1702298844566731800,67.18573168945312,0.8676999807357788,0.9208999872207642,-0.9623000025749207
1702298844626731800,67.24573168945312,2.2193000316619873,0.9635999798774719,-1.5793999433517456
1702298844686731800,67.30573168945313,1.0888999700546265,-0.9121999740600586,-1.167699933052063
1702298844746731800,67.36573168945313,-0.09809999912977219,0.6565999984741211,0.38659998774528503
1702298844806731800,67.42573168945313,-3.3422999382019043,-2.3859000205993652,6.940000057220459
1702298844866731800,67.48573168945312,-2.4196999073028564,-3.4395999908447266,5.275399684906006
1702298844926731800,67.54573168945312,-0.7310999631881714,-1.0898000001907349,4.3059000968933105
1702298844986731800,67.60573168945312,3.662299871444702,1.8227999210357666,-11.249499320983887
1702298845046731800,67.66573168945312,-5.705399990081787,11.64699935913086,-2.207900047302246
1702298845106731800,67.72573168945313,2.0573999881744385,-2.2958998680114746,2.6011998653411865
1702298845166731800,67.78573168945313,-5.634900093078613,-0.8603000044822693,1.9208999872207642
1702298845226731800,67.84573168945313,4.492000102996826,2.6232998371124268,-0.609499990940094
1702298845286731800,67.90573168945312,-1.1130999326705933,2.040099859237671,4.170199871063232
1702298845346731800,67.96573168945312,-0.7940999865531921,0.40049999952316284,0.4391999840736389
1702298845406731800,68.02573168945312,0.10459999740123749,-0.18529999256134033,0.9950999617576599
1702298845466731800,68.08573168945313,0.4185999929904938,0.42729997634887695,0.10769999772310257
1702298845526731800,68.14573168945313,1.0568000078201294,-0.3303000032901764,-0.6313999891281128
1702298845586731800,68.20573168945313,1.3080999851226807,-0.9976999759674072,-1.9066998958587646
1702298845646731800,68.26573168945312,0.42260000109672546,-2.9499998092651367,-0.5159000158309937
1702298845706731800,68.32573168945312,1.9293999671936035,1.1316999197006226,-1.9304999113082886
1702298845766731800,68.38573168945312,-1.3009999990463257,0.8572999835014343,1.6596999168395996
1702298845826731800,68.44573168945313,2.258699893951416,2.734099864959717,0.4156000018119812
1702298845886731800,68.50573168945313,0.21400000154972076,1.3686000108718872,0.5900999903678894
1702298845946731800,68.56573168945313,2.023399829864502,0.5073999762535095,1.077299952507019
1702298846006731800,68.62573168945312,-0.9839999675750732,-0.6466999650001526,2.765699863433838
1702298846066731800,68.68573168945312,0.32170000672340393,-0.2540999948978424,0.9352999925613403
1702298846126731800,68.74573168945312,0.44259998202323914,0.3578999936580658,3.0202999114990234
1702298846186731800,68.80573168945313,0.5015999674797058,-1.3212999105453491,3.5936999320983887
1702298846246731800,68.86573168945313,1.735700011253357,-0.5001000165939331,-3.4833998680114746
1702298846306731800,68.92573168945313,2.99429988861084,0.8064999580383301,-1.2496999502182007
1702298846366731800,68.98573168945312,-0.21570000052452087,5.555099964141846,-0.5194999575614929
1702298846426731800,69.04573168945312,0.25540000200271606,-3.1791999340057373,2.337899923324585
1702298846486731800,69.10573168945312,-1.212899923324585,4.343599796295166,1.819599986076355
1702298846546731800,69.16573168945312,0.5837999582290649,-1.007099986076355,0.5812999606132507
1702298846606731800,69.22573168945313,-0.22209998965263367,0.031099999323487282,0.7423999905586243
1702298846666731800,69.28573168945313,-0.5325999855995178,0.10759999603033066,1.1886999607086182
1702298846726731800,69.34573168945313,0.4712999761104584,0.20479999482631683,1.3817999362945557
1702298846786731800,69.40573168945312,1.1456999778747559,-0.8570999503135681,-0.5006999969482422
1702298846846731800,69.46573168945312,1.1691999435424805,-1.2072999477386475,-0.7430999875068665
1702298846906731800,69.52573168945312,0.23079998791217804,0.6663999557495117,0.7339999675750732
1702298846966731800,69.58573168945313,-0.05040000006556511,3.7767999172210693,-0.4333999752998352
1702298847026731800,69.64573168945313,-1.1057000160217285,-1.2529000043869019,0.7270999550819397
1702298847086731800,69.70573168945313,1.2720999717712402,2.439199924468994,-0.4818999767303467
1702298847146731800,69.76573168945312,0.8561999797821045,1.4397999048233032,2.2565999031066895
1702298847206731800,69.82573168945312,1.0109999179840088,0.3263999819755554,3.3359999656677246
1702298847266731800,69.88573168945312,0.7164999842643738,-1.535099983215332,1.341599941253662
1702298847326731800,69.94573168945313,0.8399999737739563,-1.6315999031066895,1.2365999221801758
1702298847386731800,70.00573168945313,0.8374999761581421,-1.337499976158142,2.339900016784668
1702298847446731800,70.06573168945313,2.7017998695373535,-0.7184999585151672,-3.5256998538970947
1702298847506731800,70.12573168945312,1.1460000276565552,0.05639999732375145,1.7013999223709106
1702298847566731800,70.18573168945312,3.3120999336242676,7.30079984664917,0.7446999549865723
1702298847626731800,70.24573168945312,0.7206999659538269,-1.1456999778747559,0.5425999760627747
1702298847686731800,70.30573168945313,-2.7860000133514404,3.3069000244140625,2.909799814224243
1702298847746731800,70.36573168945313,0.9724999666213989,1.5123000144958496,0.3716000020503998
1702298847806731800,70.42573168945313,-2.345599889755249,-0.9316999912261963,2.310699939727783
1702298847866731800,70.48573168945312,1.1486999988555908,-0.06579999625682831,0.37709999084472656
1702298847926731800,70.54573168945312,-0.36329999566078186,-0.4763999879360199,0.8626999855041504
1702298847986731800,70.60573168945312,1.6999999284744263,-2.5394999980926514,0.7139999866485596
1702298848046731800,70.66573168945312,2.2964999675750732,2.480599880218506,-4.130199909210205
1702298848106731800,70.72573168945313,0.24709999561309814,-3.1970999240875244,-1.5286999940872192
1702298848166731800,70.78573168945313,-0.9752999544143677,3.231599807739258,1.2864999771118164
1702298848226731800,70.84573168945313,0.8043999671936035,0.7834999561309814,1.791700005531311
1702298848286731800,70.90573168945312,4.621500015258789,1.5053999423980713,-3.6125998497009277
1702298848346731800,70.96573168945312,2.438199996948242,-0.3303000032901764,-0.5999000072479248
1702298848406731800,71.02573168945312,3.210700035095215,-1.6008999347686768,1.1704999208450317
1702298848466731800,71.08573168945313,2.843400001525879,-1.5442999601364136,2.384699821472168
1702298848526731800,71.14573168945313,2.313699960708618,-1.7933999300003052,1.0628999471664429
1702298848586731800,71.20573168945313,3.505999803543091,-1.5782999992370605,-0.6399999856948853
1702298848646731800,71.26573168945312,3.046099901199341,-2.0195000171661377,-1.4493999481201172
1702298848706731800,71.32573168945312,4.078199863433838,0.35679998993873596,-4.587899684906006
1702298848766731800,71.38573168945312,-0.3123999834060669,1.817099928855896,-2.1835999488830566
1702298848826731800,71.44573168945313,0.8925999999046326,4.142199993133545,6.667599678039551
1702298848886731800,71.50573168945313,-1.3791999816894531,1.494399905204773,0.25220000743865967
1702298848946731800,71.56573168945313,0.7375999689102173,2.810299873352051,0.026999998837709427
1702298849006731800,71.62573168945312,-2.441999912261963,-1.5,-0.14010000228881836
1702298849066731800,71.68573168945312,3.0282998085021973,-1.4687999486923218,-0.7355999946594238
1702298849126731800,71.74573168945312,2.0601999759674072,-2.003200054168701,0.5246999859809875
1702298849186731800,71.80573168945313,3.184999942779541,-0.7601000070571899,-0.9528999924659729
1702298849246731800,71.86573168945313,3.894399881362915,-2.413300037384033,-3.8130998611450195
1702298849306731800,71.92573168945313,0.6854999661445618,1.3142999410629272,-0.7285999655723572
1702298849366731800,71.98573168945312,-0.4350000023841858,1.4660999774932861,-1.6613999605178833
1702298849426731800,72.04573168945312,0.3034999966621399,1.4010000228881836,-2.60509991645813
1702298849486731800,72.10573168945312,0.5691999793052673,5.261699676513672,-0.9495999813079834
1702298849546731800,72.16573168945312,1.7613999843597412,0.34769999980926514,2.2483999729156494
1702298849606731800,72.22573168945313,-0.7681999802589417,-2.019399881362915,4.065700054168701
1702298849666731800,72.28573168945313,-1.4541000127792358,-1.4723999500274658,2.6870999336242676
1702298849726731800,72.34573168945313,-0.8774999976158142,-1.2106000185012817,4.591000080108643
1702298849786731800,72.40573168945312,4.4868998527526855,4.4878997802734375,0.11800000071525574
1702298849846731800,72.46573168945312,1.0460000038146973,-5.168399810791016,-5.001699924468994
1702298849906731800,72.52573168945312,1.0299999713897705,-1.2440999746322632,1.3436999320983887
1702298849966731800,72.58573168945313,0.23169998824596405,6.655699729919434,-0.4632999897003174
1702298850026731800,72.64573168945313,0.038599997758865356,-0.17579999566078186,2.3770999908447266
1702298850086731800,72.70573168945313,-2.941999912261963,0.05089999735355377,0.4397999942302704
1702298850146731800,72.76573168945312,0.7392999529838562,-0.05549999698996544,-0.7476999759674072
1702298850206731800,72.82573168945312,-0.4169999957084656,-1.2541999816894531,4.219299793243408
1702298850266731800,72.88573168945312,1.3817999362945557,0.32269999384880066,-0.21799999475479126
1702298850326731800,72.94573168945313,2.774899959564209,-1.8216999769210815,-1.1615999937057495
1702298850386731800,73.00573168945313,3.5560998916625977,-0.9521999955177307,-0.46449998021125793
1702298850446731800,73.06573168945313,-0.15189999341964722,1.361799955368042,-1.3013999462127686
1702298850506731800,73.12573168945312,2.80049991607666,0.7128999829292297,-1.1506999731063843
1702298850566731800,73.18573168945312,-0.5572999715805054,-0.2717999815940857,-2.588599920272827
1702298850626731800,73.24573168945312,0.054499998688697815,0.6482999920845032,-2.824899911880493
1702298850686731800,73.30573168945313,1.5992999076843262,7.070099830627441,1.6096999645233154
1702298850746731800,73.36573168945313,1.2960000038146973,-2.182800054550171,1.2767999172210693
1702298850806731800,73.42573168945313,-0.8503999710083008,-3.526099920272827,2.5123000144958496
1702298850866731800,73.48573168945312,-0.8188999891281128,-2.7331998348236084,1.7870999574661255
1702298850926731800,73.54573168945312,-0.1598999947309494,-1.1234999895095825,4.354000091552734
1702298850986731800,73.60573168945312,8.23009967803955,6.594099998474121,-0.3489999771118164
1702298851046731800,73.66573168945312,4.181600093841553,-7.7505998611450195,-5.138499736785889
1702298851106731800,73.72573168945313,-2.471299886703491,9.907099723815918,0.9757999777793884
1702298851166731800,73.78573168945313,-3.219399929046631,-1.097499966621399,2.7998998165130615
1702298851226731800,73.84573168945313,-2.113600015640259,3.614799976348877,0.7694999575614929
1702298851286731800,73.90573168945312,1.3765000104904175,-0.8197999596595764,0.7759999632835388
1702298851346731800,73.96573168945312,-0.6050999760627747,-1.6916999816894531,4.440199851989746
1702298851406731800,74.02573168945312,1.423799991607666,-0.9411999583244324,-1.5405999422073364
1702298851466731800,74.08573168945313,2.847399950027466,-2.3413000106811523,-1.1210999488830566
1702298851526731800,74.14573168945313,1.8190999031066895,-0.9828999638557434,0.13429999351501465
1702298851586731800,74.20573168945313,1.2032999992370605,1.0937999486923218,-0.4147999882698059
1702298851646731800,74.26573168945312,2.927299976348877,-0.20319999754428864,-2.656599998474121
1702298851706731800,74.32573168945312,0.9496999979019165,1.6014999151229858,-2.9879000186920166
1702298851766731800,74.38573168945312,-0.01850000023841858,1.1669999361038208,-1.2487999200820923
1702298851826731800,74.44573168945313,-1.2690999507904053,5.927199840545654,-0.43320000171661377
1702298851886731800,74.50573168945313,2.998800039291382,2.387199878692627,1.5305999517440796
1702298851946731800,74.56573168945313,-0.9417999982833862,-1.8990999460220337,3.4378998279571533
1702298852006731800,74.62573168945312,-0.6908999681472778,-2.0025999546051025,2.7403998374938965
1702298852066731800,74.68573168945312,-1.2315999269485474,-0.43939998745918274,4.344699859619141
1702298852126731800,74.74573168945312,-1.367799997329712,-1.7346999645233154,4.062699794769287
1702298852186731800,74.80573168945313,8.882399559020996,5.68149995803833,0.1687999963760376
1702298852246731800,74.86573168945313,5.324199676513672,-7.046499729156494,-8.594200134277344
