time,seconds_elapsed,z,y,x
1702216832905682700,0.0506826171875,-0.14839999377727509,-0.35429999232292175,-0.2590000033378601
1702216832965682700,0.1106826171875,-0.0023999998811632395,0.08949999511241913,-2.567699909210205
1702216833025682700,0.1706826171875,-3.5657999515533447,2.189199924468994,-2.865999937057495
1702216833085682700,0.2306826171875,-2.611599922180176,-0.1394999921321869,-5.029799938201904
1702216833145682700,0.2906826171875,0.23409999907016754,-0.6416999697685242,-3.3660998344421387
1702216833205682700,0.3506826171875,2.7597999572753906,0.6665999889373779,0.142099991440773
1702216833265682700,0.4106826171875,-3.568199872970581,0.49480000138282776,-0.8299999833106995
1702216833325682700,0.4706826171875,-1.569599986076355,-0.9343000054359436,-3.5595998764038086
1702216833385682700,0.5306826171875,0.6069999933242798,-1.3777999877929688,-4.915899753570557
1702216833445682700,0.5906826171875,1.2307000160217285,-2.349799871444702,-3.264699935913086
1702216833505682700,0.6506826171875,-1.059399962425232,4.541899681091309,8.44059944152832
1702216833565682700,0.7106826171875,33.87089920043945,1.862399935722351,8.148200035095215
1702216833625682700,0.7706826171875,1.4239999055862427,-0.2134999930858612,0.1931999921798706
1702216833685682700,0.8306826171875,-7.077399730682373,-2.4635000228881836,-0.6190999746322632
1702216833745682700,0.8906826171875,2.494799852371216,1.249899983406067,0.005399999674409628
1702216833805682700,0.9506826171875,-1.2703999280929565,-0.3856000006198883,1.0063999891281128
1702216833865682700,1.0106826171875,-3.338099956512451,-0.5444999933242798,-1.4081999063491821
1702216833925682700,1.0706826171875,-0.6074000000953674,0.616599977016449,0.2802000045776367
1702216833985682700,1.1306826171875,-0.06629999727010727,0.9927999973297119,1.0447999238967896
1702216834045682700,1.1906826171875,0.26420000195503235,0.5751000046730042,-1.2568999528884888
1702216834105681200,1.25068115234375,0.5080999732017517,0.5055999755859375,-0.23109999299049377
1702216834165681200,1.31068115234375,0.5450999736785889,2.773399829864502,1.0333999395370483
1702216834225681200,1.37068115234375,-4.924699783325195,-2.755199909210205,-0.29109999537467957
1702216834285681200,1.43068115234375,-0.9843999743461609,0.31129997968673706,2.9047999382019043
1702216834345682700,1.4906826171875,-1.2652000188827515,1.9534999132156372,3.7032999992370605
1702216834405709300,1.550709228515625,0.8387999534606934,-2.099400043487549,-1.329800009727478
1702216834465682700,1.6106826171875,-0.26919999718666077,-1.0712000131607056,-0.41419997811317444
1702216834525682700,1.6706826171875,-1.0877000093460083,-1.129599928855896,1.9781999588012695
1702216834585682700,1.7306826171875,1.1957999467849731,-1.8388999700546265,1.198699951171875
1702216834645682700,1.7906826171875,-1.534600019454956,-0.13490000367164612,1.3590999841690063
1702216834705682700,1.8506826171875,-1.7493000030517578,0.6819999814033508,1.2979999780654907
1702216834765682700,1.9106826171875,-1.0266000032424927,-0.6570999622344971,-2.7446999549865723
1702216834825682700,1.9706826171875,-1.3560999631881714,-1.805899977684021,-3.7050998210906982
1702216834885682700,2.0306826171875,0.7465999722480774,0.8905999660491943,-2.3454999923706055
1702216834945682700,2.0906826171875,0.31839999556541443,0.5580999851226807,-2.9742000102996826
1702216835005682700,2.1506826171875,0.11169999837875366,-0.21869999170303345,-1.4228999614715576
1702216835065682700,2.2106826171875,-0.6773999929428101,0.7247999906539917,-3.5993998050689697
1702216835125682700,2.2706826171875,1.4545999765396118,-0.633899986743927,-2.902099847793579
1702216835185682700,2.3306826171875,0.3431999981403351,1.4223999977111816,0.030899999663233757
1702216835245682700,2.3906826171875,-0.858199954032898,2.246799945831299,-1.1471999883651733
1702216835305682700,2.4506826171875,-0.644599974155426,2.4001998901367188,-0.30799999833106995
1702216835365682700,2.5106826171875,2.499199867248535,0.44099998474121094,-1.1416000127792358
1702216835425682700,2.5706826171875,2.461699962615967,-1.2688000202178955,-1.5157999992370605
1702216835485682700,2.6306826171875,-3.4472999572753906,-1.4783999919891357,-0.295199990272522
1702216835545682700,2.6906826171875,0.19129998981952667,-0.14890000224113464,0.36550000309944153
1702216835605682700,2.7506826171875,-1.897499918937683,1.0333999395370483,-0.9361000061035156
1702216835665682700,2.8106826171875,3.0246999263763428,-3.8329999446868896,-1.4161999225616455
1702216835725682700,2.8706826171875,-2.412099838256836,-0.020800000056624413,-0.47519999742507935
1702216835785682700,2.9306826171875,-0.6055999994277954,-0.23119999468326569,-2.908799886703491
1702216835845682700,2.9906826171875,1.2035999298095703,-1.4038000106811523,-6.565299987792969
1702216835905682700,3.0506826171875,3.3341000080108643,-1.89329993724823,-4.838399887084961
1702216835965682700,3.1106826171875,2.206199884414673,-1.6998000144958496,-2.479300022125244
1702216836025682700,3.1706826171875,0.7671999931335449,-1.980299949645996,0.3173999786376953
1702216836085682700,3.2306826171875,-0.8818999528884888,-2.7063000202178955,1.8733999729156494
1702216836145682700,3.2906826171875,-2.7479000091552734,-2.5388998985290527,3.5660998821258545
1702216836205682700,3.3506826171875,-4.8780999183654785,-1.5058999061584473,3.7228000164031982
1702216836265682700,3.4106826171875,-4.285900115966797,-2.2625999450683594,-0.582099974155426
1702216836325682700,3.4706826171875,-3.056299924850464,-1.9287999868392944,-4.047599792480469
1702216836385682700,3.5306826171875,-2.3344998359680176,-0.24969999492168427,-2.6009998321533203
1702216836445682700,3.5906826171875,-1.799799919128418,0.1388999968767166,1.358699917793274
1702216836505710800,3.6507109375,1.473599910736084,-0.1348000019788742,-1.4226999282836914
1702216836565682700,3.7106826171875,-1.9399999380111694,-0.010900000110268593,1.7812999486923218
1702216836625682700,3.7706826171875,-0.7471999526023865,-0.012799999676644802,0.14409999549388885
1702216836685682700,3.8306826171875,-0.5841999650001526,1.320599913597107,-1.1065999269485474
1702216836745682700,3.8906826171875,-1.7391999959945679,1.7315999269485474,-3.0044000148773193
1702216836805682700,3.9506826171875,-0.7656999826431274,0.33249998092651367,-0.11140000075101852
1702216836865682700,4.0106826171875,-0.4472000002861023,1.1621999740600586,1.2821999788284302
1702216836925682700,4.0706826171875,-2.3376998901367188,2.3073999881744385,2.6201999187469482
1702216836985682700,4.1306826171875,-3.946499824523926,0.15689998865127563,5.786599636077881
1702216837045682700,4.1906826171875,-2.577699899673462,-9.31719970703125,-0.5683000087738037
1702216837105682700,4.2506826171875,-1.5436999797821045,-3.5209999084472656,4.234299659729004
1702216837165682700,4.3106826171875,-6.799599647521973,-5.254499912261963,3.026700019836426
1702216837225682700,4.3706826171875,-2.7769999504089355,-7.5737996101379395,1.882699966430664
1702216837285682700,4.4306826171875,-0.16429999470710754,-7.149600028991699,-5.356499671936035
1702216837345682700,4.4906826171875,-1.8371999263763428,-4.625899791717529,-7.759099960327148
1702216837405682700,4.5506826171875,0.625499963760376,-5.3190999031066895,-10.92199993133545
1702216837465682700,4.6106826171875,-1.9749999046325684,-5.023200035095215,-8.260499954223633
1702216837525682700,4.6706826171875,-0.48259997367858887,-2.799299955368042,-2.4719998836517334
1702216837585682700,4.7306826171875,0.5612999796867371,-1.45169997215271,-0.5674999952316284
1702216837645682700,4.7906826171875,-0.040300000458955765,-0.97489994764328,2.3885998725891113
1702216837705682700,4.8506826171875,1.4542999267578125,0.4803999960422516,0.5636999607086182
1702216837765682700,4.9106826171875,0.15569999814033508,-0.26749998331069946,-3.652599811553955
1702216837825682700,4.9706826171875,0.15760000050067902,0.21699999272823334,-3.137699842453003
1702216837885682700,5.0306826171875,1.43559992313385,0.9512999653816223,0.027400000020861626
1702216837945682700,5.0906826171875,1.2602999210357666,0.8989999890327454,-0.08590000122785568
1702216838005682700,5.1506826171875,-0.5004000067710876,0.1087999939918518,-0.14149999618530273
1702216838065682700,5.2106826171875,0.09019999951124191,0.2687999904155731,2.672499895095825
1702216838125682700,5.2706826171875,1.619499921798706,1.1816999912261963,2.4203999042510986
1702216838185682700,5.3306826171875,1.893899917602539,-1.7316999435424805,2.679299831390381
1702216838245682700,5.3906826171875,1.6434999704360962,-5.184700012207031,1.2222999334335327
1702216838305682700,5.4506826171875,-3.942999839782715,-3.101599931716919,2.6531999111175537
1702216838365682700,5.5106826171875,-2.113600015640259,0.2538999915122986,3.015899896621704
1702216838425682700,5.5706826171875,-1.14329993724823,1.0149999856948853,2.007499933242798
1702216838485682700,5.6306826171875,-0.08899999409914017,1.1782000064849854,0.9856999516487122
1702216838545682700,5.6906826171875,0.2612999975681305,0.6448000073432922,-1.589900016784668
1702216838605709300,5.750709228515625,1.7798999547958374,-3.9647998809814453,-4.789899826049805
1702216838665682700,5.8106826171875,-3.3165998458862305,0.14999999105930328,-0.9601999521255493
1702216838725682700,5.8706826171875,-4.432199954986572,-1.3550000190734863,-3.093400001525879
1702216838785682700,5.9306826171875,-1.2840999364852905,-2.4631998538970947,-3.148599863052368
1702216838845682700,5.9906826171875,-4.57319974899292,0.2687000036239624,2.459699869155884
1702216838905682700,6.0506826171875,-0.45819997787475586,-2.8884999752044678,3.7411999702453613
1702216838965682700,6.1106826171875,2.488600015640259,0.1184999942779541,4.526199817657471
1702216839025682700,6.1706826171875,1.8339999914169312,0.8923999667167664,2.3429999351501465
1702216839085682700,6.2306826171875,1.2726999521255493,1.0816999673843384,-0.4664999842643738
1702216839145682700,6.2906826171875,1.6452999114990234,0.21819999814033508,-3.3402998447418213
1702216839205682700,6.3506826171875,-0.5457000136375427,-3.011899948120117,-6.150899887084961
1702216839265682700,6.4106826171875,0.3118000030517578,-4.410900115966797,-7.698099613189697
1702216839325682700,6.4706826171875,-2.7070000171661377,-2.2826998233795166,-5.311699867248535
1702216839385682700,6.5306826171875,-0.5889999866485596,0.2223999947309494,-2.727799892425537
1702216839445682700,6.5906826171875,-1.1761000156402588,-1.281000018119812,-0.7639999985694885
1702216839505682700,6.6506826171875,0.19259999692440033,0.04529999941587448,1.702799916267395
1702216839565709300,6.710709228515625,0.7479999661445618,1.549399971961975,1.5816999673843384
1702216839625682700,6.7706826171875,1.132099986076355,1.4228999614715576,0.6953999996185303
1702216839685682700,6.8306826171875,1.1648999452590942,-0.9538999795913696,-0.19499999284744263
1702216839745682700,6.8906826171875,0.6884999871253967,0.400299996137619,1.5096999406814575
1702216839805682700,6.9506826171875,-2.6541998386383057,-1.3914999961853027,0.7731999754905701
1702216839865682700,7.0106826171875,-0.7591999769210815,-0.4034999907016754,-2.005699872970581
1702216839925682700,7.0706826171875,-2.4326999187469482,-1.3945999145507812,2.249199867248535
1702216839985682700,7.1306826171875,-0.2215999960899353,-0.6717000007629395,1.204800009727478
1702216840045682700,7.1906826171875,-3.2231998443603516,-1.249899983406067,-0.36149999499320984
1702216840105682700,7.2506826171875,1.1074999570846558,0.7753999829292297,-1.3207999467849731
1702216840165682700,7.3106826171875,2.0028998851776123,1.858799934387207,-2.6342999935150146
1702216840225682700,7.3706826171875,4.263700008392334,0.5885999798774719,-2.5839998722076416
1702216840285682700,7.4306826171875,2.4072999954223633,1.5575999021530151,-2.296099901199341
1702216840345682700,7.4906826171875,2.0264999866485596,-0.7145999670028687,-1.122399926185608
1702216840405682700,7.5506826171875,1.6863999366760254,-2.3824000358581543,-0.053700000047683716
1702216840465682700,7.6106826171875,0.9151999950408936,-1.4692000150680542,2.290599822998047
1702216840525682700,7.6706826171875,-1.139699935913086,-3.5244998931884766,2.6029999256134033
1702216840585682700,7.7306826171875,-2.7170000076293945,-3.146899938583374,5.053499698638916
1702216840645682700,7.7906826171875,-1.242799997329712,-1.9727998971939087,6.892399787902832
1702216840705709300,7.850709228515625,0.17569999396800995,-0.7310000061988831,7.157099723815918
1702216840765682700,7.9106826171875,-2.7402000427246094,-0.4535999894142151,4.204800128936768
1702216840825682700,7.9706826171875,-1.4866999387741089,-1.1265000104904175,1.7146999835968018
1702216840885682700,8.0306826171875,-0.8446999788284302,-1.6553999185562134,-0.7272999882698059
1702216840945682700,8.0906826171875,-0.5680999755859375,-3.1131999492645264,-3.8299999237060547
1702216841005682700,8.1506826171875,-1.3212000131607056,-3.507699966430664,-5.342599868774414
1702216841065682700,8.2106826171875,2.9895999431610107,-2.6327998638153076,-8.381999969482422
1702216841125682700,8.2706826171875,-2.334699869155884,-0.6164999604225159,-10.632100105285645
1702216841185682700,8.3306826171875,1.545300006866455,-0.383899986743927,-4.956299781799316
1702216841245682700,8.3906826171875,0.17659999430179596,-1.157099962234497,-3.6826000213623047
1702216841305682700,8.4506826171875,0.5378000140190125,-1.5282999277114868,-3.0095999240875244
1702216841365682700,8.5106826171875,0.3667999804019928,-0.6560999751091003,0.2604999840259552
1702216841425682700,8.5706826171875,0.07019999623298645,-0.7590999603271484,2.870800018310547
1702216841485682700,8.6306826171875,0.3432999849319458,-0.3529999852180481,4.043399810791016
1702216841545682700,8.6906826171875,-1.220099925994873,-2.4494998455047607,5.038000106811523
1702216841605682700,8.7506826171875,-1.559999942779541,-1.9114999771118164,4.649899959564209
1702216841665682700,8.8106826171875,-2.666599988937378,-1.9101999998092651,5.457699775695801
1702216841725682700,8.8706826171875,-3.101799964904785,-3.1686999797821045,3.727599859237671
1702216841785682700,8.9306826171875,-1.809399962425232,-5.0991997718811035,3.383699893951416
1702216841845682700,8.9906826171875,1.2374999523162842,-2.2172000408172607,1.6114999055862427
1702216841905682700,9.0506826171875,0.5579999685287476,-0.5263000130653381,0.29319998621940613
1702216841965682700,9.1106826171875,-1.289099931716919,0.43129998445510864,0.31700000166893005
1702216842025682700,9.1706826171875,-0.9125999808311462,-0.3642999827861786,0.8203999996185303
1702216842085682700,9.2306826171875,1.149399995803833,-2.9670000076293945,-1.1460999250411987
1702216842145682700,9.2906826171875,1.920199990272522,-2.0406999588012695,-4.428999900817871
1702216842205682700,9.3506826171875,-2.0713999271392822,-1.6201999187469482,-2.9903998374938965
1702216842265682700,9.4106826171875,2.398200035095215,-0.7698999643325806,-2.436499834060669
1702216842325682700,9.4706826171875,0.013399999588727951,-1.816999912261963,-2.077399969100952
1702216842385682700,9.5306826171875,0.034699998795986176,1.1115000247955322,-1.1485999822616577
1702216842445682700,9.5906826171875,-0.23229999840259552,3.4801998138427734,-0.9643999934196472
1702216842505682700,9.6506826171875,-1.309399962425232,3.2451999187469482,-1.9891999959945679
1702216842565682700,9.7106826171875,-1.3628000020980835,1.3532999753952026,-2.951200008392334
1702216842625682700,9.7706826171875,-0.49390000104904175,-0.12839999794960022,-4.736499786376953
1702216842685682700,9.8306826171875,-1.4122999906539917,-0.9602999687194824,-5.359399795532227
1702216842745682700,9.8906826171875,0.3349999785423279,-1.4193999767303467,-4.194399833679199
1702216842805709300,9.950709228515626,0.7455999851226807,-2.7774999141693115,-6.531899929046631
1702216842865682700,10.0106826171875,-0.16449999809265137,-5.622699737548828,-4.976099967956543
1702216842925682700,10.0706826171875,0.4327999949455261,-5.378599643707275,-2.6823999881744385
1702216842985682700,10.1306826171875,3.6651999950408936,-2.663300037384033,0.9648999571800232
1702216843045682700,10.1906826171875,2.2375998497009277,-1.9545999765396118,4.042500019073486
1702216843105682700,10.2506826171875,0.9607999920845032,-2.9514999389648438,5.564399719238281
1702216843165682700,10.3106826171875,1.2648999691009521,-1.7045999765396118,6.023299694061279
1702216843225682700,10.3706826171875,0.5575000047683716,-2.3071000576019287,7.8694000244140625
1702216843285682700,10.4306826171875,-0.5187999606132507,-3.223599910736084,9.06559944152832
1702216843345682700,10.4906826171875,-3.4907000064849854,-6.187999725341797,5.254899978637695
1702216843405682700,10.5506826171875,-3.7587997913360596,-6.523399829864502,3.871799945831299
1702216843465682700,10.6106826171875,1.649999976158142,-5.0903000831604,4.246200084686279
1702216843525682700,10.6706826171875,-0.09889999777078629,-2.2786998748779297,0.41339999437332153
1702216843585682700,10.7306826171875,-1.9846999645233154,-0.8446999788284302,-2.15910005569458
1702216843645682700,10.7906826171875,0.5945000052452087,-0.9957999587059021,-4.156399726867676
1702216843705682700,10.8506826171875,2.158799886703491,-1.3481999635696411,-5.901299953460693
1702216843765682700,10.9106826171875,1.305400013923645,-1.2696999311447144,-8.866399765014648
1702216843825682700,10.9706826171875,0.9901999831199646,-1.7563999891281128,-8.316900253295898
1702216843885682700,11.0306826171875,0.5625999569892883,-2.180799961090088,-10.140600204467773
1702216843945682700,11.0906826171875,-0.047599997371435165,-0.8981999754905701,-8.316499710083008
1702216844005682700,11.1506826171875,-0.18369999527931213,-1.798799991607666,-4.439699649810791
1702216844065682700,11.2106826171875,-0.5217999815940857,-3.788800001144409,-3.8063998222351074
1702216844125682700,11.2706826171875,1.2503999471664429,-3.085599899291992,-1.230199933052063
1702216844185682700,11.3306826171875,1.3558999300003052,-4.342700004577637,1.6439999341964722
1702216844245682700,11.3906826171875,1.044600009918213,-5.14169979095459,3.5540997982025146
1702216844305682700,11.4506826171875,2.119999885559082,-4.17009973526001,5.669399738311768
1702216844365682700,11.5106826171875,2.1850998401641846,-3.412899971008301,8.385199546813965
1702216844425682700,11.5706826171875,0.8059999942779541,-3.3411998748779297,9.358699798583984
1702216844485682700,11.6306826171875,-0.9223999977111816,-5.206500053405762,8.53179931640625
1702216844545682700,11.6906826171875,-3.129499912261963,-8.703299522399902,3.446499824523926
1702216844605682700,11.7506826171875,-2.6106998920440674,-6.6041998863220215,1.8535000085830688
1702216844665682700,11.8106826171875,-0.14159999787807465,-2.907099962234497,2.1335999965667725
1702216844725682700,11.8706826171875,0.28509998321533203,-1.6684999465942383,0.6697999835014343
1702216844785682700,11.9306826171875,0.7410999536514282,-2.025599956512451,-1.955399990081787
1702216844845682700,11.9906826171875,3.026099920272827,-1.6456999778747559,-5.428899765014648
1702216844905709300,12.050709228515625,3.7005999088287354,-2.9456000328063965,-11.508699417114258
1702216844965682700,12.1106826171875,4.6092000007629395,-2.3850998878479004,-14.108099937438965
1702216845025682700,12.1706826171875,5.214200019836426,0.13369999825954437,-8.516200065612793
1702216845085682700,12.2306826171875,2.7383999824523926,-2.1248998641967773,-9.752099990844727
1702216845145682700,12.2906826171875,-0.11140000075101852,-6.414899826049805,-10.262499809265137
1702216845205682700,12.3506826171875,-0.6739999651908875,-7.71589994430542,-2.744999885559082
1702216845265682700,12.4106826171875,0.4649999737739563,-4.7515997886657715,1.2338999509811401
1702216845325682700,12.4706826171875,0.7512999773025513,-5.433899879455566,2.7304999828338623
1702216845385682700,12.5306826171875,1.6137999296188354,-6.302599906921387,4.878399848937988
1702216845445682700,12.5906826171875,2.6849000453948975,-4.016200065612793,8.908499717712402
1702216845505682700,12.6506826171875,0.9953999519348145,-4.870199680328369,10.610199928283691
1702216845565682700,12.7106826171875,0.020099999383091927,-3.5546000003814697,9.4089994430542
1702216845625682700,12.7706826171875,-2.1434998512268066,-6.541800022125244,9.097099304199219
1702216845685682700,12.8306826171875,-0.5963999629020691,-10.427299499511719,2.138700008392334
1702216845745682700,12.8906826171875,-2.775899887084961,-6.5351996421813965,1.4122999906539917
1702216845805682700,12.9506826171875,0.14159999787807465,-2.560499906539917,0.6381999850273132
1702216845865682700,13.0106826171875,1.4290999174118042,-1.9580999612808228,-1.3666999340057373
1702216845925682700,13.0706826171875,1.2934999465942383,-2.505699872970581,-5.674299716949463
1702216845985682700,13.1306826171875,2.0999999046325684,-0.6532999873161316,-9.238900184631348
1702216846045682700,13.1906826171875,2.8773999214172363,1.0017999410629272,-8.553899765014648
1702216846105682700,13.2506826171875,2.187000036239624,-1.177799940109253,-10.630499839782715
1702216846165682700,13.3106826171875,3.762899875640869,-0.15320000052452087,-8.2391996383667
1702216846225682700,13.3706826171875,2.846599817276001,0.03579999879002571,-5.284599781036377
1702216846285682700,13.4306826171875,1.0921999216079712,-5.473099708557129,-5.291299819946289
1702216846345682700,13.4906826171875,-0.4756999909877777,-7.2657999992370605,-5.548699855804443
1702216846405682700,13.5506826171875,2.6403000354766846,-4.3403000831604,-0.8840999603271484
1702216846465682700,13.6106826171875,1.8726999759674072,-2.801499843597412,2.960399866104126
1702216846525682700,13.6706826171875,0.39010000228881836,-3.103099822998047,5.04010009765625
1702216846585682700,13.7306826171875,-0.5864999890327454,-2.8952999114990234,5.876199722290039
1702216846645682700,13.7906826171875,-0.4359000027179718,-2.0409998893737793,8.048199653625488
1702216846705682700,13.8506826171875,-1.3804999589920044,-5.2241997718811035,9.18529987335205
1702216846765682700,13.9106826171875,-0.8075999617576599,-7.1875,7.218999862670898
1702216846825682700,13.9706826171875,-1.4296000003814697,-7.505199909210205,2.7640998363494873
1702216846885682700,14.0306826171875,-2.07069993019104,-4.683000087738037,1.7848999500274658
1702216846945682700,14.0906826171875,-1.0749000310897827,-0.7920999526977539,1.5982999801635742
1702216847005709300,14.150709228515625,0.8729999661445618,-0.9409999847412109,1.1675000190734863
1702216847065682700,14.2106826171875,1.5848000049591064,-2.3443000316619873,-2.1492998600006104
1702216847125682700,14.2706826171875,2.5936999320983887,-2.177999973297119,-6.2795000076293945
1702216847185682700,14.3306826171875,3.5179998874664307,-1.6208000183105469,-8.23390007019043
1702216847245682700,14.3906826171875,1.9763000011444092,-1.2493000030517578,-9.131099700927734
1702216847305682700,14.4506826171875,1.9627000093460083,1.1407999992370605,-9.306300163269043
1702216847365682700,14.5106826171875,2.7482998371124268,0.41519999504089355,-5.491699695587158
1702216847425682700,14.5706826171875,-1.0516999959945679,-4.563999652862549,-8.320599555969238
1702216847485682700,14.6306826171875,0.08659999817609787,-7.247799873352051,-6.1016998291015625
1702216847545682700,14.6906826171875,3.104300022125244,-4.0406999588012695,0.11059999465942383
1702216847605682700,14.7506826171875,2.618499994277954,-2.760999917984009,3.188199996948242
1702216847665682700,14.8106826171875,1.3945999145507812,-3.2582998275756836,4.84499979019165
1702216847725682700,14.8706826171875,1.25819993019104,-4.021999835968018,4.918099880218506
1702216847785682700,14.9306826171875,1.8244999647140503,-2.9494998455047607,6.899199962615967
1702216847845682700,14.9906826171875,1.6337999105453491,-3.0645999908447266,9.737199783325195
1702216847905682700,15.0506826171875,-0.22360000014305115,-5.726500034332275,7.929800033569336
1702216847965682700,15.1106826171875,-1.2562999725341797,-7.791399955749512,2.1362998485565186
1702216848025682700,15.1706826171875,-1.5857999324798584,-5.870599746704102,2.929299831390381
1702216848085682700,15.2306826171875,0.3507999777793884,-3.063999891281128,2.324899911880493
1702216848145682700,15.2906826171875,1.4019999504089355,-2.0736000537872314,1.1246999502182007
1702216848205682700,15.3506826171875,0.513700008392334,-2.227099895477295,-3.3873000144958496
1702216848265682700,15.4106826171875,-0.11229999363422394,-0.8567000031471252,-11.31149959564209
1702216848325682700,15.4706826171875,1.3880999088287354,0.5834000110626221,-11.820300102233887
1702216848385682700,15.5306826171875,1.070099949836731,0.337799996137619,-12.086599349975586
1702216848445682700,15.5906826171875,3.39520001411438,-1.3310999870300293,-8.554699897766113
1702216848505682700,15.6506826171875,3.2373998165130615,-2.231600046157837,-9.0964994430542
1702216848565682700,15.7106826171875,1.1949999332427979,-7.326599597930908,-5.789999961853027
1702216848625682700,15.7706826171875,0.27059999108314514,-6.813399791717529,-2.127500057220459
1702216848685682700,15.8306826171875,2.049299955368042,-4.82889986038208,1.6190999746322632
1702216848745681200,15.89068115234375,1.479200005531311,-4.216899871826172,4.173099994659424
1702216848805682700,15.9506826171875,1.0784999132156372,-3.987299919128418,7.023099899291992
1702216848865682700,16.0106826171875,0.9413999915122986,-3.1761999130249023,9.232099533081055
1702216848925682700,16.0706826171875,0.2611999809741974,-2.7172999382019043,9.183199882507324
1702216848985682700,16.1306826171875,-3.4223999977111816,-6.09089994430542,7.097799777984619
1702216849045682700,16.1906826171875,-2.5451998710632324,-9.288299560546875,5.529799938201904
1702216849105709300,16.250709228515625,-1.8151999711990356,-9.20949935913086,1.2548999786376953
1702216849165682700,16.3106826171875,-1.6373999118804932,-3.5936999320983887,2.7100000381469727
1702216849225682700,16.3706826171875,-1.2041999101638794,-1.337499976158142,1.6105999946594238
1702216849285682700,16.4306826171875,-0.10209999978542328,-1.654099941253662,-0.020600000396370888
1702216849345682700,16.4906826171875,0.19419999420642853,-2.3796000480651855,-5.014599800109863
1702216849405682700,16.5506826171875,2.136699914932251,-0.9695000052452087,-8.272199630737305
1702216849465682700,16.6106826171875,3.4363999366760254,-1.626599907875061,-6.887099742889404
1702216849525682700,16.6706826171875,4.589600086212158,-1.1610000133514404,-8.68120002746582
1702216849585682700,16.7306826171875,3.8576998710632324,0.2624000012874603,-10.298199653625488
1702216849645682700,16.7906826171875,3.0085999965667725,-0.9254999756813049,-10.823199272155762
1702216849705682700,16.8506826171875,-1.1955000162124634,-5.016499996185303,-8.391499519348145
1702216849765682700,16.9106826171875,1.0268999338150024,-6.459099769592285,-3.3050999641418457
1702216849825682700,16.9706826171875,2.2346999645233154,-5.061899662017822,0.7178999781608582
1702216849885682700,17.0306826171875,1.2990000247955322,-5.68619966506958,2.09089994430542
1702216849945682700,17.0906826171875,0.5121999979019165,-6.615099906921387,4.148799896240234
1702216850005682700,17.1506826171875,0.12709999084472656,-4.721099853515625,8.208999633789062
1702216850065682700,17.2106826171875,-0.6783999800682068,-3.934299945831299,10.172999382019043
1702216850125682700,17.2706826171875,-2.3325998783111572,-5.912199974060059,10.427499771118164
1702216850185682700,17.3306826171875,-1.2019000053405762,-8.272199630737305,5.186500072479248
1702216850245682700,17.3906826171875,-2.2883999347686768,-4.549999713897705,4.000400066375732
1702216850305682700,17.4506826171875,-0.9661999940872192,-2.0151000022888184,4.0127997398376465
1702216850365682700,17.5106826171875,-0.8655999898910522,-3.232100009918213,2.7112998962402344
1702216850425682700,17.5706826171875,0.4921000003814697,-5.048999786376953,-1.8750998973846436
1702216850485682700,17.6306826171875,2.3443000316619873,-4.002299785614014,-6.195099830627441
1702216850545682700,17.6906826171875,3.9392998218536377,0.6306999921798706,-4.7704997062683105
1702216850605682700,17.7506826171875,1.7950999736785889,1.1373000144958496,-3.931199789047241
1702216850665682700,17.8106826171875,0.4205999970436096,-1.440500020980835,-7.636899948120117
1702216850725682700,17.8706826171875,3.692699909210205,-3.759199857711792,-12.573100090026855
1702216850785682700,17.9306826171875,3.786099910736084,-1.44159996509552,-8.9306001663208
1702216850845682700,17.9906826171875,2.107300043106079,-1.2739999294281006,-6.132099628448486
1702216850905682700,18.0506826171875,-1.4443999528884888,-3.9191999435424805,-5.167099952697754
1702216850965682700,18.1106826171875,1.1763999462127686,-5.602499961853027,-3.3698999881744385
1702216851025682700,18.1706826171875,3.138199806213379,-6.678799629211426,0.2671000063419342
1702216851085682700,18.2306826171875,3.0874998569488525,-6.8907999992370605,2.7995998859405518
1702216851145682700,18.2906826171875,2.2725000381469727,-6.886399745941162,5.067399978637695
1702216851205709300,18.350709228515626,2.1464998722076416,-5.298599720001221,8.926400184631348
1702216851265682700,18.4106826171875,0.4514999985694885,-4.521999835968018,9.684100151062012
1702216851325682700,18.4706826171875,0.08240000158548355,-7.152400016784668,10.255199432373047
1702216851385682700,18.5306826171875,-0.6663999557495117,-6.781899929046631,7.997099876403809
1702216851445682700,18.5906826171875,-1.3722000122070312,-6.485099792480469,3.275599956512451
1702216851505682700,18.6506826171875,-0.9993999600410461,-4.460700035095215,2.5297000408172607
1702216851565682700,18.7106826171875,0.8197999596595764,-3.5105998516082764,0.4908999800682068
1702216851625682700,18.7706826171875,1.4161999225616455,-4.399899959564209,-3.586199998855591
1702216851685682700,18.8306826171875,1.5506999492645264,-3.255499839782715,-8.258500099182129
1702216851745682700,18.8906826171875,3.472899913787842,0.14869999885559082,-9.243999481201172
1702216851805682700,18.9506826171875,3.614300012588501,3.5288000106811523,-6.744199752807617
1702216851865682700,19.0106826171875,-2.774099826812744,-3.2602999210357666,-13.25059986114502
1702216851925682700,19.0706826171875,0.8108999729156494,-5.497299671173096,-10.272299766540527
1702216851985682700,19.1306826171875,4.90779972076416,-1.8312000036239624,-5.095999717712402
1702216852045682700,19.1906826171875,1.7996999025344849,-2.03410005569458,-2.390699863433838
1702216852105682700,19.2506826171875,-3.6720998287200928,-4.88730001449585,-2.4774999618530273
1702216852165682700,19.3106826171875,0.17809998989105225,-4.706899642944336,-1.265299916267395
1702216852225682700,19.3706826171875,4.177700042724609,-4.902899742126465,2.273399829864502
1702216852285682700,19.4306826171875,4.383500099182129,-5.440199851989746,4.296799659729004
1702216852345682700,19.4906826171875,4.19849967956543,-5.301199913024902,6.282599925994873
1702216852405682700,19.5506826171875,4.148499965667725,-3.15310001373291,7.0737996101379395
1702216852465682700,19.6106826171875,2.1984000205993652,-5.979499816894531,9.479000091552734
1702216852525682700,19.6706826171875,-0.9431999921798706,-4.701900005340576,4.86959981918335
1702216852585682700,19.7306826171875,-0.9294999837875366,-5.829899787902832,4.376299858093262
1702216852645682700,19.7906826171875,-1.6861999034881592,-5.872900009155273,0.5723999738693237
1702216852705682700,19.8506826171875,-0.37770000100135803,-3.0062999725341797,1.1481999158859253
1702216852765682700,19.9106826171875,-0.6312999725341797,-0.3507999777793884,0.15719999372959137
1702216852825682700,19.9706826171875,0.6819999814033508,-0.02879999950528145,-1.0580999851226807
1702216852885682700,20.0306826171875,0.6198999881744385,-0.00029999998514540493,-3.7831997871398926
1702216852945682700,20.0906826171875,-0.48659998178482056,0.3752000033855438,-6.9679999351501465
1702216853005682700,20.1506826171875,-2.661900043487549,-1.6196999549865723,-10.92490005493164
1702216853065682700,20.2106826171875,1.1369999647140503,-1.222000002861023,-9.324199676513672
1702216853125682700,20.2706826171875,2.296599864959717,1.6105999946594238,-6.919299602508545
1702216853185682700,20.3306826171875,1.3931999206542969,-1.767699956893921,-7.236299991607666
1702216853245682700,20.3906826171875,-2.3866000175476074,-5.262399673461914,-7.4415998458862305
1702216853305709300,20.450709228515624,0.8454999923706055,-7.011600017547607,-2.6606998443603516
1702216853365682700,20.5106826171875,3.391700029373169,-4.1956000328063965,1.135200023651123
1702216853425682700,20.5706826171875,2.9038000106811523,-3.253700017929077,3.1315999031066895
1702216853485682700,20.6306826171875,1.7558999061584473,-4.549099922180176,3.93179988861084
1702216853545682700,20.6906826171875,2.444499969482422,-5.398699760437012,3.7273998260498047
1702216853605682700,20.7506826171875,0.9110999703407288,-3.956199884414673,8.135000228881836
1702216853665682700,20.8106826171875,-2.5119998455047607,-4.381799697875977,7.724099636077881
1702216853725682700,20.8706826171875,-2.942199945449829,-3.4326999187469482,8.317699432373047
1702216853785682700,20.9306826171875,-4.000400066375732,-4.681299686431885,5.445899963378906
1702216853845682700,20.9906826171875,-2.7493999004364014,-8.208399772644043,3.772199869155884
1702216853905682700,21.0506826171875,-1.5405999422073364,-7.225599765777588,2.1094000339508057
1702216853965682700,21.1106826171875,1.7559999227523804,-3.455699920654297,0.24199999868869781
1702216854025682700,21.1706826171875,1.659999966621399,-1.5080000162124634,-1.2481999397277832
1702216854085682700,21.2306826171875,2.263200044631958,-2.1499998569488525,-3.617499828338623
1702216854145682700,21.2906826171875,3.364799976348877,-1.8427000045776367,-5.4878997802734375
1702216854205682700,21.3506826171875,5.186399936676025,0.07159999758005142,-5.541899681091309
1702216854265682700,21.4106826171875,3.4646999835968018,1.4503999948501587,-5.826699733734131
1702216854325682700,21.4706826171875,3.9961998462677,1.8356999158859253,-5.229000091552734
1702216854385682700,21.5306826171875,2.5560998916625977,-4.3678998947143555,-15.330999374389648
1702216854445682700,21.5906826171875,3.69569993019104,-5.669399738311768,-4.995500087738037
1702216854505682700,21.6506826171875,0.9448999762535095,-4.953799724578857,-2.2319998741149902
1702216854565709300,21.710709228515626,-0.4271000027656555,-2.7388999462127686,-0.04619999974966049
1702216854625682700,21.7706826171875,-0.4509999752044678,-2.7100000381469727,1.5175999402999878
1702216854685682700,21.8306826171875,-0.6118999719619751,-3.290799856185913,3.1878998279571533
1702216854745682700,21.8906826171875,-0.3671000003814697,-3.4822998046875,4.701299667358398
1702216854805682700,21.9506826171875,-1.4771000146865845,-4.291299819946289,5.783999919891357
1702216854865682700,22.0106826171875,-2.510499954223633,-2.572000026702881,6.20989990234375
1702216854925682700,22.0706826171875,-5.946300029754639,-5.287899971008301,7.523900032043457
1702216854985682700,22.1306826171875,-3.1870999336242676,-7.309899806976318,4.458899974822998
1702216855045682700,22.1906826171875,-1.8808999061584473,-5.132400035858154,2.2548999786376953
1702216855105682700,22.2506826171875,-1.0720999240875244,-1.785499930381775,2.876699924468994
1702216855165682700,22.3106826171875,0.8102999925613403,-1.5774999856948853,2.1076998710632324
1702216855225682700,22.3706826171875,2.9057998657226562,-2.807799816131592,-0.968999981880188
1702216855285682700,22.4306826171875,2.690199851989746,-3.5505998134613037,-6.861999988555908
1702216855345682700,22.4906826171875,4.574399948120117,0.003599999938160181,-5.908299922943115
1702216855405709300,22.550709228515625,3.0737998485565186,1.7117999792099,-4.321899890899658
1702216855465682700,22.6106826171875,1.82069993019104,0.7109000086784363,-8.311800003051758
1702216855525682700,22.6706826171875,3.9606997966766357,-2.174799919128418,-8.340399742126465
1702216855585682700,22.7306826171875,2.982100009918213,-1.1461999416351318,-5.650799751281738
1702216855645682700,22.7906826171875,0.38999998569488525,-4.686100006103516,-4.229799747467041
1702216855705682700,22.8506826171875,0.9753999710083008,-5.989799976348877,-3.345599889755249
1702216855765682700,22.9106826171875,2.4082000255584717,-5.219099998474121,1.038699984550476
1702216855825682700,22.9706826171875,1.6998000144958496,-4.116699695587158,3.8213999271392822
1702216855885682700,23.0306826171875,0.5974000096321106,-3.649199962615967,5.384699821472168
1702216855945682700,23.0906826171875,-0.08219999819993973,-3.1982998847961426,5.517899990081787
1702216856005682700,23.1506826171875,-1.0536999702453613,-3.7503998279571533,5.757999897003174
1702216856065682700,23.2106826171875,-2.1008999347686768,-3.7588999271392822,6.772500038146973
1702216856125682700,23.2706826171875,-4.542099952697754,-4.454099655151367,6.61769962310791
1702216856185682700,23.3306826171875,-2.524099826812744,-3.3757998943328857,5.427000045776367
1702216856245682700,23.3906826171875,-2.6647000312805176,-4.1844000816345215,4.253499984741211
1702216856305682700,23.4506826171875,-0.6207000017166138,-5.486999988555908,0.49799999594688416
1702216856365682700,23.5106826171875,0.34880000352859497,-4.7846999168396,-3.051299810409546
1702216856425682700,23.5706826171875,1.8651999235153198,-3.0879998207092285,-5.230000019073486
1702216856485682700,23.6306826171875,4.138899803161621,-0.07959999889135361,-3.422999858856201
1702216856545682700,23.6906826171875,3.7139999866485596,2.732599973678589,-3.318199872970581
1702216856605682700,23.7506826171875,1.8676999807357788,0.8527999520301819,-6.905200004577637
1702216856665682700,23.8106826171875,3.8157999515533447,-1.3451999425888062,-6.857199668884277
1702216856725682700,23.8706826171875,4.381799697875977,-2.5734000205993652,-5.758299827575684
1702216856785682700,23.9306826171875,3.4702999591827393,-2.294600009918213,-3.708099842071533
1702216856845682700,23.9906826171875,0.8642999529838562,-1.292099952697754,-2.0630998611450195
1702216856905682700,24.0506826171875,0.295199990272522,0.8750999569892883,0.5353999733924866
1702216856965682700,24.1106826171875,-2.237299919128418,-4.988699913024902,1.7342000007629395
1702216857025682700,24.1706826171875,-0.27399998903274536,-7.251699924468994,-0.32729998230934143
1702216857085682700,24.2306826171875,1.9190999269485474,-1.1625999212265015,2.126699924468994
1702216857145682700,24.2906826171875,0.3118000030517578,-1.0311999320983887,4.199199676513672
1702216857205682700,24.3506826171875,-2.5253000259399414,-5.140899658203125,2.725800037384033
1702216857265682700,24.4106826171875,-1.7263000011444092,-5.111000061035156,2.6956000328063965
1702216857325682700,24.4706826171875,-2.1345999240875244,-4.329699993133545,4.442299842834473
1702216857385682700,24.5306826171875,-2.509699821472168,-1.990799903869629,6.518499851226807
1702216857445682700,24.5906826171875,-0.17260000109672546,-1.0174000263214111,5.297399997711182
1702216857505709300,24.650709228515623,-1.2939000129699707,0.1305999904870987,4.430299758911133
1702216857565682700,24.7106826171875,0.188400000333786,-1.0958999395370483,2.1706998348236084
1702216857625682700,24.7706826171875,0.4332999885082245,-1.38319993019104,-0.7017999887466431
1702216857685682700,24.8306826171875,1.4817999601364136,-1.3198000192642212,-4.9456000328063965
1702216857745682700,24.8906826171875,1.0338000059127808,-1.0507999658584595,-8.78499984741211
1702216857805682700,24.9506826171875,2.357300043106079,0.13300000131130219,-9.324699401855469
1702216857865682700,25.0106826171875,4.099100112915039,-0.7253999710083008,-8.3016996383667
1702216857925682700,25.0706826171875,2.3518998622894287,-0.9090999960899353,-11.333000183105469
1702216857985682700,25.1306826171875,2.5896999835968018,-4.285799980163574,-5.199199676513672
1702216858045682700,25.1906826171875,1.5585999488830566,-3.910799980163574,-1.8406999111175537
1702216858105682700,25.2506826171875,0.08339999616146088,-3.4607999324798584,0.12559999525547028
1702216858165682700,25.3106826171875,-0.23629999160766602,-4.637899875640869,1.931999921798706
1702216858225682700,25.3706826171875,-0.8575999736785889,-4.280900001525879,2.6457998752593994
1702216858285682700,25.4306826171875,-0.37790000438690186,-4.089099884033203,5.3282999992370605
1702216858345682700,25.4906826171875,-2.6095998287200928,-3.913299798965454,7.786599636077881
1702216858405682700,25.5506826171875,-3.787799835205078,-3.352599859237671,6.445499897003174
1702216858465682700,25.6106826171875,-4.997399806976318,-3.9045000076293945,6.171099662780762
1702216858525682700,25.6706826171875,-5.420300006866455,-6.418799877166748,2.8773000240325928
1702216858585682700,25.7306826171875,-3.3208999633789062,-6.012399673461914,1.6382999420166016
1702216858645682700,25.7906826171875,-2.3417999744415283,-1.9744999408721924,1.9864000082015991
1702216858705682700,25.8506826171875,-0.8578000068664551,-1.084299921989441,1.9000999927520752
1702216858765682700,25.9106826171875,1.01419997215271,-2.2266998291015625,0.08159999549388885
1702216858825751600,25.97075146484375,3.9520998001098633,-3.4736998081207275,-4.223199844360352
1702216858885682700,26.0306826171875,6.61299991607666,-2.468400001525879,-5.978699684143066
1702216858945682700,26.0906826171875,6.254799842834473,-0.4502999782562256,-4.874399662017822
1702216859005682700,26.1506826171875,5.656899929046631,-1.0902999639511108,-6.076999664306641
1702216859065682700,26.2106826171875,6.150899887084961,-1.9576998949050903,-6.395199775695801
1702216859125682700,26.2706826171875,4.0553998947143555,-5.31879997253418,-5.7993998527526855
1702216859185682700,26.3306826171875,1.1068999767303467,-6.775599956512451,-4.8217997550964355
1702216859245682700,26.3906826171875,0.5249999761581421,-4.04509973526001,-1.2496999502182007
1702216859305682700,26.4506826171875,-2.319700002670288,-4.382199764251709,1.9977999925613403
1702216859365682700,26.5106826171875,-3.9238998889923096,-4.674599647521973,3.878000020980835
1702216859425682700,26.5706826171875,-3.2059998512268066,-4.063699722290039,4.927799701690674
1702216859485682700,26.6306826171875,-2.2272000312805176,-3.822999954223633,7.127699851989746
1702216859545682700,26.6906826171875,-3.4891998767852783,-3.188999891281128,8.326700210571289
1702216859605709300,26.750709228515625,-5.055599689483643,-3.3755998611450195,6.616299629211426
1702216859665682700,26.8106826171875,-5.089600086212158,-5.455999851226807,6.257299900054932
1702216859725682700,26.8706826171875,-3.0936999320983887,-8.08799934387207,5.229899883270264
1702216859785682700,26.9306826171875,-1.1181999444961548,-9.739099502563477,2.3487000465393066
1702216859845682700,26.9906826171875,0.8238999843597412,-7.8364996910095215,-0.7945999503135681
1702216859905682700,27.0506826171875,2.8641998767852783,-5.235300064086914,-0.837399959564209
1702216859965682700,27.1106826171875,3.5848000049591064,-4.267300128936768,-0.2401999980211258
1702216860025682700,27.1706826171875,3.6728999614715576,-3.0732998847961426,-2.9198999404907227
1702216860085682700,27.2306826171875,7.805099964141846,-2.499699831008911,-9.924300193786621
1702216860145682700,27.2906826171875,7.254899978637695,-0.06859999895095825,-12.237899780273438
1702216860205682700,27.3506826171875,6.51099967956543,-0.19169999659061432,-11.907299995422363
1702216860265682700,27.4106826171875,4.999499797821045,-3.34689998626709,-11.339900016784668
1702216860325682700,27.4706826171875,2.559799909591675,-7.708799839019775,-9.416600227355957
1702216860385682700,27.5306826171875,1.0621999502182007,-9.456600189208984,-3.392899990081787
1702216860445682700,27.5906826171875,-0.1630999892950058,-7.258699893951416,-0.24639999866485596
1702216860505682700,27.6506826171875,3.7644999027252197,-5.326200008392334,2.1887998580932617
1702216860565682700,27.7106826171875,4.4054999351501465,-9.488900184631348,-1.8360999822616577
1702216860625682700,27.7706826171875,6.207299709320068,-9.898300170898438,3.5360000133514404
1702216860685682700,27.8306826171875,4.078400135040283,-8.237799644470215,6.7876996994018555
1702216860745682700,27.8906826171875,1.3224999904632568,-7.043399810791016,8.662400245666504
1702216860805682700,27.9506826171875,0.31520000100135803,-4.921000003814697,9.171699523925781
1702216860865682700,28.0106826171875,-3.1907999515533447,-6.7191996574401855,4.815199851989746
1702216860925682700,28.0706826171875,-4.327099800109863,-5.438600063323975,4.905099868774414
1702216860985682700,28.1306826171875,-2.987299919128418,-4.778199672698975,4.011199951171875
1702216861045682700,28.1906826171875,-5.3130998611450195,-1.664699912071228,4.211400032043457
1702216861105682700,28.2506826171875,-4.257299900054932,-2.288800001144409,3.537599802017212
1702216861165682700,28.3106826171875,-2.0730998516082764,-3.4863998889923096,1.7005999088287354
1702216861225682700,28.3706826171875,-1.8846999406814575,-5.1778998374938965,-4.358099937438965
1702216861285682700,28.4306826171875,1.9239999055862427,-7.718799591064453,-11.039599418640137
1702216861345682700,28.4906826171875,7.8389997482299805,-3.997999906539917,-5.349799633026123
1702216861405682700,28.5506826171875,7.537099838256836,-1.7227998971939087,-7.103600025177002
1702216861465682700,28.6106826171875,3.9189999103546143,-2.677999973297119,-9.098299980163574
1702216861525682700,28.6706826171875,2.933799982070923,-1.1585999727249146,-6.1026997566223145
1702216861585682700,28.7306826171875,2.015899896621704,-0.492499977350235,-2.0413999557495117
1702216861645682700,28.7906826171875,-1.3372999429702759,-2.1945998668670654,-1.063599944114685
1702216861705709300,28.850709228515626,-0.7394999861717224,-3.658900022506714,-0.37619999051094055
1702216861765682700,28.9106826171875,0.40119999647140503,-4.640599727630615,1.3595999479293823
1702216861825682700,28.9706826171875,1.2149999141693115,-4.352799892425537,4.990699768066406
1702216861885682700,29.0306826171875,-0.062199998646974564,-4.858299732208252,7.1717000007629395
1702216861945682700,29.0906826171875,-0.2919999957084656,-5.36359977722168,7.697099685668945
1702216862005682700,29.1506826171875,1.215999960899353,-4.54509973526001,5.843899726867676
1702216862065682700,29.2106826171875,-1.2599999904632568,-0.9565999507904053,5.373499870300293
1702216862125682700,29.2706826171875,-1.0210999250411987,0.49969998002052307,4.24370002746582
1702216862185682700,29.3306826171875,0.8296999931335449,-1.1215999126434326,2.6166999340057373
1702216862245682700,29.3906826171875,0.42289999127388,-2.363100051879883,-2.6713998317718506
1702216862305682700,29.4506826171875,0.4221999943256378,-3.016899824142456,-8.134900093078613
1702216862365682700,29.5106826171875,2.1843998432159424,-1.8036999702453613,-5.5945000648498535
1702216862425682700,29.5706826171875,2.6023998260498047,-1.2835999727249146,-5.572099685668945
1702216862485682700,29.6306826171875,2.350800037384033,1.3768999576568604,-6.974999904632568
1702216862545682700,29.6906826171875,-0.9111999869346619,-3.8056998252868652,-8.601099967956543
1702216862605682700,29.7506826171875,1.3992999792099,-2.0845999717712402,-5.397299766540527
1702216862665682700,29.8106826171875,2.697000026702881,-0.4001999795436859,-1.1545000076293945
1702216862725682700,29.8706826171875,1.0971999168395996,-1.0291999578475952,1.483199954032898
1702216862785682700,29.9306826171875,0.5475000143051147,-2.245699882507324,2.420099973678589
1702216862845682700,29.9906826171875,0.5720999836921692,-3.9330999851226807,2.2906999588012695
1702216862905682700,30.0506826171875,1.1481999158859253,-4.362800121307373,5.372699737548828
1702216862965682700,30.1106826171875,1.2035999298095703,-4.0341997146606445,10.311599731445312
1702216863025682700,30.1706826171875,1.0956000089645386,-6.354499816894531,6.7303996086120605
1702216863085682700,30.2306826171875,0.9409999847412109,-6.445899963378906,4.0843000411987305
1702216863145682700,30.2906826171875,0.7902999520301819,-3.669299840927124,3.2211999893188477
1702216863205682700,30.3506826171875,-0.9538999795913696,0.3270999789237976,2.0615999698638916
1702216863265682700,30.4106826171875,-0.0032999999821186066,-0.11329999566078186,-1.348599910736084
1702216863325682700,30.4706826171875,1.2918000221252441,-0.9002999663352966,-3.794600009918213
1702216863385682700,30.5306826171875,2.141900062561035,-0.357699990272522,-5.796599864959717
1702216863445682700,30.5906826171875,1.84089994430542,-0.0689999982714653,-7.2378997802734375
1702216863505682700,30.6506826171875,2.386899948120117,0.38419997692108154,-8.252399444580078
1702216863565682700,30.7106826171875,3.38539981842041,0.5586000084877014,-6.096999645233154
1702216863625682700,30.7706826171875,1.1029999256134033,-1.552799940109253,-8.07349967956543
1702216863685682700,30.8306826171875,-2.1923999786376953,-6.1915998458862305,-8.978499412536621
1702216863745682700,30.8906826171875,0.22739998996257782,-5.339900016784668,-3.107599973678589
1702216863805709300,30.950709228515624,2.5996999740600586,-2.641700029373169,0.9273999929428101
1702216863865682700,31.0106826171875,1.4950000047683716,-2.3039000034332275,4.208600044250488
1702216863925682700,31.0706826171875,-0.5076999664306641,-3.435699939727783,5.626100063323975
1702216863985682700,31.1306826171875,-0.21469999849796295,-4.147500038146973,4.846499919891357
1702216864045682700,31.1906826171875,0.9188999533653259,-4.4365997314453125,6.899099826812744
1702216864105682700,31.2506826171875,-0.7457999587059021,-4.831699848175049,8.980999946594238
1702216864165682700,31.3106826171875,-0.4560999870300293,-5.642600059509277,5.983799934387207
1702216864225682700,31.3706826171875,-3.087899923324585,-6.435199737548828,3.2191998958587646
1702216864285682700,31.4306826171875,-0.0803999975323677,-4.236700057983398,2.719899892807007
1702216864345682700,31.4906826171875,0.5155999660491943,-0.9246000051498413,1.188599944114685
1702216864405682700,31.5506826171875,0.19419999420642853,-0.2906000018119812,-0.2214999943971634
1702216864465682700,31.6106826171875,1.6704999208450317,-1.4555000066757202,-4.053299903869629
1702216864525682700,31.6706826171875,3.2279999256134033,-1.3080999851226807,-8.38599967956543
1702216864585682700,31.7306826171875,2.1586999893188477,-0.2922999858856201,-9.378199577331543
1702216864645682700,31.7906826171875,2.2482998371124268,-1.392899990081787,-9.111100196838379
1702216864705682700,31.8506826171875,3.7107999324798584,0.7060999870300293,-7.071300029754639
1702216864765682700,31.9106826171875,1.802299976348877,-3.538100004196167,-6.893399715423584
1702216864825682700,31.9706826171875,-0.9726999998092651,-6.281399726867676,-7.363999843597412
1702216864885682700,32.0306826171875,2.5620999336242676,-5.348199844360352,-0.8951999545097351
1702216864945682700,32.0906826171875,2.1213998794555664,-3.538599967956543,2.8780999183654785
1702216865005682700,32.1506826171875,1.5781999826431274,-3.460099935531616,4.877899646759033
1702216865065682700,32.2106826171875,1.528999924659729,-3.584699869155884,5.764999866485596
1702216865125682700,32.2706826171875,1.9163999557495117,-4.887099742889404,5.909800052642822
1702216865185682700,32.3306826171875,-1.0702999830245972,-5.730799674987793,5.605499744415283
1702216865245682700,32.3906826171875,1.618299961090088,-6.492799758911133,9.452099800109863
1702216865305682700,32.4506826171875,-0.8632999658584595,-7.713799953460693,4.453799724578857
1702216865365682700,32.5106826171875,0.8776999711990356,-4.739500045776367,3.7231998443603516
1702216865425682700,32.5706826171875,-0.20349998772144318,-1.7803999185562134,2.5778000354766846
1702216865485682700,32.6306826171875,-1.1373999118804932,-1.2417999505996704,-0.2214999943971634
1702216865545682700,32.6906826171875,-0.003000000026077032,-3.1511998176574707,-4.64169979095459
1702216865605682700,32.7506826171875,2.7144999504089355,-2.1957998275756836,-6.73829984664917
1702216865665682700,32.8106826171875,3.245999813079834,0.262800008058548,-6.28249979019165
1702216865725682700,32.8706826171875,1.1841999292373657,-0.02029999904334545,-7.862799644470215
1702216865785682700,32.9306826171875,2.059000015258789,-1.7793999910354614,-10.633199691772461
1702216865845682700,32.9906826171875,2.478799819946289,-0.026200000196695328,-7.714399814605713
1702216865905709300,33.05070922851562,-0.21409998834133148,-4.218299865722656,-5.595200061798096
1702216865965682700,33.1106826171875,-1.0894999504089355,-4.60759973526001,-4.306099891662598
1702216866025682700,33.1706826171875,1.6588999032974243,-3.483599901199341,0.06309999525547028
1702216866085682700,33.2306826171875,1.2394999265670776,-3.405099868774414,3.36080002784729
1702216866145682700,33.2906826171875,0.21549999713897705,-3.7659997940063477,5.394700050354004
1702216866205682700,33.3506826171875,-0.30709999799728394,-3.705399990081787,6.860899925231934
1702216866265682700,33.4106826171875,0.13189999759197235,-4.729000091552734,8.725699424743652
1702216866325682700,33.4706826171875,-2.052799940109253,-5.820399761199951,7.910699844360352
1702216866385682700,33.5306826171875,-0.019500000402331352,-6.674299716949463,7.159800052642822
1702216866445682700,33.5906826171875,-1.0911999940872192,-6.484399795532227,1.5852999687194824
1702216866505682700,33.6506826171875,-2.2695999145507812,-3.504699945449829,2.357499837875366
1702216866565682700,33.7106826171875,-0.6383999586105347,-0.724299967288971,1.7911999225616455
1702216866625682700,33.7706826171875,0.6017000079154968,-1.6441999673843384,-0.6898999810218811
1702216866685682700,33.8306826171875,1.6618999242782593,-3.3533999919891357,-6.896899700164795
1702216866745682700,33.8906826171875,3.8889999389648438,-1.7137999534606934,-8.59589958190918
1702216866805682700,33.9506826171875,3.8797998428344727,0.502299964427948,-6.3155999183654785
1702216866865682700,34.0106826171875,1.6461999416351318,0.030499998480081558,-9.512899398803711
1702216866925682700,34.0706826171875,2.944499969482422,-2.013200044631958,-8.826199531555176
1702216866985682700,34.1306826171875,3.187199831008911,-1.3518999814987183,-6.0615997314453125
1702216867045682700,34.1906826171875,-1.0052999258041382,-5.435499668121338,-6.205699920654297
1702216867105682700,34.2506826171875,-0.5358999967575073,-5.966799736022949,-3.2020998001098633
1702216867165682700,34.3106826171875,1.9709999561309814,-4.428899765014648,1.4103999137878418
1702216867225682700,34.3706826171875,2.0190999507904053,-4.317500114440918,4.499799728393555
1702216867285682700,34.4306826171875,1.1617000102996826,-4.746399879455566,5.315199851989746
1702216867345682700,34.4906826171875,1.2907999753952026,-4.835899829864502,6.140100002288818
1702216867405682700,34.5506826171875,0.949999988079071,-4.0416998863220215,8.191299438476562
1702216867465682700,34.6106826171875,-0.42819997668266296,-4.644099712371826,8.748099327087402
1702216867525682700,34.6706826171875,-2.9696998596191406,-4.719899654388428,8.527999877929688
1702216867585682700,34.7306826171875,-2.9117000102996826,-8.111199378967285,3.9861998558044434
1702216867645682700,34.7906826171875,-0.9932000041007996,-7.474799633026123,2.5277998447418213
1702216867705682700,34.8506826171875,0.8513000011444092,-3.426100015640259,1.590999960899353
1702216867765682700,34.9106826171875,-0.5848999619483948,-1.8138999938964844,-0.8892999887466431
1702216867825682700,34.9706826171875,0.5055999755859375,-3.84909987449646,-3.2597999572753906
1702216867885682700,35.0306826171875,2.7711000442504883,-3.496500015258789,-7.925899982452393
1702216867945682700,35.0906826171875,4.882899761199951,-0.2078000009059906,-8.372300148010254
1702216868005709300,35.15070922851562,3.034600019454956,0.21570000052452087,-11.453899383544922
1702216868065682700,35.2106826171875,2.0070998668670654,-0.9228999614715576,-10.638899803161621
1702216868125682700,35.2706826171875,2.719599962234497,-2.1347999572753906,-10.238399505615234
1702216868185682700,35.3306826171875,0.6523000001907349,-3.7881999015808105,-5.767099857330322
1702216868245682700,35.3906826171875,-2.1231000423431396,-6.745299816131592,-5.295499801635742
1702216868305682700,35.4506826171875,1.393899917602539,-5.267199993133545,-0.5587999820709229
1702216868365682700,35.5106826171875,1.9893999099731445,-5.082299709320068,3.151599884033203
1702216868425682700,35.5706826171875,0.6428999900817871,-6.302499771118164,5.2820000648498535
1702216868485682700,35.6306826171875,0.9101999998092651,-5.976799964904785,7.131399631500244
1702216868545682700,35.6906826171875,1.6083999872207642,-4.243299961090088,8.96500015258789
1702216868605682700,35.7506826171875,0.4958999752998352,-4.119800090789795,8.553999900817871
1702216868665682700,35.8106826171875,-2.9378998279571533,-4.2052998542785645,8.1097993850708
1702216868725682700,35.8706826171875,-3.025399923324585,-8.608200073242188,5.0777997970581055
1702216868785682700,35.9306826171875,-0.42239999771118164,-7.4293999671936035,3.625499963760376
1702216868845682700,35.9906826171875,1.0342999696731567,-3.7789998054504395,2.974400043487549
1702216868905682700,36.0506826171875,-0.7206999659538269,-2.9214999675750732,0.8065999746322632
1702216868965682700,36.1106826171875,-0.33799999952316284,-3.249300003051758,-2.6922998428344727
1702216869025682700,36.1706826171875,2.115799903869629,-3.658099889755249,-7.377899646759033
1702216869085682700,36.2306826171875,4.866699695587158,-2.4114999771118164,-9.109899520874023
1702216869145682700,36.2906826171875,4.313699722290039,-1.2760999202728271,-13.055699348449707
1702216869205682700,36.3506826171875,2.8770999908447266,-1.7086999416351318,-11.60409927368164
1702216869265682700,36.4106826171875,2.5204999446868896,-0.6532999873161316,-9.101200103759766
1702216869325682700,36.4706826171875,-0.186599999666214,-5.509699821472168,-7.358599662780762
1702216869385682700,36.5306826171875,-2.104099988937378,-8.203100204467773,-5.313799858093262
1702216869445682700,36.5906826171875,1.6495000123977661,-6.580100059509277,-0.10080000013113022
1702216869505682700,36.6506826171875,1.7763999700546265,-5.949199676513672,3.6129000186920166
1702216869565709300,36.710709228515626,1.2077999114990234,-6.159800052642822,5.330999851226807
1702216869625682700,36.7706826171875,1.0993000268936157,-5.472799777984619,7.739299774169922
1702216869685682700,36.8306826171875,1.2323999404907227,-4.646199703216553,9.6003999710083
1702216869745682700,36.8906826171875,0.7098999619483948,-4.724400043487549,9.30989933013916
1702216869805682700,36.9506826171875,1.0152000188827515,-4.4567999839782715,8.917799949645996
1702216869865682700,37.0106826171875,-3.4716999530792236,-7.275899887084961,4.17519998550415
1702216869925682700,37.0706826171875,-1.3839999437332153,-7.2941999435424805,3.4268999099731445
1702216869985682700,37.1306826171875,1.390299916267395,-4.971199989318848,1.4196999073028564
1702216870045682700,37.1906826171875,-0.7847999930381775,-2.6327998638153076,-1.5276999473571777
1702216870105709300,37.250709228515625,-1.9498999118804932,-1.0670000314712524,-3.4129998683929443
1702216870165682700,37.3106826171875,1.0993999242782593,-2.1236000061035156,-6.147599697113037
1702216870225682700,37.3706826171875,3.232999801635742,-0.7906999588012695,-6.213099956512451
1702216870285682700,37.4306826171875,1.9600999355316162,-1.723599910736084,-9.65369987487793
1702216870345682700,37.4906826171875,2.209399938583374,-0.7069999575614929,-7.62369966506958
1702216870405682700,37.5506826171875,2.901899814605713,-0.9023999571800232,-7.639099597930908
1702216870465682700,37.6106826171875,2.519700050354004,-2.6125998497009277,-6.674900054931641
1702216870525682700,37.6706826171875,-0.9728999733924866,-7.662499904632568,-6.770400047302246
1702216870585682700,37.7306826171875,1.5227999687194824,-4.764100074768066,-1.9506999254226685
1702216870645682700,37.7906826171875,2.5418999195098877,-3.3309998512268066,2.0660998821258545
1702216870705682700,37.8506826171875,1.2108999490737915,-3.7919998168945312,4.703499794006348
1702216870765682700,37.9106826171875,0.3869999945163727,-4.679100036621094,4.990699768066406
1702216870825681200,37.97068115234375,1.827199935913086,-3.7816998958587646,7.008999824523926
1702216870885682700,38.0306826171875,3.39739990234375,-3.798099994659424,8.611299514770508
1702216870945682700,38.0906826171875,-0.49449998140335083,-5.6026997566223145,7.947099685668945
1702216871005682700,38.1506826171875,-0.05179999768733978,-6.906799793243408,5.075399875640869
1702216871065682700,38.2106826171875,-0.8935999870300293,-5.680699825286865,4.591700077056885
1702216871125682700,38.2706826171875,-0.027699999511241913,-2.770599842071533,4.427599906921387
1702216871185682700,38.3306826171875,-0.5464000105857849,-1.8095999956130981,2.2929999828338623
1702216871245682700,38.3906826171875,-1.3833999633789062,-1.8430999517440796,0.027300000190734863
1702216871305682700,38.4506826171875,0.3109999895095825,-3.2739999294281006,-4.332600116729736
1702216871365682700,38.5106826171875,1.8722999095916748,-2.2555999755859375,-9.028299331665039
1702216871425682700,38.5706826171875,3.770900011062622,0.0005999999702908099,-6.402799606323242
1702216871485682700,38.6306826171875,3.0062999725341797,1.2168999910354614,-6.1641998291015625
1702216871545682700,38.6906826171875,3.6545000076293945,-1.5477999448776245,-9.085100173950195
1702216871605682700,38.7506826171875,4.22760009765625,-3.022199869155884,-10.244199752807617
1702216871665682700,38.8106826171875,0.9010999798774719,-7.011199951171875,-6.60099983215332
1702216871725682700,38.8706826171875,-0.2450999915599823,-7.261999607086182,-2.94789981842041
1702216871785682700,38.9306826171875,1.8646999597549438,-4.9467997550964355,1.1068999767303467
1702216871845682700,38.9906826171875,0.5667999982833862,-5.164299964904785,4.270699977874756
1702216871905682700,39.0506826171875,-1.4312999248504639,-5.196899890899658,5.483299732208252
1702216871965682700,39.1106826171875,0.21229998767375946,-3.266199827194214,7.734499931335449
1702216872025682700,39.1706826171875,-0.37700000405311584,-2.766199827194214,10.320199966430664
1702216872085682700,39.2306826171875,-0.6265999674797058,-3.769899845123291,8.37559986114502
1702216872145682700,39.2906826171875,-3.1857998371124268,-6.36959981918335,7.313499927520752
1702216872205709300,39.350709228515626,-0.4795999825000763,-6.711599826812744,5.673999786376953
1702216872265682700,39.4106826171875,-1.482800006866455,-6.7418999671936035,2.9612998962402344
1702216872325682700,39.4706826171875,-0.3005000054836273,-4.94819974899292,1.5976999998092651
1702216872385682700,39.5306826171875,0.7590999603271484,-2.5428998470306396,-0.3416000008583069
1702216872445682700,39.5906826171875,1.6868999004364014,-2.6676998138427734,-2.6140999794006348
1702216872505682700,39.6506826171875,1.983799934387207,-2.0016000270843506,-5.090699672698975
1702216872565682700,39.7106826171875,3.132200002670288,-1.010599970817566,-6.58329963684082
1702216872625682700,39.7706826171875,4.491699695587158,-0.5823999643325806,-9.132999420166016
1702216872685682700,39.8306826171875,2.904399871826172,-2.6796000003814697,-8.650099754333496
1702216872745682700,39.8906826171875,2.4502999782562256,-3.060999870300293,-8.754599571228027
1702216872805682700,39.9506826171875,3.422499895095825,-0.5504999756813049,-4.206099987030029
1702216872865682700,40.0106826171875,-1.9115999937057495,-4.150899887084961,-4.083199977874756
1702216872925682700,40.0706826171875,-3.1865999698638916,-4.956500053405762,-3.581699848175049
1702216872985682700,40.1306826171875,-0.5256999731063843,-3.1315999031066895,1.4164999723434448
1702216873045682700,40.1906826171875,1.5169999599456787,-3.8065998554229736,3.473599910736084
1702216873105682700,40.2506826171875,0.6807000041007996,-4.015399932861328,5.173399925231934
1702216873165682700,40.3106826171875,0.4105999767780304,-3.686999797821045,6.667599678039551
1702216873225682700,40.3706826171875,0.1476999968290329,-3.5593998432159424,9.161699295043945
1702216873285682700,40.4306826171875,-1.4472999572753906,-4.80649995803833,8.715799331665039
1702216873345682700,40.4906826171875,-1.8193999528884888,-5.983399868011475,7.043099880218506
1702216873405682700,40.5506826171875,-2.0220999717712402,-7.9751996994018555,3.7214999198913574
1702216873465682700,40.6106826171875,0.5649999976158142,-5.4203996658325195,3.1813998222351074
1702216873525682700,40.6706826171875,-0.1103999987244606,-1.5398999452590942,1.7441999912261963
1702216873585682700,40.7306826171875,-0.8041999936103821,-0.6995999813079834,-0.3464999794960022
1702216873645682700,40.7906826171875,0.08449999988079071,-2.746999979019165,-2.900399923324585
1702216873705682700,40.8506826171875,3.076200008392334,-3.3862998485565186,-5.948899745941162
1702216873765682700,40.9106826171875,4.607500076293945,-0.8008999824523926,-7.353099822998047
1702216873825682700,40.9706826171875,2.1196000576019287,-1.3310999870300293,-9.764999389648438
1702216873885682700,41.0306826171875,3.0532000064849854,-2.2072999477386475,-9.951700210571289
1702216873945682700,41.0906826171875,3.0384998321533203,-0.5857999920845032,-8.981900215148926
1702216874005682700,41.1506826171875,1.0770000219345093,-4.83459997177124,-6.122799873352051
1702216874065682700,41.2106826171875,-1.0857999324798584,-6.256099700927734,-4.994999885559082
1702216874125682700,41.2706826171875,0.91839998960495,-5.172399997711182,-0.6035999655723572
1702216874185682700,41.3306826171875,1.7740999460220337,-4.344599723815918,2.6066999435424805
1702216874245682700,41.3906826171875,1.674399971961975,-4.238399982452393,4.499000072479248
1702216874305709300,41.45070922851563,1.2450000047683716,-4.932699680328369,5.132599830627441
1702216874365682700,41.5106826171875,-0.08339999616146088,-5.71019983291626,6.032299995422363
1702216874425682700,41.5706826171875,0.08549999445676804,-4.214200019836426,8.31879997253418
1702216874485682700,41.6306826171875,-0.18930000066757202,-5.427799701690674,7.9853997230529785
1702216874545682700,41.6906826171875,-0.710599958896637,-5.1250996589660645,8.33389949798584
1702216874605682700,41.7506826171875,-1.5473999977111816,-6.206500053405762,7.512199878692627
1702216874665682700,41.8106826171875,-1.1292999982833862,-5.857800006866455,4.246099948883057
1702216874725682700,41.8706826171875,-2.892899990081787,-3.9550998210906982,0.002099999925121665
1702216874785682700,41.9306826171875,-0.7300999760627747,-3.7131998538970947,-6.422299861907959
1702216874845682700,41.9906826171875,2.5423998832702637,-2.8300998210906982,-6.832599639892578
1702216874905682700,42.0506826171875,3.3620998859405518,-1.121399998664856,-5.564199924468994
1702216874965682700,42.1106826171875,1.3083000183105469,-1.6507999897003174,-13.563300132751465
1702216875025682700,42.1706826171875,1.7829999923706055,-3.2200000286102295,-10.614799499511719
1702216875085682700,42.2306826171875,2.2993998527526855,-2.7107999324798584,-8.258199691772461
1702216875145682700,42.2906826171875,0.05769999697804451,-3.541299819946289,-7.069999694824219
1702216875205682700,42.3506826171875,-0.7039999961853027,-6.539700031280518,-4.807300090789795
1702216875265682700,42.4106826171875,-1.3640999794006348,-5.599099636077881,-0.6347000002861023
1702216875325682700,42.4706826171875,1.1001999378204346,-4.770199775695801,2.5685999393463135
1702216875385682700,42.5306826171875,1.9169999361038208,-5.069900035858154,5.319599628448486
1702216875445682700,42.5906826171875,2.404599905014038,-5.601199626922607,6.535899639129639
1702216875505682700,42.6506826171875,3.1510000228881836,-4.4390997886657715,9.223599433898926
1702216875565682700,42.7106826171875,2.5053999423980713,-6.3954997062683105,11.025400161743164
1702216875625682700,42.7706826171875,-1.2383999824523926,-8.158699989318848,6.735599994659424
1702216875685682700,42.8306826171875,-1.2609000205993652,-7.571199893951416,6.198599815368652
1702216875745682700,42.8906826171875,0.008599999360740185,-6.30049991607666,3.578699827194214
1702216875805682700,42.9506826171875,-0.36249998211860657,-3.094599962234497,1.6121000051498413
1702216875865682700,43.0106826171875,0.5285999774932861,-2.2822999954223633,-0.311599999666214
1702216875925682700,43.0706826171875,0.8723999857902527,-2.046299934387207,-4.410299777984619
1702216875985682700,43.1306826171875,2.2699999809265137,-2.6236000061035156,-9.816800117492676
1702216876045682700,43.1906826171875,1.584299921989441,-1.972999930381775,-10.75059986114502
1702216876105682700,43.2506826171875,3.9027998447418213,-2.387699842453003,-10.710299491882324
1702216876165682700,43.3106826171875,2.725800037384033,-0.7062999606132507,-11.51569938659668
1702216876225682700,43.3706826171875,1.6042999029159546,-3.961699962615967,-5.900699615478516
1702216876285682700,43.4306826171875,-1.161199927330017,-7.86959981918335,-6.836799621582031
1702216876345682700,43.4906826171875,0.18850000202655792,-5.994699954986572,-1.9869999885559082
1702216876405709300,43.55070922851562,1.1347999572753906,-4.901299953460693,2.3295998573303223
1702216876465682700,43.6106826171875,0.7789999842643738,-4.554999828338623,5.181299686431885
1702216876525682700,43.6706826171875,0.864799976348877,-4.383599758148193,5.980000019073486
1702216876585682700,43.7306826171875,2.1255998611450195,-3.134500026702881,8.940899848937988
1702216876645682700,43.7906826171875,1.1916999816894531,-4.242099761962891,10.147199630737305
1702216876705682700,43.8506826171875,-0.04490000009536743,-5.775599956512451,8.867799758911133
1702216876765682700,43.9106826171875,-1.8621000051498413,-6.637699604034424,5.286599636077881
1702216876825682700,43.9706826171875,-3.48009991645813,-8.64699935913086,3.3949999809265137
1702216876885682700,44.0306826171875,-0.00989999994635582,-6.903499603271484,2.297499895095825
1702216876945682700,44.0906826171875,1.7409999370574951,-3.6882998943328857,0.8050000071525574
1702216877005682700,44.1506826171875,0.5911999940872192,-2.495499849319458,-1.817199945449829
1702216877065682700,44.2106826171875,1.1401000022888184,-3.3640999794006348,-5.2677998542785645
1702216877125682700,44.2706826171875,4.013799667358398,-1.439099907875061,-8.0802001953125
1702216877185682700,44.3306826171875,5.249300003051758,0.41659998893737793,-8.424099922180176
1702216877245682700,44.3906826171875,1.580299973487854,-0.23629999160766602,-10.828800201416016
1702216877305682700,44.4506826171875,2.4776999950408936,-0.7062999606132507,-7.913399696350098
1702216877365682700,44.5106826171875,1.403499960899353,-3.2779998779296875,-9.891399383544922
1702216877425682700,44.5706826171875,-0.6916999816894531,-6.675999641418457,-6.0904998779296875
1702216877485682700,44.6306826171875,-1.2490999698638916,-7.301799774169922,-2.6858999729156494
1702216877545682700,44.6906826171875,0.8664999604225159,-5.200999736785889,0.5753999948501587
1702216877605682700,44.7506826171875,1.1065000295639038,-4.824699878692627,3.237299919128418
1702216877665682700,44.8106826171875,0.8388999700546265,-5.287399768829346,4.721199989318848
1702216877725682700,44.8706826171875,0.4267999827861786,-5.415999889373779,5.525000095367432
1702216877785682700,44.9306826171875,0.7519999742507935,-5.380699634552002,9.18079948425293
1702216877845682700,44.9906826171875,-0.674299955368042,-3.3611998558044434,9.981499671936035
1702216877905682700,45.0506826171875,-1.167099952697754,-4.252200126647949,9.446199417114258
1702216877965682700,45.1106826171875,-2.5662999153137207,-7.830799579620361,6.026000022888184
1702216878025681200,45.17068115234375,-1.7985999584197998,-9.148200035095215,3.4308998584747314
1702216878085682700,45.2306826171875,0.32170000672340393,-7.82729959487915,2.3427999019622803
1702216878145682700,45.2906826171875,0.713699996471405,-5.445399761199951,0.14159999787807465
1702216878205682700,45.3506826171875,0.965999960899353,-4.267600059509277,-2.81469988822937
1702216878265682700,45.4106826171875,1.5677999258041382,-2.8522000312805176,-8.45009994506836
1702216878325682700,45.4706826171875,4.618599891662598,-0.21169999241828918,-9.20949935913086
1702216878385682700,45.5306826171875,4.427799701690674,2.0932998657226562,-9.812299728393555
1702216878445682700,45.5906826171875,2.195499897003174,0.5156999826431274,-11.14009952545166
1702216878505709300,45.65070922851562,2.4644999504089355,-0.2920999825000763,-8.953800201416016
1702216878565682700,45.7106826171875,1.921199917793274,-1.2207000255584717,-5.954799652099609
1702216878625682700,45.7706826171875,-1.1883999109268188,-5.918099880218506,-9.55679988861084
1702216878685682700,45.8306826171875,-1.257699966430664,-10.581299781799316,-4.578000068664551
1702216878745682700,45.8906826171875,-0.7250999808311462,-8.982500076293945,-0.8055999875068665
1702216878805682700,45.9506826171875,0.23169998824596405,-6.558499813079834,3.160399913787842
1702216878865682700,46.0106826171875,-0.46629998087882996,-6.2546000480651855,6.368799686431885
1702216878925682700,46.0706826171875,-0.38670000433921814,-5.752999782562256,7.634599685668945
1702216878985682700,46.1306826171875,-0.7437999844551086,-3.1384999752044678,11.705199241638184
1702216879045682700,46.1906826171875,-3.168099880218506,-5.444599628448486,10.710700035095215
1702216879105682700,46.2506826171875,-2.285399913787842,-6.181699752807617,9.893099784851074
1702216879165682700,46.3106826171875,-3.830699920654297,-10.855499267578125,5.46999979019165
1702216879225682700,46.3706826171875,-2.8959999084472656,-9.563899993896484,2.085599899291992
1702216879285682700,46.4306826171875,-1.157599925994873,-8.46619987487793,-0.5437999963760376
1702216879345682700,46.4906826171875,0.3042999804019928,-3.9761998653411865,-2.5630998611450195
1702216879405682700,46.5506826171875,0.6992999911308289,-2.022199869155884,-4.048999786376953
1702216879465682700,46.6106826171875,2.142199993133545,-0.599299967288971,-4.423799991607666
1702216879525682700,46.6706826171875,4.433399677276611,0.640999972820282,-5.223799705505371
1702216879585682700,46.7306826171875,4.3441996574401855,1.0195000171661377,-7.365099906921387
1702216879645682700,46.7906826171875,3.2555999755859375,-0.9569000005722046,-10.28339958190918
1702216879705682700,46.8506826171875,3.11329984664917,-1.5252000093460083,-8.735099792480469
1702216879765682700,46.9106826171875,1.541599988937378,-2.4574999809265137,-9.563499450683594
1702216879825682700,46.9706826171875,-0.011399999260902405,-4.153299808502197,-5.8566999435424805
1702216879885682700,47.0306826171875,-2.0434000492095947,-7.120499610900879,-3.623999834060669
1702216879945682700,47.0906826171875,-0.37379997968673706,-5.9452996253967285,-0.6000999808311462
1702216880005682700,47.1506826171875,0.07859999686479568,-5.152400016784668,2.710599899291992
1702216880065682700,47.2106826171875,-0.6431999802589417,-5.026199817657471,5.124000072479248
1702216880125682700,47.2706826171875,-0.558899998664856,-4.46619987487793,7.634399890899658
1702216880185682700,47.3306826171875,-0.4755999743938446,-2.902599811553955,9.715099334716797
1702216880245682700,47.3906826171875,-1.7726999521255493,-2.731099843978882,9.513400077819824
1702216880305682700,47.4506826171875,-2.9661998748779297,-4.6890997886657715,8.279099464416504
1702216880365682700,47.5106826171875,-1.8940999507904053,-8.169099807739258,6.565999984741211
1702216880425682700,47.5706826171875,-1.6338999271392822,-9.194099426269531,1.3181999921798706
1702216880485682700,47.6306826171875,-1.9431999921798706,-7.223899841308594,-0.6211999654769897
1702216880545682700,47.6906826171875,0.09470000118017197,-3.0381999015808105,-2.0566999912261963
1702216880605709300,47.750709228515625,1.0541999340057373,-1.5197999477386475,-2.0680999755859375
1702216880665682700,47.8106826171875,0.8163999915122986,-1.4286999702453613,-3.908399820327759
1702216880725682700,47.8706826171875,3.115499973297119,1.4830999374389648,-3.4709999561309814
1702216880785682700,47.9306826171875,1.406999945640564,3.0683999061584473,-4.435299873352051
1702216880845682700,47.9906826171875,-2.003499984741211,-0.2662000060081482,-10.195199966430664
1702216880905682700,48.0506826171875,1.87909996509552,-0.46549999713897705,-9.679499626159668
1702216880965682700,48.1106826171875,3.3208999633789062,-0.4592999815940857,-6.961199760437012
1702216881025682700,48.1706826171875,-0.7491999864578247,-1.3569999933242798,-9.553500175476074
1702216881085682700,48.2306826171875,-0.2671000063419342,-3.281399965286255,-5.513299942016602
1702216881145682700,48.2906826171875,1.2669999599456787,-5.996399879455566,-3.868799924850464
1702216881205682700,48.3506826171875,3.257200002670288,-7.451999664306641,-2.0012998580932617
1702216881265682700,48.4106826171875,4.151299953460693,-7.754499912261963,1.6525999307632446
1702216881325682700,48.4706826171875,3.1392998695373535,-6.905299663543701,5.515699863433838
1702216881385682700,48.5306826171875,-0.5309000015258789,-6.605899810791016,7.664499759674072
1702216881445682700,48.5906826171875,-4.3471999168396,-5.00439977645874,8.82979965209961
1702216881505682700,48.6506826171875,-2.929800033569336,-6.967599868774414,7.674899578094482
1702216881565682700,48.7106826171875,-1.9529999494552612,-6.809599876403809,7.8048996925354
1702216881625682700,48.7706826171875,-0.3495999872684479,-4.876999855041504,6.9440999031066895
1702216881685682700,48.8306826171875,-1.555899977684021,-2.6136999130249023,6.607699871063232
1702216881745682700,48.8906826171875,-0.12389999628067017,-3.956199884414673,2.5295000076293945
1702216881805682700,48.9506826171875,2.537600040435791,-4.289299964904785,-5.910699844360352
1702216881865682700,49.0106826171875,2.3339998722076416,-2.450700044631958,-9.34369945526123
1702216881925682700,49.0706826171875,1.28249990940094,-0.3369999825954437,-9.179900169372559
1702216881985682700,49.1306826171875,1.2560999393463135,-0.19769999384880066,-8.480899810791016
1702216882045682700,49.1906826171875,1.9174998998641968,0.3642999827861786,-13.366600036621094
1702216882105682700,49.2506826171875,1.9808999300003052,-2.253700017929077,-6.9766998291015625
1702216882165682700,49.3106826171875,0.682699978351593,-3.523099899291992,-4.0329999923706055
1702216882225682700,49.3706826171875,0.4869999885559082,-3.849900007247925,-2.032599925994873
1702216882285682700,49.4306826171875,2.0367000102996826,-4.392499923706055,0.2604999840259552
1702216882345682700,49.4906826171875,2.4027998447418213,-4.491099834442139,2.899099826812744
1702216882405682700,49.5506826171875,1.9199999570846558,-4.496799945831299,4.536099910736084
1702216882465682700,49.6106826171875,1.4315999746322632,-4.614699840545654,5.5717997550964355
1702216882525682700,49.6706826171875,1.2892999649047852,-2.063999891281128,9.204899787902832
1702216882585682700,49.7306826171875,-1.548699975013733,-3.1245999336242676,8.9576997756958
1702216882645682700,49.7906826171875,-1.368299961090088,-6.380499839782715,6.49429988861084
1702216882705709300,49.850709228515626,-3.424999952316284,-8.219099998474121,2.346400022506714
1702216882765682700,49.9106826171875,0.18629999458789825,-6.39709997177124,1.9189999103546143
1702216882825682700,49.9706826171875,2.163800001144409,-3.315999984741211,0.8989999890327454
1702216882885682700,50.0306826171875,3.0790998935699463,-2.0035998821258545,-2.2744998931884766
1702216882945682700,50.0906826171875,2.7575998306274414,0.37119999527931213,-3.86329984664917
1702216883005682700,50.1506826171875,1.7721999883651733,0.8244999647140503,-5.652499675750732
1702216883065682700,50.2106826171875,-0.2757999897003174,-1.1158000230789185,-10.44320011138916
1702216883125682700,50.2706826171875,0.4967999756336212,-3.972099781036377,-11.507499694824219
1702216883185682700,50.3306826171875,-1.4108999967575073,0.6344999670982361,-6.627599716186523
1702216883245682700,50.3906826171875,-1.9005999565124512,-2.1243999004364014,-5.348399639129639
1702216883305682700,50.4506826171875,-1.4032999277114868,-3.25819993019104,-4.695399761199951
1702216883365682700,50.5106826171875,1.4634000062942505,-3.1545000076293945,-0.7696999907493591
1702216883425682700,50.5706826171875,1.8914999961853027,-3.7163000106811523,2.1608998775482178
1702216883485682700,50.6306826171875,1.742900013923645,-3.731799840927124,3.416599988937378
1702216883545682700,50.6906826171875,2.0987000465393066,-4.254899978637695,4.289299964904785
1702216883605682700,50.7506826171875,2.636899948120117,-6.0278000831604,5.34559965133667
1702216883665682700,50.8106826171875,2.279899835586548,-4.29640007019043,6.715099811553955
1702216883725682700,50.8706826171875,0.7523999810218811,-4.1605000495910645,9.424300193786621
1702216883785682700,50.9306826171875,-1.9743999242782593,-6.339799880981445,5.922399997711182
1702216883845682700,50.9906826171875,-2.773900032043457,-4.957399845123291,4.095999717712402
1702216883905682700,51.0506826171875,-0.005499999970197678,-3.54229998588562,2.784299850463867
1702216883965682700,51.1106826171875,-0.32659998536109924,-1.7755999565124512,-0.14739999175071716
1702216884025682700,51.1706826171875,-0.3330000042915344,-1.5858999490737915,-2.9582998752593994
1702216884085682700,51.2306826171875,0.5449000000953674,-1.208299994468689,-6.594699859619141
1702216884145682700,51.2906826171875,1.115399956703186,-0.39989998936653137,-10.22719955444336
1702216884205682700,51.3506826171875,0.3427000045776367,0.5618000030517578,-11.568699836730957
1702216884265682700,51.4106826171875,1.5083999633789062,1.2242000102996826,-8.33489990234375
1702216884325682700,51.4706826171875,1.8603999614715576,-1.6136000156402588,-9.7568998336792
1702216884385682700,51.5306826171875,0.24149999022483826,-6.062699794769287,-7.128900051116943
1702216884445682700,51.5906826171875,0.02199999988079071,-8.9128999710083,-4.97059965133667
1702216884505682700,51.6506826171875,3.2588999271392822,-6.203999996185303,-0.18129999935626984
1702216884565709300,51.710709228515626,3.354599952697754,-4.852999687194824,3.27020001411438
1702216884625682700,51.7706826171875,1.833899974822998,-5.288700103759766,5.37339973449707
1702216884685682700,51.8306826171875,1.5640000104904175,-4.848700046539307,6.182399749755859
1702216884745682700,51.8906826171875,2.870999813079834,-4.186800003051758,9.207599639892578
1702216884805709300,51.95070922851563,2.499199867248535,-3.8989999294281006,9.124199867248535
1702216884865682700,52.0106826171875,0.42089998722076416,-5.399199962615967,7.519199848175049
1702216884925682700,52.0706826171875,-2.674499988555908,-6.208399772644043,6.63599967956543
1702216884985710800,52.1307109375,-2.9528000354766846,-8.213899612426758,2.3603999614715576
1702216885045682700,52.1906826171875,-1.2070000171661377,-6.125999927520752,2.1389000415802
1702216885105682700,52.2506826171875,0.3173999786376953,-3.4286999702453613,0.5622000098228455
1702216885165682700,52.3106826171875,-0.5403000116348267,-2.2005999088287354,-2.2951998710632324
1702216885225682700,52.3706826171875,-0.3797999918460846,-1.858299970626831,-5.62969970703125
1702216885285682700,52.4306826171875,2.1106998920440674,-0.6444999575614929,-7.361599922180176
1702216885345682700,52.4906826171875,2.9584999084472656,-0.3360999822616577,-8.940799713134766
1702216885405682700,52.5506826171875,2.448499917984009,-0.62909996509552,-12.276199340820312
1702216885465682700,52.6106826171875,2.236299991607666,-2.8225998878479004,-10.434800148010254
1702216885525682700,52.6706826171875,2.3770999908447266,-2.498199939727783,-7.72029972076416
1702216885585682700,52.7306826171875,1.0157999992370605,-4.495199680328369,-4.547299861907959
1702216885645682700,52.7906826171875,-0.5153999924659729,-5.489599704742432,-2.908799886703491
1702216885705682700,52.8506826171875,0.7892999649047852,-5.516599655151367,-0.1703999936580658
1702216885765682700,52.9106826171875,1.3425999879837036,-5.139100074768066,2.700000047683716
1702216885825682700,52.9706826171875,2.029599905014038,-4.813600063323975,4.552700042724609
1702216885885682700,53.0306826171875,2.216099977493286,-5.372799873352051,5.818999767303467
1702216885945682700,53.0906826171875,2.089099884033203,-4.715099811553955,7.662399768829346
1702216886005682700,53.1506826171875,1.4527000188827515,-4.222799777984619,8.152400016784668
1702216886065682700,53.2106826171875,-0.5701999664306641,-4.339799880981445,9.493999481201172
1702216886125682700,53.2706826171875,-0.5047000050544739,-7.496999740600586,5.886499881744385
1702216886185681200,53.33068115234375,-1.5231000185012817,-6.856299877166748,3.9530999660491943
1702216886245682700,53.3906826171875,0.5662999749183655,-4.71589994430542,2.0292999744415283
1702216886305682700,53.4506826171875,0.4733999967575073,-3.347599983215332,0.08569999784231186
1702216886365682700,53.5106826171875,-0.22989998757839203,-3.0214998722076416,-4.165599822998047
1702216886425682700,53.5706826171875,0.002099999925121665,-2.22409987449646,-8.026100158691406
1702216886485682700,53.6306826171875,0.771399974822998,-1.4614999294281006,-10.551499366760254
1702216886545682700,53.6906826171875,-0.6794999837875366,-0.16769999265670776,-13.09630012512207
1702216886605682700,53.7506826171875,-1.2336000204086304,-0.9101999998092651,-10.830299377441406
1702216886665682700,53.8106826171875,-0.029399998486042023,-0.7554999589920044,-10.314000129699707
1702216886725682700,53.8706826171875,-0.21739999949932098,-4.357699871063232,-6.868299961090088
1702216886785682700,53.9306826171875,-1.1936999559402466,-7.0077996253967285,-3.958699941635132
1702216886845682700,53.9906826171875,0.8078999519348145,-7.364899635314941,-2.119799852371216
1702216886905709300,54.05070922851562,2.9458999633789062,-7.169699668884277,1.0261999368667603
1702216886965682700,54.1106826171875,3.3873000144958496,-6.972599983215332,3.7500998973846436
1702216887025682700,54.1706826171875,3.3416998386383057,-5.979599952697754,6.678999900817871
1702216887085682700,54.2306826171875,3.6610000133514404,-4.059299945831299,11.079599380493164
1702216887145682700,54.2906826171875,1.7759000062942505,-3.849599838256836,10.984600067138672
1702216887205682700,54.3506826171875,-1.4182000160217285,-6.809399604797363,9.643699645996094
1702216887265682700,54.4106826171875,-0.7239999771118164,-8.211099624633789,5.724799633026123
1702216887325682700,54.4706826171875,-0.6252999901771545,-8.441900253295898,3.530099868774414
1702216887385682700,54.5306826171875,-0.007899999618530273,-5.955599784851074,2.2274999618530273
1702216887445682700,54.5906826171875,-0.5816999673843384,-4.4268999099731445,-0.5607999563217163
1702216887505682700,54.6506826171875,-1.160099983215332,-4.614999771118164,-4.8805999755859375
1702216887565682700,54.7106826171875,0.2639999985694885,-3.065999984741211,-8.197199821472168
1702216887625682700,54.7706826171875,2.0190999507904053,-0.6380000114440918,-8.207599639892578
1702216887685682700,54.8306826171875,0.5194999575614929,-0.75,-12.074299812316895
1702216887745682700,54.8906826171875,0.5992000102996826,-1.4625999927520752,-13.569799423217773
1702216887805682700,54.9506826171875,0.5351999998092651,-0.7434999942779541,-10.496699333190918
1702216887865682700,55.0106826171875,-0.5446000099182129,-3.961899995803833,-7.522299766540527
1702216887925682700,55.0706826171875,-2.9154000282287598,-8.781599998474121,-6.391599655151367
1702216887985682700,55.1306826171875,0.9244999885559082,-7.422699928283691,-2.4075000286102295
1702216888045682700,55.1906826171875,3.0130999088287354,-6.426300048828125,1.9174000024795532
1702216888105682700,55.2506826171875,2.6644999980926514,-6.495800018310547,4.434499740600586
1702216888165682700,55.3106826171875,2.7042999267578125,-5.899499893188477,5.59060001373291
1702216888225682700,55.3706826171875,4.227399826049805,-3.961099863052368,9.39069938659668
1702216888285682700,55.4306826171875,3.9498000144958496,-3.928799867630005,10.39639949798584
1702216888345682700,55.4906826171875,2.1710000038146973,-5.364699840545654,9.321999549865723
1702216888405682700,55.5506826171875,-0.25949999690055847,-7.655999660491943,7.20959997177124
1702216888465682700,55.6106826171875,-1.9494999647140503,-8.947599411010742,3.9634997844696045
1702216888525682700,55.6706826171875,-0.4253999888896942,-7.156199932098389,3.3999998569488525
1702216888585682700,55.7306826171875,-0.01850000023841858,-5.166100025177002,1.5565999746322632
1702216888645682700,55.7906826171875,-0.5593000054359436,-4.4415998458862305,-1.6750999689102173
1702216888705682700,55.8506826171875,-0.3310000002384186,-4.0594000816345215,-6.46429967880249
1702216888765682700,55.9106826171875,1.1525999307632446,-2.5789999961853027,-9.089799880981445
1702216888825682700,55.9706826171875,1.7034999132156372,-1.4953999519348145,-11.474499702453613
1702216888885682700,56.0306826171875,1.8869999647140503,-1.9068999290466309,-14.02239990234375
1702216888945682700,56.0906826171875,1.7810999155044556,-3.1072998046875,-12.066399574279785
1702216889005709300,56.15070922851562,0.029899999499320984,-2.363100051879883,-10.444199562072754
1702216889065682700,56.2106826171875,-2.2337000370025635,-8.814099311828613,-6.22189998626709
1702216889125682700,56.2706826171875,-2.0551998615264893,-9.616499900817871,-2.9845998287200928
1702216889185682700,56.3306826171875,0.8131999969482422,-8.881099700927734,0.9145999550819397
1702216889245682700,56.3906826171875,0.6571999788284302,-8.026000022888184,4.120199680328369
1702216889305682700,56.4506826171875,0.42649999260902405,-7.900399684906006,6.401700019836426
1702216889365682700,56.5106826171875,2.543099880218506,-4.489099979400635,11.633999824523926
1702216889425682700,56.5706826171875,2.385200023651123,-2.50219988822937,12.386099815368652
1702216889485682700,56.6306826171875,1.7404999732971191,-4.531799793243408,11.256599426269531
1702216889545682700,56.6906826171875,-1.121899962425232,-7.823899745941162,8.454999923706055
1702216889605682700,56.7506826171875,-0.840399980545044,-8.761099815368652,3.5642998218536377
1702216889665682700,56.8106826171875,-2.2177000045776367,-8.205699920654297,1.9577999114990234
1702216889725682700,56.8706826171875,-0.9799000024795532,-6.409499645233154,1.2999999523162842
1702216889785682700,56.9306826171875,-0.10179999470710754,-4.499000072479248,-0.6635000109672546
1702216889845682700,56.9906826171875,0.559499979019165,-3.517199993133545,-3.450899839401245
1702216889905682700,57.0506826171875,1.813099980354309,-3.088099956512451,-5.914499759674072
1702216889965682700,57.1106826171875,3.8080999851226807,-0.8531999588012695,-6.600499629974365
1702216890025682700,57.1706826171875,4.236700057983398,0.24069999158382416,-7.496699810028076
1702216890085682700,57.2306826171875,3.2386999130249023,-1.0782999992370605,-12.723099708557129
1702216890145682700,57.2906826171875,1.9060999155044556,-2.567199945449829,-11.533499717712402
1702216890205682700,57.3506826171875,1.8874999284744263,-2.6215999126434326,-8.736299514770508
1702216890265682700,57.4106826171875,-0.14429999887943268,-6.567699909210205,-7.028199672698975
1702216890325682700,57.4706826171875,-1.5526999235153198,-9.383899688720703,-4.34119987487793
1702216890385682700,57.5306826171875,1.4124000072479248,-7.349699974060059,-0.31929999589920044
1702216890445682700,57.5906826171875,1.808899998664856,-6.401399612426758,3.1751999855041504
1702216890505682700,57.6506826171875,1.4526000022888184,-6.06119966506958,5.606800079345703
1702216890565682700,57.7106826171875,1.9127999544143677,-4.609399795532227,7.758999824523926
1702216890625682700,57.7706826171875,1.7465999126434326,-3.4522998332977295,10.4931001663208
1702216890685682700,57.8306826171875,0.8186999559402466,-3.9761998653411865,10.314599990844727
1702216890745682700,57.8906826171875,-1.3072999715805054,-6.456299781799316,7.513700008392334
1702216890805682700,57.9506826171875,-1.4050999879837036,-7.342099666595459,5.998499870300293
1702216890865682700,58.0106826171875,-0.9217999577522278,-8.15369987487793,3.3352999687194824
1702216890925682700,58.0706826171875,-1.1710000038146973,-5.714399814605713,1.4103000164031982
1702216890985682700,58.1306826171875,-0.6299999952316284,-3.1340999603271484,-0.7505999803543091
1702216891045682700,58.1906826171875,0.5842999815940857,-3.053299903869629,-2.682799816131592
1702216891105709300,58.250709228515625,1.8265999555587769,-2.76419997215271,-3.1512999534606934
1702216891165682700,58.3106826171875,1.1603000164031982,-1.837999939918518,-6.863100051879883
1702216891225682700,58.3706826171875,1.4234999418258667,-3.3787999153137207,-13.58739948272705
1702216891285682700,58.4306826171875,3.049099922180176,-2.2532999515533447,-10.716499328613281
1702216891345682700,58.4906826171875,1.584399938583374,-0.7285999655723572,-10.021900177001953
1702216891405682700,58.5506826171875,-0.9440999627113342,-6.218899726867676,-9.486700057983398
1702216891465682700,58.6106826171875,-0.409199982881546,-8.54539966583252,-4.677099704742432
1702216891525682700,58.6706826171875,0.9316999912261963,-6.177099704742432,-0.13840000331401825
1702216891585682700,58.7306826171875,1.5302999019622803,-5.796199798583984,3.0966999530792236
1702216891645682700,58.7906826171875,1.0764999389648438,-5.950399875640869,4.838500022888184
1702216891705682700,58.8506826171875,1.406499981880188,-5.457900047302246,6.200900077819824
1702216891765682700,58.9106826171875,3.381500005722046,-4.355499744415283,10.17710018157959
1702216891825682700,58.9706826171875,1.8708999156951904,-4.190199851989746,11.203700065612793
1702216891885682700,59.0306826171875,0.24819999933242798,-5.97059965133667,9.533599853515625
1702216891945682700,59.0906826171875,-1.990799903869629,-7.828199863433838,5.045799732208252
1702216892005682700,59.1506826171875,-2.7037999629974365,-7.090399742126465,2.713899850845337
1702216892065682700,59.2106826171875,-0.46879997849464417,-4.497099876403809,3.264400005340576
1702216892125682700,59.2706826171875,-2.4781999588012695,-2.6763999462127686,0.2450999915599823
1702216892185682700,59.3306826171875,0.30699998140335083,-3.0311999320983887,-0.9558999538421631
1702216892245682700,59.3906826171875,2.302000045776367,-3.784099817276001,-4.61299991607666
1702216892305682700,59.4506826171875,3.9011998176574707,-2.6364998817443848,-7.848599910736084
1702216892365682700,59.5106826171875,3.683300018310547,-2.3153998851776123,-10.48759937286377
1702216892425682700,59.5706826171875,4.335700035095215,-2.5369999408721924,-8.979199409484863
1702216892485682700,59.6306826171875,3.3443000316619873,-2.022599935531616,-9.164899826049805
1702216892545682700,59.6906826171875,2.1796000003814697,-5.286799907684326,-7.000199794769287
1702216892605682700,59.7506826171875,-0.25839999318122864,-7.923999786376953,-4.604399681091309
1702216892665682700,59.8106826171875,-0.14499999582767487,-6.713899612426758,-1.1234999895095825
1702216892725682700,59.8706826171875,0.6832000017166138,-5.949999809265137,2.6362998485565186
1702216892785682700,59.9306826171875,0.3764999806880951,-5.757199764251709,4.705699920654297
1702216892845682700,59.9906826171875,0.827299952507019,-4.911200046539307,6.226099967956543
1702216892905682700,60.0506826171875,1.0672999620437622,-3.7933998107910156,9.592399597167969
1702216892965682700,60.1106826171875,0.531499981880188,-2.5423998832702637,11.329400062561035
1702216893025682700,60.1706826171875,-1.0880999565124512,-4.263099670410156,9.483399391174316
1702216893085682700,60.2306826171875,-3.1043999195098877,-6.552000045776367,7.0894999504089355
1702216893145682700,60.2906826171875,-2.0134999752044678,-8.07819938659668,3.75249981880188
1702216893205709300,60.350709228515626,-1.431399941444397,-7.310299873352051,2.687199831008911
1702216893265682700,60.4106826171875,0.524399995803833,-5.036599636077881,0.5698999762535095
1702216893325682700,60.4706826171875,1.0135999917984009,-3.8729000091552734,-2.555299997329712
1702216893385682700,60.5306826171875,1.8429999351501465,-3.578699827194214,-4.820099830627441
1702216893445682700,60.5906826171875,3.577899932861328,-1.928399920463562,-5.665499687194824
1702216893505682700,60.6506826171875,4.08489990234375,-0.3757999837398529,-7.066999912261963
1702216893565682700,60.7106826171875,2.916599988937378,-2.208400011062622,-14.588399887084961
1702216893625682700,60.7706826171875,3.416100025177002,-2.709199905395508,-10.594200134277344
1702216893685682700,60.8306826171875,2.077899932861328,-3.380699872970581,-7.566099643707275
1702216893745682700,60.8906826171875,-0.5069000124931335,-7.090199947357178,-6.8190999031066895
1702216893805682700,60.9506826171875,-0.7897999882698059,-8.173799514770508,-3.217599868774414
1702216893865682700,61.0106826171875,0.823699951171875,-5.865299701690674,0.5216000080108643
1702216893925682700,61.0706826171875,2.176100015640259,-5.449199676513672,3.6429998874664307
1702216893985682700,61.1306826171875,2.3451998233795166,-5.396599769592285,5.073800086975098
1702216894045682700,61.1906826171875,2.50249981880188,-5.220699787139893,5.650899887084961
1702216894105682700,61.2506826171875,3.6671998500823975,-4.25439977645874,8.026999473571777
1702216894165682700,61.3106826171875,2.7129998207092285,-4.832499980926514,8.93429946899414
1702216894225682700,61.3706826171875,0.713699996471405,-6.054599761962891,9.351399421691895
1702216894285682700,61.4306826171875,-1.6190999746322632,-7.888000011444092,5.331999778747559
1702216894345682700,61.4906826171875,-3.1557998657226562,-6.308599948883057,3.263700008392334
1702216894405682700,61.5506826171875,-0.8061999678611755,-4.634099960327148,2.415299892425537
1702216894465682700,61.6106826171875,-0.3346000015735626,-2.624799966812134,1.016700029373169
1702216894525682700,61.6706826171875,0.20879998803138733,-2.8685998916625977,-2.1614999771118164
1702216894585682700,61.7306826171875,0.4908999800682068,-2.642899990081787,-7.058399677276611
1702216894645682700,61.7906826171875,1.794600009918213,-0.8676999807357788,-8.345499992370605
1702216894705682700,61.8506826171875,1.9636999368667603,-0.3075000047683716,-10.483599662780762
1702216894765682700,61.9106826171875,1.438099980354309,-1.7626999616622925,-10.883299827575684
1702216894825682700,61.9706826171875,2.7640998363494873,-1.0303000211715698,-7.859799861907959
1702216894885682700,62.0306826171875,1.6908999681472778,-3.1310999393463135,-6.394000053405762
1702216894945682700,62.0906826171875,-1.5088999271392822,-7.21560001373291,-5.2453999519348145
1702216895005682700,62.1506826171875,0.43059998750686646,-6.893199920654297,-1.5678999423980713
1702216895065682700,62.2106826171875,2.113499879837036,-5.145400047302246,2.3097000122070312
1702216895125682700,62.2706826171875,1.698199987411499,-4.807799816131592,4.523299694061279
1702216895185682700,62.3306826171875,1.2750999927520752,-4.956500053405762,6.0640997886657715
1702216895245682700,62.3906826171875,2.012899875640869,-3.759699821472168,8.073800086975098
1702216895305709300,62.45070922851563,1.479200005531311,-3.899199962615967,9.11870002746582
1702216895365682700,62.5106826171875,-0.7186999917030334,-4.750199794769287,8.94540023803711
1702216895425682700,62.5706826171875,-2.1273000240325928,-7.094499588012695,6.864500045776367
1702216895485682700,62.6306826171875,-1.2130999565124512,-7.7017998695373535,2.899099826812744
1702216895545682700,62.6906826171875,-1.5793999433517456,-5.613800048828125,2.2858998775482178
1702216895605682700,62.7506826171875,0.05719999969005585,-3.327699899673462,0.9459999799728394
1702216895665682700,62.8106826171875,0.44909998774528503,-2.312199831008911,-1.1090999841690063
1702216895725682700,62.8706826171875,1.3528000116348267,-3.2923998832702637,-5.186800003051758
1702216895785682700,62.9306826171875,3.6313998699188232,-2.1673998832702637,-6.751899719238281
1702216895845682700,62.9906826171875,4.450699806213379,0.4478999972343445,-6.549299716949463
1702216895905682700,63.0506826171875,2.0789999961853027,-2.160399913787842,-12.33899974822998
1702216895965682700,63.1106826171875,2.648599863052368,-1.8777999877929688,-9.144399642944336
1702216896025682700,63.1706826171875,3.021099805831909,-0.5117999911308289,-5.087299823760986
1702216896085682700,63.2306826171875,-0.7828999757766724,-5.026400089263916,-6.221099853515625
1702216896145682700,63.2906826171875,-3.0493998527526855,-8.398300170898438,-5.593999862670898
1702216896205682700,63.3506826171875,1.0958999395370483,-5.975499629974365,-0.0754999965429306
1702216896265682700,63.4106826171875,2.6554999351501465,-4.8821001052856445,3.5439999103546143
1702216896325682700,63.4706826171875,1.7365999221801758,-4.588599681854248,5.956399917602539
1702216896385682700,63.5306826171875,1.4786999225616455,-4.367199897766113,6.181299686431885
1702216896445682700,63.5906826171875,2.1152000427246094,-3.9702999591827393,7.267699718475342
1702216896505682700,63.6506826171875,2.4930999279022217,-3.6790997982025146,8.611299514770508
1702216896565682700,63.7106826171875,1.063099980354309,-5.1798996925354,9.038700103759766
1702216896625682700,63.7706826171875,-1.090399980545044,-6.570999622344971,6.4045000076293945
1702216896685682700,63.8306826171875,-1.6268999576568604,-6.891499996185303,3.80679988861084
1702216896745682700,63.8906826171875,0.1832999885082245,-5.807699680328369,2.7647998332977295
1702216896805682700,63.9506826171875,0.7188000082969666,-4.5524001121521,0.5422999858856201
1702216896865682700,64.0106826171875,-0.5051000118255615,-3.867799997329712,-3.4223999977111816
1702216896925681200,64.07068115234375,0.4927999973297119,-3.0934998989105225,-7.397299766540527
1702216896985682700,64.1306826171875,2.062000036239624,-0.25099998712539673,-7.139999866485596
1702216897045682700,64.1906826171875,0.9491999745368958,-0.39649999141693115,-9.707499504089355
1702216897105682700,64.2506826171875,-1.1198999881744385,-0.5681999921798706,-13.71969985961914
1702216897165682700,64.3106826171875,0.35839998722076416,-2.358099937438965,-8.52139949798584
1702216897225682700,64.3706826171875,-1.6376999616622925,-2.674999952316284,-9.202699661254883
1702216897285682700,64.4306826171875,-2.2414000034332275,-7.33929967880249,-6.070899963378906
1702216897345682700,64.4906826171875,-0.07079999893903732,-8.442699432373047,-2.459699869155884
1702216897405709300,64.55070922851563,2.2760000228881836,-6.839999675750732,1.6740999221801758
1702216897465682700,64.6106826171875,1.969099998474121,-6.50629997253418,4.394000053405762
1702216897525682700,64.6706826171875,1.381600022315979,-6.078799724578857,5.9365997314453125
1702216897585682700,64.7306826171875,2.5000998973846436,-4.627199649810791,8.910200119018555
1702216897645682700,64.7906826171875,2.8708999156951904,-3.671599864959717,12.325799942016602
1702216897705682700,64.8506826171875,1.0677999258041382,-5.222300052642822,10.27810001373291
1702216897765682700,64.9106826171875,0.5376999974250793,-8.006500244140625,8.110499382019043
1702216897825682700,64.9706826171875,-0.41179999709129333,-10.03689956665039,3.200399875640869
1702216897885682700,65.0306826171875,-1.9651999473571777,-7.623799800872803,1.4853999614715576
1702216897945682700,65.0906826171875,0.15039999783039093,-4.419099807739258,0.06780000030994415
1702216898005682700,65.1506826171875,-0.15809999406337738,-2.949199914932251,-2.5351998805999756
1702216898065682700,65.2106826171875,0.07429999858140945,-3.0299999713897705,-4.8471999168396
1702216898125682700,65.2706826171875,2.261399984359741,-1.7574999332427979,-8.441200256347656
1702216898185682700,65.3306826171875,1.8430999517440796,-0.9909999966621399,-12.0718994140625
1702216898245682700,65.3906826171875,-1.951799988746643,0.1305999904870987,-13.617799758911133
1702216898305682700,65.4506826171875,-1.0723999738693237,-1.3446999788284302,-9.531599998474121
1702216898365682700,65.5106826171875,-1.2761999368667603,-1.6749999523162842,-9.87869930267334
1702216898425682700,65.5706826171875,-2.032899856567383,-8.392000198364258,-5.488499641418457
1702216898485682700,65.6306826171875,-2.2126998901367188,-10.197999954223633,-4.336199760437012
1702216898545682700,65.6906826171875,1.4773999452590942,-8.133500099182129,1.3191999197006226
1702216898605682700,65.7506826171875,1.3756999969482422,-7.020899772644043,4.397599697113037
1702216898665682700,65.8106826171875,0.6229000091552734,-6.908699989318848,6.997099876403809
1702216898725682700,65.8706826171875,0.8982999920845032,-5.339799880981445,8.507200241088867
1702216898785682700,65.9306826171875,0.9065999984741211,-3.544999837875366,12.387799263000488
1702216898845682700,65.9906826171875,0.003499999875202775,-3.9038000106811523,11.851299285888672
1702216898905682700,66.0506826171875,-0.11270000040531158,-6.969499588012695,8.657400131225586
1702216898965682700,66.1106826171875,-2.7582998275756836,-8.03950023651123,5.390899658203125
1702216899025682700,66.1706826171875,-3.7239999771118164,-10.093099594116211,2.2319998741149902
1702216899085682700,66.2306826171875,-1.979099988937378,-8.650300025939941,-0.9752999544143677
1702216899145682700,66.2906826171875,0.5429999828338623,-4.314300060272217,-2.197200059890747
1702216899205682700,66.3506826171875,0.07569999992847443,-2.036900043487549,-2.5750999450683594
1702216899265682700,66.4106826171875,0.7892999649047852,-2.2079999446868896,-4.0341997146606445
1702216899325682700,66.4706826171875,3.51039981842041,-1.5708999633789062,-6.858199596405029
1702216899385682700,66.5306826171875,5.725499629974365,-1.3955999612808228,-10.395899772644043
1702216899445682700,66.5906826171875,3.7339999675750732,-1.972499966621399,-13.676199913024902
1702216899505709300,66.65070922851562,2.413100004196167,-3.4856998920440674,-9.741700172424316
1702216899565709300,66.71070922851563,1.2568999528884888,-3.248699903488159,-8.281499862670898
1702216899625682700,66.7706826171875,0.03059999831020832,-5.7164998054504395,-4.722099781036377
1702216899685682700,66.8306826171875,-3.5748000144958496,-9.256599426269531,-3.4975998401641846
1702216899745682700,66.8906826171875,0.6013999581336975,-7.594799995422363,-0.11769999563694
1702216899805682700,66.9506826171875,2.4781999588012695,-6.993799686431885,3.927999973297119
1702216899865682700,67.0106826171875,1.9138998985290527,-7.098799705505371,6.082799911499023
1702216899925682700,67.0706826171875,2.203199863433838,-6.223999977111816,7.625699996948242
1702216899985682700,67.1306826171875,3.3413000106811523,-3.6830999851226807,11.30270004272461
1702216900045682700,67.1906826171875,2.963399887084961,-3.5152997970581055,11.276999473571777
1702216900105682700,67.2506826171875,0.5705999732017517,-6.089599609375,8.204599380493164
1702216900165682700,67.3106826171875,-1.1098999977111816,-8.076099395751953,5.652100086212158
1702216900225682700,67.3706826171875,-2.0950000286102295,-9.699799537658691,2.600600004196167
1702216900285682700,67.4306826171875,-0.20029999315738678,-7.360299587249756,1.6856999397277832
1702216900345682700,67.4906826171875,0.7687999606132507,-4.521999835968018,0.32099997997283936
1702216900405682700,67.5506826171875,-0.5404999852180481,-3.6021997928619385,-2.4742000102996826
1702216900465682700,67.6106826171875,-0.12529999017715454,-2.856600046157837,-6.236000061035156
1702216900525682700,67.6706826171875,1.4161999225616455,-1.7840999364852905,-9.13129997253418
1702216900585682700,67.7306826171875,2.9278998374938965,-1.0246000289916992,-12.89330005645752
1702216900645682700,67.7906826171875,0.42389997839927673,-0.22450000047683716,-13.262799263000488
1702216900705682700,67.8506826171875,1.272499918937683,-1.2257999181747437,-9.414899826049805
1702216900765682700,67.9106826171875,0.5717999935150146,-4.0717997550964355,-10.70479965209961
1702216900825682700,67.9706826171875,0.11869999766349792,-6.894799709320068,-4.908299922943115
1702216900885682700,68.0306826171875,-1.3432999849319458,-10.465999603271484,-3.0132999420166016
1702216900945682700,68.0906826171875,2.0897998809814453,-7.627199649810791,0.27789998054504395
1702216901005682700,68.1506826171875,3.5062999725341797,-6.913899898529053,3.9609999656677246
1702216901065682700,68.2106826171875,2.9384000301361084,-6.993099689483643,5.773599624633789
1702216901125682700,68.2706826171875,3.6058998107910156,-5.637899875640869,7.979399681091309
1702216901185682700,68.3306826171875,4.228399753570557,-4.94819974899292,10.993800163269043
1702216901245682700,68.3906826171875,2.359099864959717,-6.32319974899292,10.251500129699707
1702216901305682700,68.4506826171875,3.056999921798706,-6.7353997230529785,8.141900062561035
1702216901365682700,68.5106826171875,-1.8244999647140503,-8.434599876403809,3.7360999584198
1702216901425682700,68.5706826171875,-1.253000020980835,-6.9928998947143555,3.6775999069213867
1702216901485682700,68.6306826171875,-0.12319999933242798,-5.448699951171875,1.3661999702453613
1702216901545682700,68.6906826171875,-0.6442999839782715,-4.553499698638916,-2.1626999378204346
1702216901605709300,68.75070922851563,-1.230199933052063,-3.4622998237609863,-7.099400043487549
1702216901665682700,68.8106826171875,-0.30230000615119934,-0.41179999709129333,-7.327699661254883
1702216901725682700,68.8706826171875,-0.6388999819755554,0.691100001335144,-8.875800132751465
1702216901785682700,68.9306826171875,-1.5166000127792358,0.3822999894618988,-12.709099769592285
1702216901845682700,68.9906826171875,-0.3652999997138977,-2.0463998317718506,-10.304699897766113
1702216901905682700,69.0506826171875,-0.10799999535083771,-1.1239999532699585,-9.18139934539795
1702216901965682700,69.1106826171875,-0.7046999931335449,-4.393199920654297,-4.253900051116943
1702216902025682700,69.1706826171875,-1.0785999298095703,-6.896100044250488,-3.3479998111724854
1702216902085682700,69.2306826171875,1.569000005722046,-6.299499988555908,-0.9247999787330627
1702216902145682700,69.2906826171875,2.569000005722046,-5.980799674987793,2.4435999393463135
1702216902205682700,69.3506826171875,2.0673999786376953,-5.733099937438965,4.654900074005127
1702216902265682700,69.4106826171875,2.4642999172210693,-4.343299865722656,7.255199909210205
1702216902325682700,69.4706826171875,2.8690998554229736,-2.678999900817871,10.47909927368164
1702216902385682700,69.5306826171875,1.4943000078201294,-3.148900032043457,9.986899375915527
1702216902445682700,69.5906826171875,-1.094499945640564,-6.7916998863220215,6.96429967880249
1702216902505682700,69.6506826171875,-1.8362998962402344,-8.056099891662598,5.373899936676025
1702216902565682700,69.7106826171875,-1.8327999114990234,-8.367400169372559,3.3265998363494873
1702216902625682700,69.7706826171875,0.15320000052452087,-6.2129998207092285,1.8352999687194824
1702216902685682700,69.8306826171875,0.6003999710083008,-3.993299961090088,-0.45649999380111694
1702216902745682700,69.8906826171875,-0.5485000014305115,-2.8337998390197754,-4.097499847412109
1702216902805682700,69.9506826171875,1.2130999565124512,-1.6507999897003174,-6.8902997970581055
1702216902865682700,70.0106826171875,2.6466000080108643,0.7281000018119812,-8.003700256347656
1702216902925682700,70.0706826171875,-0.19709999859333038,-0.6766999959945679,-11.544300079345703
1702216902985682700,70.1306826171875,0.5406000018119812,-0.6229999661445618,-12.26449966430664
1702216903045682700,70.1906826171875,1.739300012588501,-0.3140999972820282,-7.886499881744385
1702216903105682700,70.2506826171875,-2.498499870300293,-3.135999917984009,-11.493499755859375
1702216903165682700,70.3106826171875,-1.4377999305725098,-8.884200096130371,-6.016200065612793
1702216903225682700,70.3706826171875,0.3974999785423279,-11.225699424743652,-3.1542999744415283
1702216903285682700,70.4306826171875,2.9749999046325684,-8.183099746704102,0.7196999788284302
1702216903345682700,70.4906826171875,2.9430999755859375,-7.948400020599365,4.013299942016602
1702216903405682700,70.5506826171875,3.1497998237609863,-7.51609992980957,5.887199878692627
1702216903465682700,70.6106826171875,4.662300109863281,-4.302000045776367,9.636300086975098
1702216903525682700,70.6706826171875,3.853099822998047,-5.090099811553955,10.701899528503418
1702216903585682700,70.7306826171875,2.139699935913086,-5.464099884033203,9.862199783325195
1702216903645682700,70.7906826171875,1.4255999326705933,-7.740900039672852,8.682600021362305
1702216903705709300,70.85070922851563,-0.1251000016927719,-10.338500022888184,4.34660005569458
1702216903765682700,70.9106826171875,-0.8775999546051025,-10.274799346923828,2.9101998805999756
1702216903825682700,70.9706826171875,0.038599997758865356,-8.24940013885498,0.1379999965429306
1702216903885682700,71.0306826171875,0.7917999625205994,-7.487499713897705,-4.246399879455566
1702216903945682700,71.0906826171875,0.08909999579191208,-4.0127997398376465,-7.9440999031066895
1702216904005682700,71.1506826171875,1.0893999338150024,0.9646999835968018,-8.072799682617188
1702216904065682700,71.2106826171875,-0.1362999975681305,1.1727999448776245,-11.455899238586426
1702216904125682700,71.2706826171875,-1.7170000076293945,-0.7209999561309814,-17.23349952697754
1702216904185682700,71.3306826171875,1.583799958229065,-2.177799940109253,-11.490900039672852
1702216904245682700,71.3906826171875,1.020900011062622,-2.096299886703491,-8.927000045776367
1702216904305682700,71.4506826171875,-0.3865000009536743,-8.388299942016602,-5.626999855041504
1702216904365682700,71.5106826171875,-1.8270999193191528,-11.109299659729004,-4.735899925231934
1702216904425682700,71.5706826171875,0.7762999534606934,-9.643799781799316,0.21289999783039093
1702216904485682700,71.6306826171875,1.438499927520752,-7.573599815368652,4.210999965667725
1702216904545682700,71.6906826171875,1.545799970626831,-6.281899929046631,6.1641998291015625
1702216904605682700,71.7506826171875,3.034600019454956,-4.839999675750732,8.939499855041504
1702216904665682700,71.8106826171875,2.815699815750122,-3.9758999347686768,10.789499282836914
1702216904725682700,71.8706826171875,2.2906999588012695,-4.0625,10.898499488830566
1702216904785682700,71.9306826171875,0.421099990606308,-4.9664998054504395,10.024700164794922
1702216904845682700,71.9906826171875,-1.0611000061035156,-7.653299808502197,6.597799777984619
1702216904905682700,72.0506826171875,-0.5936999917030334,-10.202899932861328,4.049299716949463
1702216904965682700,72.1106826171875,-0.12539999186992645,-11.239099502563477,1.8011999130249023
1702216905025682700,72.1706826171875,-0.6872999668121338,-7.968999862670898,-3.0548999309539795
1702216905085682700,72.2306826171875,-0.7780999541282654,-5.049900054931641,-6.015899658203125
1702216905145682700,72.2906826171875,0.4406999945640564,-1.559899926185608,-5.444499969482422
1702216905205682700,72.3506826171875,1.8955999612808228,1.5798999071121216,-7.412299633026123
1702216905265682700,72.4106826171875,1.3000999689102173,-1.1291999816894531,-13.133999824523926
1702216905325682700,72.4706826171875,2.9738998413085938,-2.5353000164031982,-13.650799751281738
1702216905385682700,72.5306826171875,3.1719000339508057,-0.5004000067710876,-9.309100151062012
1702216905445682700,72.5906826171875,0.6247999668121338,-1.3036999702453613,-6.509399890899658
1702216905505682700,72.6506826171875,-4.144999980926514,-8.413299560546875,-8.109299659729004
1702216905565682700,72.7106826171875,-3.247999906539917,-11.940400123596191,-4.6605000495910645
1702216905625682700,72.7706826171875,2.6830999851226807,-9.251199722290039,0.8828999996185303
1702216905685682700,72.8306826171875,2.4099998474121094,-7.553899765014648,4.5605998039245605
1702216905745682700,72.8906826171875,1.555299997329712,-7.048699855804443,6.322399616241455
1702216905805709300,72.95070922851562,1.9928998947143555,-5.426599979400635,8.993199348449707
1702216905865682700,73.0106826171875,2.435299873352051,-3.9667999744415283,11.357799530029297
1702216905925682700,73.0706826171875,2.649899959564209,-3.485299825668335,11.164899826049805
1702216905985682700,73.1306826171875,0.3540000021457672,-6.121299743652344,9.469799995422363
1702216906045682700,73.1906826171875,-0.8407999873161316,-9.32229995727539,6.206999778747559
1702216906105682700,73.2506826171875,-2.7913999557495117,-10.32409954071045,3.051299810409546
1702216906165682700,73.3106826171875,-1.4886999130249023,-9.704099655151367,1.2925999164581299
1702216906225682700,73.3706826171875,0.008200000040233135,-6.1828999519348145,-0.24329999089241028
1702216906285682700,73.4306826171875,0.12459999322891235,-4.9928998947143555,-2.3313000202178955
1702216906345682700,73.4906826171875,0.3782999813556671,-4.329599857330322,-4.467400074005127
1702216906405682700,73.5506826171875,2.975600004196167,-2.2665998935699463,-7.497200012207031
1702216906465682700,73.6106826171875,4.641499996185303,-0.9968999624252319,-9.042099952697754
1702216906525682700,73.6706826171875,3.47409987449646,-3.069499969482422,-14.523999214172363
1702216906585682700,73.7306826171875,4.358500003814697,-4.118000030517578,-13.883399963378906
1702216906645682700,73.7906826171875,2.8245999813079834,-2.136399984359741,-7.97659969329834
1702216906705682700,73.8506826171875,0.16589999198913574,-4.799799919128418,-5.613499641418457
1702216906765682700,73.9106826171875,-4.59689998626709,-9.901299476623535,-4.704599857330322
1702216906825682700,73.9706826171875,-0.4610999822616577,-9.823699951171875,-1.0546000003814697
1702216906885682700,74.0306826171875,1.9508999586105347,-8.305699348449707,3.162299871444702
1702216906945682700,74.0906826171875,2.3680999279022217,-6.925099849700928,7.485699653625488
1702216907005682700,74.1506826171875,1.8803999423980713,-4.598899841308594,10.128600120544434
1702216907065682700,74.2106826171875,2.48799991607666,-4.105799674987793,8.913299560546875
1702216907125682700,74.2706826171875,2.6087000370025635,-4.377999782562256,10.55049991607666
1702216907185682700,74.3306826171875,-0.21930000185966492,-5.256399631500244,10.967299461364746
1702216907245682700,74.3906826171875,-1.4477999210357666,-8.337599754333496,7.719299793243408
1702216907305682700,74.4506826171875,-1.4127999544143677,-10.650400161743164,2.4045000076293945
1702216907365682700,74.5106826171875,0.9545999765396118,-8.356399536132812,2.1407999992370605
1702216907425682700,74.5706826171875,0.5770999789237976,-5.826399803161621,0.9432999491691589
1702216907485682700,74.6306826171875,-1.9978998899459839,-4.744100093841553,-2.6273000240325928
1702216907545682700,74.6906826171875,0.46609997749328613,-2.86080002784729,-7.05019998550415
1702216907605682700,74.7506826171875,2.7321999073028564,-3.908399820327759,-15.736299514770508
1702216907665682700,74.8106826171875,-3.221099853515625,-0.18230000138282776,-15.039799690246582
1702216907725682700,74.8706826171875,-2.2685999870300293,1.7577999830245972,-12.467999458312988
1702216907785682700,74.9306826171875,-3.094899892807007,-3.092399835586548,-13.678699493408203
1702216907845682700,74.9906826171875,-0.4876999855041504,-6.41949987411499,-8.188400268554688
1702216907905709300,75.05070922851563,-0.2037999927997589,-11.074299812316895,-4.162899971008301
1702216907965682700,75.1106826171875,0.34209999442100525,-9.304999351501465,-1.6477999687194824
1702216908025682700,75.1706826171875,2.8285000324249268,-8.26449966430664,2.2458999156951904
1702216908085682700,75.2306826171875,3.2985999584198,-8.250699996948242,4.724899768829346
1702216908145682700,75.2906826171875,4.10890007019043,-7.164599895477295,6.97160005569458
1702216908205682700,75.3506826171875,5.253599643707275,-4.067899703979492,10.470600128173828
1702216908265682700,75.4106826171875,4.561100006103516,-3.8143999576568604,11.661299705505371
1702216908325682700,75.4706826171875,1.9471999406814575,-7.7627997398376465,8.80210018157959
1702216908385682700,75.5306826171875,-0.703000009059906,-10.014100074768066,6.87529993057251
1702216908445682700,75.5906826171875,-1.5408999919891357,-10.939199447631836,2.1673998832702637
1702216908505682700,75.6506826171875,-1.1608999967575073,-6.408599853515625,2.5700998306274414
1702216908565682700,75.7106826171875,0.1403999924659729,-5.073699951171875,1.7206999063491821
1702216908625682700,75.7706826171875,0.29159998893737793,-5.8364996910095215,-2.6838998794555664
1702216908685682700,75.8306826171875,0.3139999806880951,-4.9238996505737305,-8.563399314880371
1702216908745682700,75.8906826171875,1.1303999423980713,-0.9144999980926514,-8.642399787902832
1702216908805682700,75.9506826171875,0.2678000032901764,-0.31129997968673706,-9.255099296569824
1702216908865682700,76.0106826171875,0.9670999646186829,0.7802000045776367,-11.293999671936035
1702216908925682700,76.0706826171875,0.6750999689102173,0.47609999775886536,-11.442999839782715
1702216908985682700,76.1306826171875,-2.2695000171661377,-1.9678999185562134,-10.690099716186523
1702216909045682700,76.1906826171875,-3.8976998329162598,-8.214200019836426,-8.902299880981445
1702216909105682700,76.2506826171875,0.29440000653266907,-8.685599327087402,-4.236000061035156
1702216909165682700,76.3106826171875,3.0297000408172607,-6.737099647521973,-0.0754999965429306
