time,seconds_elapsed,z,y,x
1702686132958220800,0.050220703125,0.20469999313354492,-0.2847999930381775,-0.21289999783039093
1702686133018219300,0.11021923828125,-0.07970000058412552,0.05929999798536301,0.10179999470710754
1702686133078219300,0.17021923828125,-0.03449999913573265,0.0008999999845400453,-0.10189999639987946
1702686133138219300,0.23021923828125,-0.4106999933719635,0.031700000166893005,-0.2443999946117401
1702686133198219300,0.29021923828125,0.09679999947547913,-0.11259999871253967,0.15070000290870667
1702686133258219300,0.35021923828125,0.044499997049570084,-0.0689999982714653,0.02589999884366989
1702686133318219300,0.41021923828125,0.056199997663497925,-0.07419999688863754,0.03139999881386757
1702686133378219300,0.47021923828125,-0.10080000013113022,0.11229999363422394,0.07019999623298645
1702686133438220800,0.530220703125,0.008799999952316284,0.11419999599456787,-0.02239999920129776
1702686133498219300,0.59021923828125,-0.3179999887943268,0.14219999313354492,0.05920000001788139
1702686133558219300,0.65021923828125,-0.3252999782562256,-0.03480000048875809,-0.1251000016927719
1702686133618219300,0.71021923828125,-0.06719999760389328,-0.034299999475479126,0.10019999742507935
1702686133678219300,0.77021923828125,-0.4893999993801117,0.00559999980032444,-0.3513999879360199
1702686133738219300,0.83021923828125,-0.2888999879360199,0.04439999908208847,-0.007499999832361937
1702686133798219300,0.89021923828125,-0.46639999747276306,-0.00839999970048666,-0.06809999793767929
1702686133858219300,0.95021923828125,-0.23569999635219574,0.1770000010728836,-0.12079999595880508
1702686133918219300,1.01021923828125,0.20520000159740448,-0.1907999962568283,0.0731000006198883
1702686133978219300,1.07021923828125,0.17809998989105225,-0.39890000224113464,-0.07889999449253082
1702686134038219300,1.13021923828125,-0.1695999950170517,-0.19609999656677246,0.32189998030662537
1702686134098219300,1.19021923828125,0.11729999631643295,0.11769999563694,0.33390000462532043
1702686134158219300,1.25021923828125,0.1914999932050705,0.09019999951124191,0.08209999650716782
1702686134218219300,1.31021923828125,-0.30079999566078186,-0.3384000062942505,0.1598999947309494
1702686134278219300,1.37021923828125,0.20080000162124634,-0.1607999950647354,0.0802999958395958
1702686134338219300,1.43021923828125,0.4722999930381775,0.0018999999156221747,1.1222000122070312
1702686134398219300,1.49021923828125,0.13779999315738678,-0.03199999779462814,1.0613999366760254
1702686134458219300,1.55021923828125,-1.3840999603271484,-0.024699999019503593,-0.9493999481201172
1702686134518219300,1.61021923828125,-1.9638999700546265,0.0786999985575676,-1.6653000116348267
1702686134578219300,1.67021923828125,-0.5256999731063843,0.04649999737739563,-0.21739999949932098
1702686134638219300,1.73021923828125,-0.7527999877929688,-0.09219999611377716,-0.2798999845981598
1702686134698219300,1.79021923828125,-0.3490999937057495,0.45659998059272766,0.7050999999046326
1702686134758219300,1.85021923828125,0.4194999933242798,0.13199999928474426,1.375999927520752
1702686134818219300,1.91021923828125,1.9234999418258667,-0.2574999928474426,1.5647999048233032
1702686134878219300,1.97021923828125,-0.6211999654769897,-0.2142999917268753,-0.15950000286102295
1702686134938219300,2.03021923828125,0.37389999628067017,-0.22360000014305115,0.40359997749328613
1702686134998219300,2.09021923828125,-0.7012999653816223,0.2093999981880188,-0.08069999516010284
1702686135058219300,2.15021923828125,0.8011999726295471,-0.3920999765396118,0.1979999989271164
1702686135118219300,2.21021923828125,-0.5726000070571899,0.10089999437332153,0.0510999970138073
1702686135178219300,2.27021923828125,-0.5198999643325806,-0.1437000036239624,0.4066999852657318
1702686135238219300,2.33021923828125,0.047599997371435165,0.40230000019073486,0.5895000100135803
1702686135298219300,2.39021923828125,-1.4455000162124634,-0.4163999855518341,-2.0153000354766846
1702686135358219300,2.45021923828125,-0.5669999718666077,-0.40369999408721924,-1.0363999605178833
1702686135418219300,2.51021923828125,-0.6703999638557434,-0.23269999027252197,-0.1492999941110611
1702686135478219300,2.57021923828125,-0.6495000123977661,0.3992999792098999,-0.41439998149871826
1702686135538219300,2.63021923828125,0.11079999804496765,0.07829999923706055,0.9044999480247498
1702686135598219300,2.69021923828125,0.3968999981880188,-0.210099995136261,1.3996999263763428
1702686135658219300,2.75021923828125,-0.2369999885559082,-0.06509999930858612,0.10089999437332153
1702686135718219300,2.81021923828125,-0.1614999920129776,-0.27480000257492065,0.3619000017642975
1702686135778219300,2.87021923828125,-0.08889999985694885,0.08720000088214874,0.4820999801158905
1702686135838219300,2.93021923828125,0.5699999928474426,0.006300000008195639,0.9159999489784241
1702686135898219300,2.99021923828125,-0.1808999925851822,-0.07090000063180923,0.41609999537467957
1702686135958219300,3.05021923828125,-0.49549999833106995,0.1582999974489212,0.6886999607086182
1702686136018219300,3.11021923828125,-0.6074000000953674,-0.08739999681711197,-0.019099999219179153
1702686136078219300,3.17021923828125,-1.5381999015808105,-0.3662000000476837,-0.5819000005722046
1702686136138219300,3.23021923828125,-1.7389999628067017,0.10809999704360962,-2.120800018310547
1702686136198219300,3.29021923828125,-0.7141000032424927,-0.31279999017715454,-0.8148999810218811
1702686136258219300,3.35021923828125,-0.4852999746799469,0.003499999875202775,-0.13699999451637268
1702686136318219300,3.41021923828125,-0.05889999866485596,0.2987000048160553,0.6333999633789062
1702686136378219300,3.47021923828125,0.8042999505996704,-0.15919999778270721,0.865399956703186
1702686136438219300,3.53021923828125,-0.08410000056028366,0.1379999965429306,0.22269999980926514
1702686136498219300,3.59021923828125,-0.4404999911785126,-0.1468999981880188,0.08889999985694885
1702686136558219300,3.65021923828125,-0.04739999771118164,-0.23659999668598175,0.825499951839447
1702686136618219300,3.71021923828125,0.6518999934196472,0.04050000011920929,1.117799997329712
1702686136678219300,3.77021923828125,0.40689998865127563,-0.017099998891353607,0.0364999994635582
1702686136738219300,3.83021923828125,-0.6416999697685242,-0.04919999837875366,0.48479998111724854
1702686136798219300,3.89021923828125,-2.1733999252319336,-0.5550000071525574,-0.05299999937415123
1702686136858219300,3.95021923828125,-0.7626999616622925,0.5467000007629395,0.0616999976336956
1702686136918219300,4.01021923828125,-1.2935999631881714,-0.1615999937057495,-1.4012999534606934
1702686136978219300,4.07021923828125,-0.3633999824523926,-0.18079999089241028,-0.12919999659061432
1702686137038219300,4.13021923828125,-1.2883999347686768,0.16290000081062317,-0.8902999758720398
1702686137098219300,4.19021923828125,-0.4245999753475189,0.11749999970197678,0.2240999937057495
1702686137158242600,4.25024267578125,0.3237999975681305,0.31529998779296875,0.20729999244213104
1702686137218219300,4.31021923828125,0.018199998885393143,-0.3021000027656555,1.3047999143600464
1702686137278219300,4.37021923828125,0.10859999805688858,-0.21879999339580536,0.7063999772071838
1702686137338219300,4.43021923828125,0.06199999898672104,-0.019700000062584877,0.8467999696731567
1702686137398219300,4.49021923828125,0.026099998503923416,-0.353300005197525,1.0691999197006226
1702686137458219300,4.55021923828125,1.3590999841690063,0.20999999344348907,1.2103999853134155
1702686137518219300,4.61021923828125,-1.0341999530792236,-0.05829999968409538,0.20319999754428864
1702686137578219300,4.67021923828125,-0.5198999643325806,0.20089998841285706,0.037699997425079346
1702686137638219300,4.73021923828125,-1.4084999561309814,0.17669999599456787,-0.33139997720718384
1702686137698219300,4.79021923828125,-0.6362000107765198,-0.0885000005364418,-0.7793999910354614
1702686137758219300,4.85021923828125,-0.9096999764442444,-0.15070000290870667,-0.9607999920845032
1702686137818219300,4.91021923828125,-1.219599962234497,-0.38349997997283936,-1.173699975013733
1702686137878219300,4.97021923828125,0.08949999511241913,-0.05049999803304672,0.07449999451637268
1702686137938219300,5.03021923828125,-0.16339999437332153,-0.018699999898672104,-0.4390999972820282
1702686137998219300,5.09021923828125,0.09290000051259995,-0.21220000088214874,0.5909000039100647
1702686138058219300,5.15021923828125,0.2904999852180481,-0.23649999499320984,0.8922999501228333
1702686138118219300,5.21021923828125,0.053700000047683716,-0.017899999395012856,0.5848000049591064
1702686138178219300,5.27021923828125,-0.1459999978542328,-0.10989999771118164,0.47279998660087585
1702686138238219300,5.33021923828125,0.24609999358654022,0.07409999519586563,0.8113999962806702
1702686138298219300,5.39021923828125,1.0480999946594238,-0.11989999562501907,0.6789000034332275
1702686138358219300,5.45021923828125,-0.48909997940063477,0.23959998786449432,-0.13650000095367432
1702686138418219300,5.51021923828125,-0.4177999794483185,-0.0957999974489212,0.5144999623298645
1702686138478219300,5.57021923828125,-0.32739999890327454,-0.07989999651908875,0.3791999816894531
1702686138538219300,5.63021923828125,0.09669999778270721,0.03849999979138374,-0.037699997425079346
1702686138598219300,5.69021923828125,-0.9426999688148499,-0.0284000001847744,-1.0992000102996826
1702686138658219300,5.75021923828125,-0.6538000106811523,-0.2628999948501587,-0.8420000076293945
1702686138718219300,5.81021923828125,-0.40799999237060547,0.1597999930381775,-0.41110000014305115
1702686138778219300,5.87021923828125,-0.95169997215271,0.06439999490976334,-0.640500009059906
1702686138838219300,5.93021923828125,-0.14169999957084656,-0.08529999852180481,0.06659999489784241
1702686138898219300,5.99021923828125,0.6929999589920044,-0.5728999972343445,0.3312000036239624
1702686138958219300,6.05021923828125,0.11469999700784683,-0.15649999678134918,0.9800999760627747
1702686139018219300,6.11021923828125,0.2449999898672104,0.0811999961733818,0.8873999714851379
1702686139078219300,6.17021923828125,-0.31049999594688416,-0.07819999754428864,0.6301000118255615
1702686139138219300,6.23021923828125,-0.1915999948978424,-0.006300000008195639,0.2474999874830246
1702686139198219300,6.29021923828125,0.08500000089406967,0.06269999593496323,-0.03949999809265137
1702686139258242600,6.35024267578125,-0.5547999739646912,0.04319999739527702,-0.10369999706745148
1702686139318219300,6.41021923828125,-0.2827000021934509,0.031599998474121094,0.10130000114440918
1702686139378219300,6.47021923828125,-0.46779999136924744,-0.12269999831914902,0.16589999198913574
1702686139438219300,6.53021923828125,-0.5403000116348267,0.04779999703168869,0.4165000021457672
1702686139498219300,6.59021923828125,-0.2700999975204468,0.49049997329711914,0.29179999232292175
1702686139558219300,6.65021923828125,-0.30230000615119934,-0.2287999987602234,-0.2524999976158142
1702686139618219300,6.71021923828125,-0.2092999964952469,-0.27410000562667847,0.22139999270439148
1702686139678219300,6.77021923828125,-0.5756999850273132,0.12770000100135803,-1.024999976158142
1702686139738219300,6.83021923828125,-0.9254999756813049,0.028599999845027924,-0.9753999710083008
1702686139798219300,6.89021923828125,-0.6097999811172485,-0.25209999084472656,-0.7087999582290649
1702686139858219300,6.95021923828125,0.3709999918937683,-0.272599995136261,0.7015999555587769
1702686139918219300,7.01021923828125,0.41920000314712524,-0.22679999470710754,1.2828999757766724
1702686139978219300,7.07021923828125,-0.10179999470710754,0.06610000133514404,0.6699999570846558
1702686140038219300,7.13021923828125,0.536899983882904,-0.0064999996684491634,1.0016000270843506
1702686140098219300,7.19021923828125,0.2920999825000763,-0.22339999675750732,0.6688999533653259
1702686140158219300,7.25021923828125,0.30699998140335083,-0.16049998998641968,0.8980000019073486
1702686140218219300,7.31021923828125,-0.48099997639656067,-0.02589999884366989,0.38099998235702515
1702686140278219300,7.37021923828125,-0.4001999795436859,0.20170000195503235,0.24399998784065247
1702686140338219300,7.43021923828125,-0.8479999899864197,-0.18039999902248383,0.0004999999655410647
1702686140398219300,7.49021923828125,-0.7899999618530273,-0.17599999904632568,-0.4980999827384949
1702686140458219300,7.55021923828125,-0.04959999769926071,-0.2692999839782715,0.12690000236034393
1702686140518219300,7.61021923828125,-0.6164000034332275,0.04609999805688858,-0.7676999568939209
1702686140578219300,7.67021923828125,-0.5489000082015991,-0.09690000116825104,-0.6965000033378601
1702686140638219300,7.73021923828125,-0.21819999814033508,0.05900000035762787,-0.22379998862743378
1702686140698219300,7.79021923828125,0.21239998936653137,-0.05609999969601631,0.32829999923706055
1702686140758219300,7.85021923828125,-0.2822999954223633,0.07989999651908875,0.08269999921321869
1702686140818219300,7.91021923828125,-0.34119999408721924,0.20569999516010284,-0.18119999766349792
1702686140878219300,7.97021923828125,-0.9156000018119812,0.3163999915122986,-0.3822000026702881
1702686140938219300,8.03021923828125,-0.28779998421669006,-0.10809999704360962,0.2305999994277954
1702686140998219300,8.09021923828125,0.5153999924659729,0.15039999783039093,0.8745999932289124
1702686141058219300,8.15021923828125,0.5291999578475952,0.17559999227523804,0.7360999584197998
1702686141118219300,8.21021923828125,0.40829998254776,0.23909999430179596,0.5069000124931335
1702686141178219300,8.27021923828125,-0.3596999943256378,0.15449999272823334,-0.014499999582767487
1702686141238219300,8.33021923828125,-0.8999999761581421,-0.1046999990940094,0.03480000048875809
1702686141298219300,8.39021923828125,-0.1386999934911728,-0.4510999917984009,0.13979999721050262
1702686141358242600,8.45024267578125,-0.2759000062942505,-0.08729999512434006,0.18569999933242798
1702686141418219300,8.51021923828125,0.14190000295639038,-0.08749999850988388,-0.22349999845027924
1702686141478219300,8.57021923828125,0.37389999628067017,0.2142999917268753,-0.004600000102072954
1702686141538219300,8.63021923828125,0.07239999622106552,0.08159999549388885,-0.05159999802708626
1702686141598219300,8.69021923828125,-0.18209999799728394,-0.2636999785900116,-0.14489999413490295
1702686141658219300,8.75021923828125,-0.3010999858379364,-0.5346999764442444,0.13300000131130219
1702686141718219300,8.81021923828125,-0.2635999917984009,-0.4608999788761139,0.04729999974370003
1702686141778219300,8.87021923828125,-0.02589999884366989,-0.30709999799728394,0.12469999492168427
1702686141838219300,8.93021923828125,0.21050000190734863,-0.034199997782707214,0.2061999887228012
1702686141898219300,8.99021923828125,0.19519999623298645,0.040300000458955765,0.1972000002861023
1702686141958219300,9.05021923828125,0.00930000003427267,0.17009998857975006,0.16120000183582306
1702686142018219300,9.11021923828125,0.16049998998641968,0.19349999725818634,0.0908999964594841
1702686142078219300,9.17021923828125,-0.033900000154972076,-0.014699999243021011,0.05549999698996544
1702686142138219300,9.23021923828125,-0.07459999620914459,0.007400000002235174,0.335099995136261
1702686142198219300,9.29021923828125,-0.16099999845027924,-0.059699997305870056,0.1006999984383583
1702686142258219300,9.35021923828125,-0.20430000126361847,-0.07880000025033951,-0.15889999270439148
1702686142318219300,9.41021923828125,0.12349999696016312,0.10740000009536743,0.1370999962091446
1702686142378219300,9.47021923828125,-0.710599958896637,0.3495999872684479,-1.0167999267578125
1702686142438219300,9.53021923828125,-0.9715999960899353,0.7705000042915344,-1.5159000158309937
1702686142498219300,9.59021923828125,-0.4940999746322632,0.11219999939203262,-0.15309999883174896
1702686142558219300,9.65021923828125,-0.23109999299049377,-0.6768999695777893,1.2623999118804932
1702686142618219300,9.71021923828125,0.5074999928474426,-0.9310999512672424,1.817699909210205
1702686142678219300,9.77021923828125,-0.05769999697804451,-0.2483999878168106,0.6938999891281128
1702686142738219300,9.83021923828125,-0.14000000059604645,0.048899997025728226,0.5191999673843384
1702686142798219300,9.89021923828125,-0.2377999871969223,0.24309998750686646,0.37860000133514404
1702686142858219300,9.95021923828125,-0.20839999616146088,-0.0018999999156221747,0.1014999970793724
1702686142918219300,10.01021923828125,-0.22419999539852142,-0.00989999994635582,-0.03350000083446503
1702686142978219300,10.07021923828125,-0.9942999482154846,-0.042799998074769974,-0.17149999737739563
