time,seconds_elapsed,z,y,x
1702299699626733300,0.0387333984375,0.19039998948574066,-0.3443000018596649,1.1545000076293945
1702299699686731800,0.098731689453125,-0.5859999656677246,0.4016999900341034,-1.201799988746643
1702299699746731800,0.158731689453125,-2.122299909591675,-0.9585999846458435,-1.3960999250411987
1702299699806731800,0.218731689453125,-0.7576999664306641,-0.27889999747276306,4.10159969329834
1702299699866731800,0.278731689453125,0.5724999904632568,-0.3434000015258789,3.8078999519348145
1702299699926731800,0.338731689453125,6.500999927520752,0.6061999797821045,7.226999759674072
1702299699986731800,0.398731689453125,2.638700008392334,-0.7684999704360962,3.514400005340576
1702299700046731800,0.458731689453125,-1.09089994430542,-1.4117999076843262,1.6100000143051147
1702299700106731800,0.518731689453125,1.4026999473571777,-1.1395000219345093,1.709299921989441
1702299700166731800,0.578731689453125,1.1395999193191528,-0.2863999903202057,1.5331000089645386
1702299700226731800,0.638731689453125,1.4599000215530396,0.10439999401569366,1.8642998933792114
1702299700286731800,0.698731689453125,0.7839999794960022,-0.33709999918937683,1.434000015258789
1702299700346731800,0.758731689453125,-1.4805999994277954,-0.28700000047683716,-0.5083999633789062
1702299700406731800,0.818731689453125,-1.833299994468689,-0.08069999516010284,0.6412999629974365
1702299700466731800,0.878731689453125,-1.9188998937606812,0.5275999903678894,0.41999998688697815
1702299700526731800,0.938731689453125,-1.7585999965667725,-0.13109999895095825,0.13570000231266022
1702299700586731800,0.998731689453125,-2.843600034713745,-0.3182999789714813,-0.7044999599456787
1702299700646731800,1.058731689453125,-1.5478999614715576,-0.3771999776363373,-0.5306999683380127
1702299700706731800,1.118731689453125,-1.334299921989441,-1.2343000173568726,-0.14329999685287476
1702299700766731800,1.178731689453125,-1.4117000102996826,-2.2179999351501465,-0.7170000076293945
1702299700826731800,1.238731689453125,1.0928000211715698,-0.36910000443458557,-0.9001999497413635
1702299700886731800,1.298731689453125,2.302299976348877,-0.7501999735832214,-3.234299898147583
1702299700946731800,1.358731689453125,4.416199684143066,0.8446999788284302,-4.179500102996826
1702299701006731800,1.418731689453125,5.032700061798096,1.6208999156951904,-3.4944000244140625
1702299701066731800,1.478731689453125,4.173399925231934,2.8163998126983643,-0.35510000586509705
1702299701126731800,1.538731689453125,2.318699836730957,1.9368999004364014,2.5027999877929688
1702299701186731800,1.598731689453125,2.03659987449646,-0.8915999531745911,0.25619998574256897
1702299701246731800,1.658731689453125,2.052799940109253,-1.643899917602539,-1.3012999296188354
1702299701306731800,1.718731689453125,1.200600028038025,-0.41769999265670776,-2.148200035095215
1702299701366731800,1.778731689453125,-0.004900000058114529,-0.6340999603271484,-1.7369999885559082
1702299701426731800,1.838731689453125,-1.0853999853134155,0.4740999937057495,1.9750999212265015
1702299701486731800,1.898731689453125,-1.244499921798706,-1.0410000085830688,-0.9772999882698059
1702299701546731800,1.958731689453125,0.001500000013038516,0.07400000095367432,-0.4071999788284302
1702299701606731800,2.018731689453125,0.7087000012397766,-1.2490999698638916,0.5726999640464783
1702299701666731800,2.078731689453125,0.8562999963760376,-1.1775000095367432,-0.7709999680519104
1702299701726759700,2.138759765625,0.08299999684095383,0.39100000262260437,-0.08229999989271164
1702299701786731800,2.198731689453125,-0.4846999943256378,0.6495000123977661,0.5656999945640564
1702299701846731800,2.258731689453125,0.6997999548912048,-1.0681999921798706,-1.0641000270843506
1702299701906731800,2.318731689453125,0.630899965763092,0.009800000116229057,-2.370800018310547
1702299701966731800,2.378731689453125,-0.5444999933242798,-0.6489999890327454,-2.1333999633789062
1702299702026731800,2.438731689453125,-1.1618999242782593,-0.7106999754905701,-1.9023000001907349
1702299702086731800,2.498731689453125,0.39089998602867126,-1.0968999862670898,-0.5792999863624573
1702299702146731800,2.558731689453125,0.7209999561309814,-0.04659999907016754,0.9023999571800232
1702299702206731800,2.618731689453125,2.5881998538970947,2.2172999382019043,0.4065999984741211
1702299702266731800,2.678731689453125,2.2444000244140625,-0.002099999925121665,0.3245999813079834
1702299702326731800,2.738731689453125,1.597999930381775,-1.6266999244689941,1.569700002670288
1702299702386731800,2.798731689453125,2.3580000400543213,0.7519999742507935,1.2380999326705933
1702299702446731800,2.858731689453125,1.0336999893188477,-0.4372999966144562,2.090100049972534
1702299702506731800,2.918731689453125,1.104099988937378,-1.1049000024795532,0.15779998898506165
1702299702566731800,2.978731689453125,1.323099970817566,-1.6100000143051147,-2.375699996948242
1702299702626731800,3.038731689453125,1.1410999298095703,-1.2146999835968018,-2.5464999675750732
1702299702686731800,3.098731689453125,-0.6496999859809875,-0.4219000041484833,-2.5197999477386475
1702299702746731800,3.158731689453125,-4.798599720001221,-0.3139999806880951,0.6405999660491943
1702299702806731800,3.218731689453125,-3.7414000034332275,2.1965999603271484,-0.13609999418258667
1702299702866731800,3.278731689453125,-2.9484000205993652,4.383699893951416,-0.2533999979496002
1702299702926731800,3.338731689453125,-1.9056999683380127,-0.07319999486207962,3.2834999561309814
1702299702986731800,3.398731689453125,0.3262999951839447,1.3601999282836914,-0.7671999931335449
1702299703046731800,3.458731689453125,0.9513999819755554,-0.7045999765396118,-2.0311999320983887
1702299703106731800,3.518731689453125,2.394399881362915,-0.3190000057220459,-0.4536999762058258
1702299703166731800,3.578731689453125,-0.042799998074769974,-2.996799945831299,-0.6000999808311462
1702299703226731800,3.638731689453125,-1.0389000177383423,-0.3779999911785126,-0.7687000036239624
1702299703286731800,3.698731689453125,-2.3970999717712402,0.24159999191761017,-2.4313998222351074
1702299703346731800,3.758731689453125,-1.9493999481201172,2.4821999073028564,-2.8992998600006104
1702299703406731800,3.818731689453125,-1.9537999629974365,0.18449999392032623,-1.7996999025344849
1702299703466731800,3.878731689453125,-1.8513000011444092,-2.9124999046325684,0.6407999992370605
1702299703526731800,3.938731689453125,-2.0167999267578125,-6.343100070953369,1.3278999328613281
1702299703586731800,3.998731689453125,10.32289981842041,5.27679967880249,12.343500137329102
1702299703646731800,4.058731689453125,-2.22189998626709,-2.0332999229431152,4.65179967880249
1702299703706731800,4.118731689453125,-3.9842000007629395,0.4860000014305115,-1.1009999513626099
1702299703766731800,4.178731689453125,-1.022499918937683,2.444999933242798,-1.7006999254226685
1702299703826759700,4.238759765625,2.6569998264312744,-0.37289997935295105,-4.303899765014648
1702299703886731800,4.298731689453125,-5.906199932098389,-2.9598000049591064,-3.6019999980926514
1702299703946731800,4.358731689453125,0.6780999898910522,2.294999837875366,4.7571001052856445
1702299704006731800,4.418731689453125,2.0028998851776123,3.3785998821258545,7.379499912261963
1702299704066731800,4.478731689453125,1.3844999074935913,-0.2824999988079071,-1.260699987411499
1702299704126731800,4.538731689453125,-2.380699872970581,-0.8682999610900879,1.375499963760376
1702299704186731800,4.598731689453125,1.483199954032898,-1.4864999055862427,0.6604999899864197
1702299704246731800,4.658731689453125,2.157099962234497,-1.0982999801635742,-1.0429999828338623
1702299704306731800,4.718731689453125,0.2890999913215637,0.017400000244379044,-1.1441999673843384
1702299704366731800,4.778731689453125,0.12019999325275421,-3.2947998046875,3.012399911880493
1702299704426731800,4.838731689453125,-1.0077999830245972,3.9333999156951904,-1.0583999156951904
1702299704486731800,4.898731689453125,0.6078999638557434,3.0379998683929443,0.4948999881744385
1702299704546731800,4.958731689453125,-0.7829999923706055,3.699899911880493,1.0191999673843384
1702299704606731800,5.018731689453125,0.618399977684021,-0.343999981880188,0.9835999608039856
1702299704666731800,5.078731689453125,-2.7854998111724854,-2.809199810028076,2.026099920272827
1702299704726731800,5.138731689453125,-2.174499988555908,-3.6720998287200928,1.8215999603271484
1702299704786731800,5.198731689453125,-1.4864000082015991,-4.06850004196167,0.652899980545044
1702299704846731800,5.258731689453125,0.9833999872207642,-3.274899959564209,1.6007999181747437
1702299704906731800,5.318731689453125,10.767199516296387,4.458600044250488,-4.157700061798096
1702299704966731800,5.378731689453125,0.5741999745368958,-0.7746999859809875,0.21649999916553497
1702299705026731800,5.438731689453125,-1.2999999523162842,5.943699836730957,1.7232999801635742
1702299705086731800,5.498731689453125,-7.089799880981445,0.6958000063896179,1.440500020980835
1702299705146731800,5.558731689453125,-3.4045000076293945,2.6533000469207764,3.5110998153686523
1702299705206731800,5.618731689453125,-2.4601998329162598,-0.0032999999821186066,-0.16179999709129333
1702299705266731800,5.678731689453125,3.3666999340057373,-3.4419000148773193,2.4438998699188232
1702299705326731800,5.738731689453125,-3.636899948120117,-0.33789998292922974,0.9257999658584595
1702299705386731800,5.798731689453125,1.3804999589920044,-1.1822999715805054,-0.9050999879837036
1702299705446731800,5.858731689453125,0.7148000001907349,-0.8798999786376953,0.11180000007152557
1702299705506731800,5.918731689453125,1.198099970817566,0.8064999580383301,-2.070499897003174
1702299705566731800,5.978731689453125,2.174299955368042,0.046299997717142105,-1.9680999517440796
1702299705626731800,6.038731689453125,-1.9864999055862427,1.7750999927520752,1.892799973487854
1702299705686731800,6.098731689453125,-0.736299991607666,4.804299831390381,-0.17790000140666962
1702299705746731800,6.158731689453125,0.22059999406337738,2.4066998958587646,0.07829999923706055
1702299705806731800,6.218731689453125,-1.3033000230789185,-2.532599925994873,1.2907999753952026
1702299705866731800,6.278731689453125,-2.3155999183654785,-3.864799976348877,2.405400037765503
1702299705926759700,6.338759765625,-0.5214999914169312,-3.232999801635742,0.16849999129772186
1702299705986731800,6.398731689453125,-0.9909999966621399,-3.206699848175049,1.6899999380111694
1702299706046731800,6.458731689453125,3.6950998306274414,3.7440998554229736,-2.012699842453003
1702299706106731800,6.518731689453125,0.1404999941587448,-1.0073999166488647,-3.140399932861328
1702299706166731800,6.578731689453125,2.7692999839782715,3.8578999042510986,-0.353300005197525
1702299706226731800,6.638731689453125,-4.112499713897705,-1.556399941444397,1.3970999717712402
1702299706286731800,6.698731689453125,-4.798500061035156,0.2768999934196472,0.21779999136924744
1702299706346731800,6.758731689453125,0.7325999736785889,1.7977999448776245,0.6291999816894531
1702299706406731800,6.818731689453125,-0.6491999626159668,-2.8371999263763428,0.058799996972084045
1702299706466731800,6.878731689453125,-1.1682000160217285,-3.5976998805999756,1.055999994277954
1702299706526731800,6.938731689453125,2.7156999111175537,-0.46299999952316284,0.4245999753475189
1702299706586731800,6.998731689453125,2.1534998416900635,-0.2970999777317047,-0.2903999984264374
1702299706646731800,7.058731689453125,0.6697999835014343,0.5030999779701233,-1.6694999933242798
1702299706706731800,7.118731689453125,0.6998999714851379,1.0444999933242798,-4.391299724578857
1702299706766731800,7.178731689453125,0.4342999756336212,0.7980999946594238,-0.34459999203681946
1702299706826731800,7.238731689453125,-3.626699924468994,3.9113998413085938,-1.0020999908447266
1702299706886731800,7.298731689453125,4.318999767303467,4.007199764251709,1.2080999612808228
1702299706946731800,7.358731689453125,-1.2157999277114868,-1.9830999374389648,1.7716000080108643
1702299707006731800,7.418731689453125,-1.8691999912261963,-3.8267998695373535,2.6562998294830322
1702299707066731800,7.478731689453125,-2.079699993133545,-3.4235999584198,-0.032899998128414154
1702299707126731800,7.538731689453125,-1.4318000078201294,-3.2588000297546387,2.8457000255584717
1702299707186731800,7.598731689453125,4.238100051879883,4.707699775695801,-0.12929999828338623
1702299707246731800,7.658731689453125,-1.0081000328063965,-1.2254999876022339,-4.557799816131592
1702299707306731800,7.718731689453125,1.0743999481201172,2.0915000438690186,0.5981999635696411
1702299707366731800,7.778731689453125,-2.4909000396728516,0.32009997963905334,-0.46389999985694885
1702299707426731800,7.838731689453125,-3.1984000205993652,1.115299940109253,1.7960000038146973
1702299707486731800,7.898731689453125,0.511900007724762,0.646399974822998,0.3431999981403351
1702299707546731800,7.958731689453125,-0.38189998269081116,-2.2365000247955322,0.8029999732971191
1702299707606731800,8.018731689453125,-0.4690999984741211,-1.5471999645233154,0.8435999751091003
1702299707666731800,8.078731689453125,1.882699966430664,-1.1088999509811401,-1.1555999517440796
1702299707726731800,8.138731689453126,2.5325000286102295,-1.628499984741211,-2.333099842071533
1702299707786731800,8.198731689453124,1.0454999208450317,0.5056999921798706,-0.37689998745918274
1702299707846731800,8.258731689453125,0.3928999900817871,0.5582999587059021,-2.437199831008911
1702299707906731800,8.318731689453125,1.424899935722351,0.054099999368190765,-2.2279999256134033
1702299707966731800,8.378731689453126,-0.5910999774932861,2.5772998332977295,0.7856999635696411
1702299708026759700,8.438759765625,2.7786998748779297,5.311299800872803,-0.3398999869823456
1702299708086731800,8.498731689453125,-0.3317999839782715,-1.142899990081787,0.9836999773979187
1702299708146731800,8.558731689453126,-1.1899999380111694,-2.8376998901367188,2.9375998973846436
1702299708206731800,8.618731689453124,-1.1191999912261963,-3.233299970626831,0.5105999708175659
1702299708266731800,8.678731689453125,-1.0234999656677246,-3.760999917984009,2.6442999839782715
1702299708326731800,8.738731689453125,1.1073999404907227,4.269000053405762,0.8043999671936035
1702299708386731800,8.798731689453126,3.167799949645996,-3.366499900817871,-5.024699687957764
1702299708446731800,8.858731689453125,-1.417799949645996,4.395599842071533,-0.38419997692108154
1702299708506731800,8.918731689453125,-1.2767999172210693,-1.3051999807357788,0.760699987411499
1702299708566731800,8.978731689453125,-6.145299911499023,0.5916000008583069,1.820099949836731
1702299708626731800,9.038731689453124,1.7673999071121216,2.1557998657226562,0.8574000000953674
1702299708686731800,9.098731689453125,-1.7039999961853027,-2.288599967956543,0.4554999768733978
1702299708746731800,9.158731689453125,-0.4892999827861786,-1.588499903678894,1.0515999794006348
1702299708806731800,9.218731689453126,1.0972999334335327,-1.378499984741211,-1.8585000038146973
1702299708866731800,9.278731689453124,2.8788998126983643,-1.7493000030517578,-1.5447999238967896
1702299708926731800,9.338731689453125,-0.17149999737739563,-0.4129999876022339,-1.031999945640564
1702299708986731800,9.398731689453125,1.5059999227523804,-0.2694999873638153,-1.722499966621399
1702299709046731800,9.458731689453124,0.8176999688148499,0.21059998869895935,-2.5929999351501465
1702299709106731800,9.518731689453125,1.0223000049591064,1.7969999313354492,-1.327199935913086
1702299709166731800,9.578731689453125,-0.6938999891281128,5.7739996910095215,0.24279999732971191
1702299709226731800,9.638731689453126,0.24300000071525574,1.761299967765808,2.4940998554229736
1702299709286731800,9.698731689453124,-0.7964999675750732,-3.047799825668335,3.4758999347686768
1702299709346731800,9.758731689453125,-1.0684000253677368,-3.1425998210906982,0.03759999945759773
1702299709406731800,9.818731689453125,-0.6836000084877014,-2.871799945831299,3.335599899291992
1702299709466731800,9.878731689453126,0.0142000000923872,-2.4830000400543213,3.753700017929077
1702299709526731800,9.938731689453125,1.9773999452590942,1.9986000061035156,-6.553099632263184
1702299709586731800,9.998731689453125,1.6130999326705933,-2.493799924850464,0.12950000166893005
1702299709646731800,10.058731689453126,-1.0109999179840088,6.203499794006348,1.0562999248504639
1702299709706731800,10.118731689453124,-4.024099826812744,0.9159999489784241,2.2623000144958496
1702299709766731800,10.178731689453125,-3.046999931335449,-0.6280999779701233,1.5465999841690063
1702299709826731800,10.238731689453125,-0.9106000065803528,0.667199969291687,0.4494999945163727
1702299709886731800,10.298731689453126,-1.1157000064849854,-1.6944999694824219,3.43969988822937
1702299709946731800,10.358731689453125,1.1827999353408813,-0.8643999695777893,-1.6334999799728394
1702299710006731800,10.418731689453125,1.8245999813079834,-2.488499879837036,-2.0312998294830322
1702299710066731800,10.478731689453125,1.5983999967575073,-0.33629998564720154,-1.2032999992370605
1702299710126731800,10.538731689453124,1.4672999382019043,-0.738599956035614,-1.4541999101638794
1702299710186731800,10.598731689453125,0.3741999864578247,-0.3262999951839447,-1.9962999820709229
1702299710246731800,10.658731689453125,0.04739999771118164,1.4427999258041382,-1.7692999839782715
1702299710306731800,10.718731689453126,-0.9371999502182007,5.118299961090088,-0.4052000045776367
1702299710366731800,10.778731689453124,0.6563000082969666,2.6856000423431396,1.2344999313354492
1702299710426731800,10.838731689453125,-0.5358999967575073,-2.188499927520752,2.841899871826172
1702299710486731800,10.898731689453125,-0.6204000115394592,-2.5655999183654785,0.9891999959945679
1702299710546731800,10.958731689453124,-0.8944000005722046,-2.32069993019104,3.43149995803833
1702299710606731800,11.018731689453125,-0.15549999475479126,-2.8413000106811523,3.7827999591827393
1702299710666731800,11.078731689453125,5.707200050354004,3.404599905014038,-6.495699882507324
1702299710726731800,11.138731689453126,1.9227999448776245,-1.6473000049591064,0.7235999703407288
1702299710786731800,11.198731689453124,-1.6018999814987183,3.7400999069213867,-1.2657999992370605
1702299710846731800,11.258731689453125,-3.3369998931884766,1.8840999603271484,-1.0246000289916992
1702299710906731800,11.318731689453125,-3.1190998554229736,0.11889999359846115,3.0878000259399414
1702299710966731800,11.378731689453126,-1.0857999324798584,2.360100030899048,1.382200002670288
1702299711026731800,11.438731689453125,-0.2547999918460846,-1.702799916267395,1.4241999387741089
1702299711086731800,11.498731689453125,-0.9635999798774719,-0.9598000049591064,0.8499000072479248
1702299711146731800,11.558731689453126,2.3487000465393066,-1.740299940109253,-1.5836999416351318
1702299711206731800,11.618731689453124,2.320199966430664,-1.3693000078201294,-1.295199990272522
1702299711266731800,11.678731689453125,-0.5205000042915344,0.8550999760627747,-1.340499997138977
1702299711326731800,11.738731689453125,1.414699912071228,-0.32989999651908875,-1.4566999673843384
1702299711386731800,11.798731689453126,0.8180999755859375,-0.2110999971628189,-2.8086998462677
1702299711446731800,11.858731689453125,0.9001999497413635,0.23849999904632568,-0.003399999812245369
1702299711506731800,11.918731689453125,-0.5857999920845032,5.236099720001221,-0.25220000743865967
1702299711566731800,11.978731689453125,-0.7174999713897705,1.2882999181747437,0.9217999577522278
1702299711626731800,12.038731689453124,-0.20989999175071716,-2.3554999828338623,2.3675999641418457
1702299711686731800,12.098731689453125,-1.3803999423980713,-2.663300037384033,0.47360000014305115
1702299711746731800,12.158731689453125,-1.2728999853134155,-2.8282999992370605,4.795199871063232
1702299711806731800,12.218731689453126,1.8975999355316162,2.361999988555908,2.26639986038208
1702299711866731800,12.278731689453124,1.3586000204086304,-4.836699962615967,-6.399199962615967
1702299711926731800,12.338731689453125,-2.3954999446868896,6.983999729156494,-0.39249998331069946
1702299711986731800,12.398731689453125,2.5534000396728516,-2.9948999881744385,2.528599977493286
1702299712046731800,12.458731689453124,-5.1798996925354,2.9221999645233154,0.3967999815940857
1702299712106731800,12.518731689453125,-0.45499998331069946,-0.23420000076293945,-2.33270001411438
1702299712166731800,12.578731689453125,-1.3805999755859375,-0.5036999583244324,1.7217999696731567
1702299712226759700,12.638759765625,-0.8499999642372131,-1.0325000286102295,0.5435999631881714
1702299712286731800,12.698731689453124,1.6548999547958374,-1.472000002861023,-0.011399999260902405
1702299712346731800,12.758731689453125,1.0966999530792236,-1.8819999694824219,-3.0687999725341797
1702299712406731800,12.818731689453125,2.417099952697754,-3.020900011062622,-2.227599859237671
1702299712466731800,12.878731689453126,1.097599983215332,0.3662000000476837,-0.12449999898672104
1702299712526731800,12.938731689453125,-0.48749998211860657,-0.5390999913215637,0.5586000084877014
1702299712586731800,12.998731689453125,-0.4560000002384186,2.464900016784668,-4.316100120544434
1702299712646731800,13.058731689453126,2.4082999229431152,3.1549999713897705,-1.524399995803833
1702299712706731800,13.118731689453124,-1.2900999784469604,3.5286998748779297,2.1821999549865723
1702299712766731800,13.178731689453125,0.26819998025894165,-1.3217999935150146,2.3557000160217285
1702299712826731800,13.238731689453125,-1.440999984741211,-3.9850997924804688,2.6903998851776123
1702299712886731800,13.298731689453126,-0.7001000046730042,-4.008399963378906,2.023900032043457
1702299712946731800,13.358731689453125,2.110599994659424,-3.2458999156951904,3.5849997997283936
1702299713006731800,13.418731689453125,3.5360000133514404,2.6203999519348145,-7.349499702453613
1702299713066731800,13.478731689453125,1.6984999179840088,2.844899892807007,0.13660000264644623
1702299713126731800,13.538731689453124,-0.2669000029563904,0.25119999051094055,0.6930999755859375
1702299713186731800,13.598731689453125,-5.902100086212158,2.4544999599456787,0.9673999547958374
1702299713246731800,13.658731689453125,-1.7811999320983887,2.1771998405456543,-0.5702999830245972
1702299713306733300,13.7187333984375,-0.6033999919891357,-1.8478999137878418,1.9256999492645264
1702299713366731800,13.778731689453124,-1.618899941444397,-1.3890999555587769,1.42739999294281
1702299713426731800,13.838731689453125,1.405900001525879,-1.8279999494552612,-1.1128000020980835
1702299713486731800,13.898731689453125,2.34660005569458,-1.994499921798706,-1.3529999256134033
1702299713546731800,13.958731689453124,1.5841000080108643,-0.2513999938964844,-3.2269999980926514
1702299713606731800,14.018731689453125,1.33079993724823,0.06369999796152115,-1.477199912071228
1702299713666731800,14.078731689453125,1.1349999904632568,-0.24069999158382416,-1.3157999515533447
1702299713726731800,14.138731689453126,-0.9484999775886536,-0.22139999270439148,-0.8488999605178833
1702299713786731800,14.198731689453124,1.138700008392334,6.702399730682373,0.014099999330937862
1702299713846731800,14.258731689453125,-0.24939998984336853,1.223699927330017,0.902899980545044
1702299713906731800,14.318731689453125,0.724299967288971,0.7410999536514282,1.5541999340057373
1702299713966731800,14.378731689453126,-0.9205999970436096,-2.1445999145507812,3.5256998538970947
1702299714026731800,14.438731689453125,-0.8216999769210815,-3.7545998096466064,3.977099895477295
1702299714086731800,14.498731689453125,2.3724000453948975,0.4311999976634979,0.9334999918937683
1702299714146731800,14.558731689453126,2.1861000061035156,-3.6031999588012695,-5.2032999992370605
1702299714206731800,14.618731689453124,1.5271999835968018,5.132899761199951,-2.1238999366760254
1702299714266731800,14.678731689453125,-4.857399940490723,-1.1136000156402588,6.316199779510498
1702299714326759700,14.738759765625,-1.9852999448776245,8.337699890136719,1.0598000288009644
1702299714386731800,14.798731689453126,-1.4213999509811401,-1.8913999795913696,-0.9089999794960022
1702299714446731800,14.858731689453125,-0.8822000026702881,0.6620000004768372,1.74809992313385
1702299714506731800,14.918731689453125,1.0388000011444092,-2.50849986076355,-0.13689999282360077
1702299714566731800,14.978731689453125,0.8985999822616577,-1.0358999967575073,-1.4364999532699585
1702299714626731800,15.038731689453124,0.4041999876499176,-1.7280999422073364,-0.33789998292922974
1702299714686759700,15.098759765625,3.4729998111724854,-2.9358999729156494,-0.8420999646186829
1702299714746731800,15.158731689453125,-0.5597999691963196,1.8502999544143677,-1.206399917602539
1702299714806731800,15.218731689453126,0.23739999532699585,0.515500009059906,-2.3975000381469727
1702299714866731800,15.278731689453124,3.307799816131592,0.4878000020980835,-4.249199867248535
1702299714926731800,15.338731689453125,0.11329999566078186,0.18779999017715454,-0.7166000008583069
1702299714986731800,15.398731689453125,-1.049799919128418,5.537899971008301,1.0429999828338623
1702299715046731800,15.458731689453124,1.5026999711990356,-0.5663999915122986,1.9661999940872192
1702299715106731800,15.518731689453125,-1.8601999282836914,-2.323899984359741,3.072000026702881
1702299715166731800,15.578731689453125,-0.9526000022888184,-1.4254999160766602,1.8385999202728271
1702299715226731800,15.638731689453126,-1.1435999870300293,-3.12719988822937,3.493499994277954
1702299715286731800,15.698731689453124,4.582900047302246,2.8192999362945557,0.1818999946117401
1702299715346731800,15.758731689453125,4.024600028991699,-7.171899795532227,-7.252599716186523
1702299715406731800,15.818731689453125,-0.5669999718666077,3.5607998371124268,-0.9049999713897705
1702299715466731800,15.878731689453126,0.42980000376701355,3.191200017929077,4.836199760437012
1702299715526731800,15.938731689453125,-4.609699726104736,-0.9752999544143677,3.2246999740600586
1702299715586731800,15.998731689453125,2.071199893951416,3.4031999111175537,0.3682999908924103
1702299715646731800,16.058731689453126,-1.5231999158859253,-2.9099998474121094,0.9961999654769897
1702299715706731800,16.118731689453124,-0.6399999856948853,0.21930000185966492,0.895799994468689
1702299715766731800,16.178731689453127,1.5891000032424927,-1.190999984741211,-0.45989999175071716
1702299715826731800,16.238731689453125,3.3892998695373535,-1.756500005722046,-1.6532999277114868
1702299715886731800,16.298731689453124,-2.116799831390381,0.15969999134540558,-3.745999813079834
1702299715946731800,16.358731689453126,0.3330000042915344,0.41509997844696045,-2.2437000274658203
1702299716006731800,16.418731689453125,0.7339000105857849,0.2766999900341034,-0.664900004863739
1702299716066731800,16.478731689453124,-1.7812999486923218,1.15339994430542,-0.04179999977350235
1702299716126731800,16.538731689453126,0.47349998354911804,6.803699970245361,-0.21209999918937683
1702299716186731800,16.598731689453125,1.4467999935150146,-0.9734999537467957,1.8125
1702299716246731800,16.658731689453123,-0.9177999496459961,-2.46370005607605,3.5951998233795166
1702299716306731800,16.718731689453126,-0.9961999654769897,-2.936699867248535,-1.1460000276565552
1702299716366731800,16.778731689453124,-0.5282999873161316,-1.720099925994873,5.082299709320068
1702299716426759700,16.838759765625,1.63319993019104,-0.2777999937534332,2.291800022125244
1702299716486731800,16.898731689453125,1.549299955368042,-1.8984999656677246,-10.998799324035645
1702299716546731800,16.958731689453124,0.037299998104572296,2.4096999168395996,-2.3118999004364014
1702299716606731800,17.018731689453126,-3.523599863052368,-0.01269999984651804,6.345099925994873
1702299716666731800,17.078731689453125,-1.3610999584197998,5.71589994430542,1.4688999652862549
1702299716726731800,17.138731689453124,-2.5353000164031982,-0.5419999957084656,-0.28669998049736023
1702299716786731800,17.198731689453126,-0.6208999752998352,-1.6098999977111816,0.49789997935295105
1702299716846731800,17.258731689453125,0.4470999836921692,-1.114300012588501,1.2972999811172485
1702299716906731800,17.318731689453124,1.417699933052063,-1.4706000089645386,0.5011000037193298
1702299716966731800,17.378731689453126,3.737799882888794,-3.3307998180389404,-2.015899896621704
1702299717026731800,17.438731689453125,3.8264999389648438,-0.6893999576568604,-4.921099662780762
1702299717086731800,17.498731689453123,0.9721999764442444,0.9985999464988708,-0.3788999915122986
1702299717146731800,17.558731689453126,-0.0471000000834465,0.9703999757766724,-0.513700008392334
1702299717206731800,17.618731689453124,-2.38100004196167,1.1518999338150024,-3.232499837875366
1702299717266731800,17.678731689453127,3.8409998416900635,8.819799423217773,0.4772000014781952
1702299717326731800,17.738731689453125,0.19439999759197235,-0.6786999702453613,1.4584999084472656
1702299717386731800,17.798731689453124,-1.0398999452590942,-2.0808000564575195,4.10260009765625
1702299717446731800,17.858731689453126,-1.743499994277954,-3.501699924468994,2.3622000217437744
1702299717506731800,17.918731689453125,-0.8021999597549438,-2.65339994430542,4.055599689483643
1702299717566731800,17.978731689453124,4.750999927520752,5.264899730682373,-2.709399938583374
1702299717626731800,18.038731689453126,4.901299953460693,-5.193699836730957,-3.6245999336242676
1702299717686731800,18.098731689453125,-2.5177998542785645,6.060499668121338,-0.677299976348877
1702299717746731800,18.158731689453123,-4.182199954986572,-0.12159999459981918,3.756699800491333
1702299717806731800,18.218731689453126,-1.1227999925613403,5.913899898529053,2.9089999198913574
1702299717866731800,18.278731689453124,0.08500000089406967,-0.30820000171661377,-0.03399999812245369
1702299717926733300,18.3387333984375,-0.35920000076293945,-2.2625999450683594,1.385599970817566
1702299717986731800,18.398731689453125,-0.48420000076293945,-0.5482000112533569,0.49869999289512634
1702299718046731800,18.458731689453124,1.7130999565124512,-1.2243999242782593,-0.8130999803543091
1702299718106731800,18.518731689453126,3.1982998847961426,-1.9953999519348145,-0.6408999562263489
1702299718166731800,18.578731689453125,1.309999942779541,1.1097999811172485,-1.7980999946594238
1702299718226731800,18.638731689453124,0.6941999793052673,-0.03709999844431877,-1.5655999183654785
1702299718286731800,18.698731689453126,1.9859999418258667,0.48729997873306274,-2.506199836730957
1702299718346731800,18.758731689453125,-0.23579999804496765,0.8253999948501587,0.09749999642372131
1702299718406731800,18.818731689453124,-1.3914999961853027,6.464099884033203,-1.4584999084472656
1702299718466731800,18.878731689453126,1.6746999025344849,-0.6627999544143677,0.00699999975040555
1702299718526759700,18.938759765625,-0.17559999227523804,-2.464599847793579,1.3128999471664429
1702299718586731800,18.998731689453123,-0.2791000008583069,-2.7936999797821045,-0.3813999891281128
1702299718646731800,19.058731689453126,-1.7906999588012695,-1.1231999397277832,4.000999927520752
1702299718706731800,19.118731689453124,1.0788999795913696,-0.8723999857902527,3.4589998722076416
1702299718766731800,19.178731689453127,1.9645999670028687,-1.2762999534606934,-3.2897000312805176
1702299718826731800,19.238731689453125,0.8939999938011169,-1.8703999519348145,-3.9214999675750732
1702299718886731800,19.298731689453124,2.1775999069213867,6.480499744415283,-3.9144999980926514
1702299718946731800,19.358731689453126,-5.136300086975098,-1.716599941253662,6.724899768829346
1702299719006731800,19.418731689453125,-3.352799892425537,6.548199653625488,4.409599781036377
1702299719066731800,19.478731689453124,-1.3988999128341675,0.3130999803543091,0.6681999564170837
1702299719126731800,19.538731689453126,-0.8845999836921692,-3.1806998252868652,-1.6089999675750732
1702299719186731800,19.598731689453125,1.020300030708313,-1.4735000133514404,-0.25380000472068787
1702299719246731800,19.658731689453123,1.2913999557495117,-0.779699981212616,0.11580000072717667
1702299719306731800,19.718731689453126,2.8961000442504883,-2.974599838256836,-0.8901000022888184
1702299719366731800,19.778731689453124,1.426800012588501,0.8955000042915344,-3.3153998851776123
1702299719426731800,19.838731689453127,-0.507099986076355,1.285499930381775,-1.534500002861023
1702299719486731800,19.898731689453125,0.8842999935150146,1.1617000102996826,-2.375
1702299719546731800,19.958731689453124,-2.2695999145507812,2.1633999347686768,0.1793999969959259
1702299719606731800,20.018731689453126,1.2075999975204468,5.908599853515625,1.357699990272522
1702299719666731800,20.078731689453125,0.4153999984264374,-1.6825000047683716,2.0630998611450195
1702299719726731800,20.138731689453124,-1.1761000156402588,-3.5506999492645264,3.4804999828338623
1702299719786731800,20.198731689453126,-1.2635999917984009,-2.160599946975708,2.1928000450134277
1702299719846731800,20.258731689453125,-0.09279999881982803,-2.880699872970581,3.736599922180176
1702299719906731800,20.318731689453124,4.642099857330322,2.9663000106811523,-1.9345999956130981
1702299719966731800,20.378731689453126,6.803199768066406,-4.049099922180176,-5.026700019836426
1702299720026731800,20.438731689453125,-5.269099712371826,3.996999979019165,0.3075000047683716
1702299720086731800,20.498731689453123,-1.5586999654769897,3.5501999855041504,2.449199914932251
1702299720146731800,20.558731689453126,-3.628999948501587,0.4748999774456024,2.728799819946289
1702299720206731800,20.618731689453124,-0.272599995136261,1.2685999870300293,1.8750998973846436
1702299720266731800,20.678731689453127,-0.8503999710083008,-1.5864999294281006,2.174999952316284
1702299720326731800,20.738731689453125,1.4836000204086304,-0.5439000129699707,0.4912000000476837
1702299720386731800,20.798731689453124,0.24079999327659607,-1.7210999727249146,-1.0326999425888062
1702299720446731800,20.858731689453126,4.7652997970581055,-1.5441999435424805,-2.00219988822937
1702299720506731800,20.918731689453125,0.3513000011444092,0.31859999895095825,-1.973099946975708
1702299720566731800,20.978731689453124,0.98499995470047,0.645799994468689,-1.5195999145507812
1702299720626759700,21.038759765625,-0.3199000060558319,1.1593999862670898,-2.6087000370025635
1702299720686731800,21.098731689453125,0.23169998824596405,1.1129999160766602,-1.6159999370574951
1702299720746731800,21.158731689453123,-0.42479997873306274,4.779599666595459,-0.4794999957084656
1702299720806731800,21.218731689453126,1.6583999395370483,-1.1460000276565552,0.636900007724762
1702299720866731800,21.278731689453124,-1.4967999458312988,-2.04259991645813,1.9803999662399292
1702299720926731800,21.338731689453127,-1.590999960899353,-3.011899948120117,2.8768999576568604
1702299720986731800,21.398731689453125,-1.5173999071121216,-2.4357998371124268,5.012099742889404
1702299721046731800,21.458731689453124,7.6875996589660645,5.223199844360352,-0.9668999910354614
1702299721106731800,21.518731689453126,-0.2635999917984009,-6.393199920654297,-6.198099613189697
1702299721166731800,21.578731689453125,-1.7041999101638794,5.936699867248535,-2.494799852371216
1702299721226731800,21.638731689453124,-0.46959999203681946,-2.008699893951416,3.199899911880493
1702299721286731800,21.698731689453126,-3.488600015640259,3.9131999015808105,0.45089998841285706
1702299721346731800,21.758731689453125,-0.06920000165700912,0.8611999750137329,-0.6247000098228455
1702299721406731800,21.818731689453124,-0.6036999821662903,-2.2396998405456543,1.6258999109268188
1702299721466731800,21.878731689453126,-1.0450999736785889,-0.7676999568939209,1.9332998991012573
1702299721526731800,21.938731689453125,2.2207000255584717,-2.136399984359741,-1.1517999172210693
1702299721586731800,21.998731689453123,2.42330002784729,-1.9356999397277832,-2.731299877166748
1702299721646731800,22.058731689453126,0.7900999784469604,0.6680999994277954,-1.6634999513626099
1702299721706731800,22.118731689453124,1.3680999279022217,0.3243999779224396,-2.4756999015808105
1702299721766731800,22.178731689453127,-1.3788999319076538,-0.24619999527931213,-1.2070000171661377
1702299721826731800,22.238731689453125,0.7721999883651733,3.371799945831299,-0.9129999876022339
1702299721886731800,22.298731689453124,-0.5830000042915344,4.274499893188477,1.5726999044418335
1702299721946731800,22.358731689453126,1.187399983406067,-0.7069999575614929,2.2030999660491943
1702299722006731800,22.418731689453125,-0.9200999736785889,-2.054499864578247,2.6312999725341797
1702299722066731800,22.478731689453124,-0.960599958896637,-2.518699884414673,2.611599922180176
1702299722126731800,22.538731689453126,0.2522999942302704,-3.772899866104126,4.293299674987793
1702299722186731800,22.598731689453125,4.068900108337402,8.488200187683105,-2.2039999961853027
1702299722246731800,22.658731689453123,7.564199924468994,-6.813999652862549,-3.4838998317718506
1702299722306731800,22.718731689453126,-0.776199996471405,8.157099723815918,3.4556000232696533
1702299722366731800,22.778731689453124,-5.562299728393555,-0.5209999680519104,1.0877000093460083
1702299722426731800,22.838731689453127,-1.638700008392334,3.480299949645996,1.4772999286651611
1702299722486731800,22.898731689453125,-1.5798999071121216,-0.40829998254776,1.9586999416351318
1702299722546731800,22.958731689453124,-1.2888000011444092,-0.6327999830245972,2.721799850463867
1702299722606731800,23.018731689453126,1.5645999908447266,-1.3517999649047852,-2.1011998653411865
1702299722666731800,23.078731689453125,2.2105000019073486,-2.9138998985290527,-2.3282999992370605
1702299722726759700,23.138759765625,3.9228999614715576,-1.7630000114440918,-0.4786999821662903
1702299722786731800,23.198731689453126,1.2067999839782715,1.4146000146865845,-1.5712999105453491
1702299722846731800,23.258731689453125,0.6202999949455261,0.35670000314712524,-0.9711999893188477
1702299722906731800,23.318731689453124,1.4408999681472778,0.6261000037193298,-3.2732999324798584
1702299722966731800,23.378731689453126,0.4521999955177307,0.7754999995231628,-1.5436999797821045
1702299723026731800,23.438731689453125,-0.4059999883174896,6.111000061035156,-0.7045999765396118
1702299723086731800,23.498731689453123,1.5397999286651611,-1.9397000074386597,0.6297000050544739
1702299723146731800,23.558731689453126,-0.346699982881546,-1.5683999061584473,1.3969999551773071
1702299723206731800,23.618731689453124,-1.375100016593933,-1.8437999486923218,3.643899917602539
1702299723266731800,23.678731689453127,-1.3752999305725098,-1.9581999778747559,4.466399669647217
1702299723326731800,23.738731689453125,5.893399715423584,1.674899935722351,-0.8300999999046326
1702299723386731800,23.798731689453124,0.87909996509552,-4.166999816894531,-2.6338999271392822
1702299723446731800,23.858731689453126,-0.6412999629974365,3.7700998783111572,-3.220099925994873
1702299723506731800,23.918731689453125,0.776199996471405,2.1540000438690186,1.316100001335144
1702299723566731800,23.978731689453124,-3.704899787902832,2.700399875640869,3.858599901199341
1702299723626731800,24.038731689453126,-0.12370000034570694,0.9581999778747559,1.6317999362945557
1702299723686731800,24.098731689453125,-0.1832999885082245,-2.0144999027252197,0.6599999666213989
1702299723746731800,24.158731689453123,-1.9928998947143555,-0.6563000082969666,0.06449999660253525
1702299723806731800,24.218731689453126,4.840199947357178,-1.313499927520752,-1.4675999879837036
1702299723866731800,24.278731689453124,0.9393999576568604,-2.384899854660034,-1.6459999084472656
1702299723926731800,24.338731689453127,0.8840999603271484,0.7289999723434448,-2.0527000427246094
1702299723986731800,24.398731689453125,0.15160000324249268,-1.7615998983383179,-0.3000999987125397
1702299724046731800,24.458731689453124,0.3125999867916107,1.4458999633789062,-1.2639999389648438
1702299724106731800,24.518731689453126,-1.3600999116897583,4.45419979095459,-1.8018999099731445
1702299724166731800,24.578731689453125,1.7857999801635742,4.530099868774414,1.0187000036239624
1702299724226731800,24.638731689453124,1.0473999977111816,-1.858799934387207,3.1161999702453613
1702299724286731800,24.698731689453126,-0.8687999844551086,-3.2509000301361084,2.16759991645813
1702299724346731800,24.758731689453125,-1.3982999324798584,-1.8036999702453613,3.209699869155884
1702299724406731800,24.818731689453124,-0.2199999988079071,-2.7219998836517334,4.596799850463867
1702299724466731800,24.878731689453126,3.6816999912261963,2.825700044631958,-2.541599988937378
1702299724526731800,24.938731689453125,5.86329984664917,-4.556999683380127,-6.843299865722656
1702299724586731800,24.998731689453123,-1.930299997329712,6.59660005569458,-0.909500002861023
1702299724646731800,25.058731689453126,2.240499973297119,-0.25669997930526733,4.572499752044678
1702299724706731800,25.118731689453124,-2.8115999698638916,3.93179988861084,0.8118000030517578
1702299724766731800,25.178731689453127,-1.4524999856948853,-0.022099999710917473,0.065700002014637
1702299724826759700,25.238759765625,-0.6920999884605408,-1.5789999961853027,1.6505999565124512
1702299724886731800,25.298731689453124,-0.9292999505996704,-0.5465999841690063,0.899399995803833
1702299724946731800,25.358731689453126,2.1965999603271484,-1.7659999132156372,-1.2237999439239502
1702299725006731800,25.418731689453125,3.0471999645233154,-2.6026999950408936,-1.990299940109253
1702299725066731800,25.478731689453124,0.635699987411499,0.3659999966621399,-1.000499963760376
1702299725126731800,25.538731689453126,1.3845999240875244,1.326799988746643,-0.7568999528884888
1702299725186731800,25.598731689453125,0.5358999967575073,0.8923999667167664,-2.741999864578247
1702299725246731800,25.658731689453123,0.3549000024795532,-1.7411999702453613,-1.7810999155044556
1702299725306731800,25.718731689453126,-0.8895999789237976,5.052999973297119,-1.7382999658584595
1702299725366731800,25.778731689453124,1.1299999952316284,0.6761999726295471,1.1139999628067017
1702299725426731800,25.838731689453127,1.1572999954223633,-2.690500020980835,-0.3958999812602997
1702299725486731800,25.898731689453125,-2.3545000553131104,-1.9919999837875366,2.2458999156951904
1702299725546731800,25.958731689453124,-1.8252999782562256,-0.09600000083446503,4.9918999671936035
1702299725606731800,26.018731689453126,1.8509999513626099,0.5045999884605408,3.281899929046631
1702299725666731800,26.078731689453125,-0.552299976348877,-1.781499981880188,-5.635200023651123
1702299725726731800,26.138731689453124,0.9330999851226807,-2.875200033187866,-0.2775999903678894
1702299725786731800,26.198731689453126,-0.5891000032424927,9.485699653625488,1.142799973487854
1702299725846731800,26.258731689453125,-3.371699810028076,-1.3801000118255615,1.8543999195098877
1702299725906731800,26.318731689453124,-2.88319993019104,5.454899787902832,4.264400005340576
1702299725966731800,26.378731689453126,0.8824999928474426,0.47929999232292175,0.9194999933242798
1702299726026731800,26.438731689453125,-1.0587999820709229,-3.783099889755249,0.8755999803543091
1702299726086731800,26.498731689453123,2.16159987449646,-1.2336000204086304,-1.8204998970031738
1702299726146731800,26.558731689453126,1.437600016593933,-1.0549999475479126,-1.1374999284744263
1702299726206731800,26.618731689453124,2.700199842453003,-2.3989999294281006,-0.5561000108718872
1702299726266731800,26.678731689453127,1.8149999380111694,1.4916999340057373,-1.8118999004364014
1702299726326731800,26.738731689453125,0.08460000157356262,0.837399959564209,-1.1323999166488647
1702299726386731800,26.798731689453124,2.434299945831299,1.1650999784469604,-3.303799867630005
1702299726446731800,26.858731689453126,-2.143899917602539,1.1619999408721924,0.5216999650001526
1702299726506731800,26.918731689453125,1.4365999698638916,4.535599708557129,-0.04399999976158142
1702299726566731800,26.978731689453124,0.09009999781847,0.22259999811649323,0.9370999932289124
1702299726626731800,27.038731689453126,0.12099999934434891,-2.2121999263763428,1.9418998956680298
1702299726686731800,27.098731689453125,-1.105199933052063,-1.9056999683380127,2.5498998165130615
1702299726746731800,27.158731689453123,-1.5397999286651611,-1.489300012588501,4.383199691772461
1702299726806731800,27.218731689453126,1.9739999771118164,-0.19829998910427094,2.448699951171875
1702299726866731800,27.278731689453124,2.3922998905181885,-0.6432999968528748,-5.868399620056152
1702299726926759700,27.338759765625,2.159600019454956,-0.38279998302459717,-1.031499981880188
1702299726986731800,27.398731689453125,-2.294999837875366,0.3937000036239624,0.8360999822616577
1702299727046731800,27.458731689453124,-1.1567999124526978,4.3105998039245605,2.6816999912261963
1702299727106731800,27.518731689453126,-3.2194998264312744,1.2696999311447144,3.490000009536743
1702299727166731800,27.578731689453125,2.209699869155884,0.6740999817848206,0.4659999907016754
1702299727226731800,27.638731689453124,-0.35029998421669006,-3.191699981689453,0.31790000200271606
1702299727286731800,27.698731689453126,-0.7333999872207642,-0.8055999875068665,0.07419999688863754
1702299727346731800,27.758731689453125,2.801299810409546,-1.9133999347686768,-1.0898000001907349
1702299727406731800,27.818731689453124,3.305799961090088,-1.5647999048233032,-1.3393999338150024
1702299727466731800,27.878731689453126,1.5211999416351318,1.2015999555587769,-2.3783998489379883
1702299727526731800,27.938731689453125,0.7723999619483948,1.0960999727249146,-1.4845999479293823
1702299727586731800,27.998731689453123,-0.9971999526023865,-0.8937999606132507,0.33379998803138733
1702299727646731800,28.058731689453126,-0.2816999852657318,3.5188000202178955,-1.1585999727249146
1702299727706731800,28.118731689453124,0.6952999830245972,3.188199996948242,0.6747999787330627
1702299727766731800,28.178731689453127,0.8274999856948853,-1.5170999765396118,2.2925000190734863
1702299727826731800,28.238731689453125,-0.9921999573707581,-3.4856998920440674,2.367300033569336
1702299727886731800,28.298731689453124,-1.5239999294281006,-2.6531999111175537,3.2209999561309814
1702299727946731800,28.358731689453126,-0.2710999846458435,-1.2208999395370483,4.182399749755859
1702299728006731800,28.418731689453125,7.3613996505737305,6.233999729156494,-2.474299907684326
1702299728066731800,28.478731689453124,6.366699695587158,-6.260799884796143,-5.077199935913086
1702299728126731800,28.538731689453126,-3.66759991645813,6.121699810028076,-0.5483999848365784
1702299728186731800,28.598731689453125,0.948699951171875,0.3886999785900116,3.0195000171661377
1702299728246731800,28.658731689453123,-4.114200115203857,2.1970999240875244,2.858799934387207
1702299728306731800,28.718731689453126,2.2560999393463135,1.3009999990463257,0.4814999997615814
1702299728366731800,28.778731689453124,-1.1419999599456787,-3.033399820327759,2.0291998386383057
1702299728426731800,28.838731689453127,-0.6621999740600586,-1.3437999486923218,-1.1728999614715576
1702299728486731800,28.898731689453125,2.662299871444702,-1.6870999336242676,-1.5312999486923218
1702299728546731800,28.958731689453124,3.1770999431610107,-1.6785999536514282,-1.2519999742507935
1702299728606731800,29.018731689453126,1.4229999780654907,0.21539999544620514,-2.7228000164031982
1702299728666733300,29.0787333984375,0.1817999929189682,0.9558999538421631,-1.809499979019165
1702299728726731800,29.138731689453124,0.13570000231266022,-0.8973000049591064,0.2240999937057495
1702299728786731800,29.198731689453126,-1.2318999767303467,3.740799903869629,-1.8614000082015991
1702299728846731800,29.258731689453125,0.6062999963760376,5.213799953460693,0.5029000043869019
1702299728906731800,29.318731689453124,1.6319999694824219,-0.5421000123023987,2.9739999771118164
1702299728966731800,29.378731689453126,-1.0595999956130981,-3.0699000358581543,3.540799856185913
1702299729026759700,29.438759765625,-0.5139999985694885,-3.6773998737335205,2.5414998531341553
1702299729086731800,29.498731689453123,-0.1404999941587448,-2.8135998249053955,4.2216997146606445
1702299729146731800,29.558731689453126,3.0120999813079834,5.2540998458862305,-4.355099678039551
1702299729206731800,29.618731689453124,8.762700080871582,-6.269000053405762,-2.4545998573303223
1702299729266731800,29.678731689453127,1.7350000143051147,12.055299758911133,2.296599864959717
1702299729326731800,29.738731689453125,-4.237199783325195,-1.8190999031066895,1.160499930381775
1702299729386731800,29.798731689453124,-2.766899824142456,2.8616998195648193,2.8130998611450195
1702299729446731800,29.858731689453126,-0.4422999918460846,0.06509999930858612,2.3008999824523926
1702299729506731800,29.918731689453125,-2.6640000343322754,-2.1333999633789062,2.4711999893188477
1702299729566731800,29.978731689453124,4.871099948883057,-1.861299991607666,-1.5963000059127808
1702299729626731800,30.038731689453126,4.3227996826171875,-0.785099983215332,-2.328699827194214
1702299729686731800,30.098731689453125,3.0565998554229736,-0.3066999912261963,-2.5160000324249268
1702299729746731800,30.158731689453123,0.9351999759674072,-0.5436999797821045,-2.1603000164031982
1702299729806731800,30.218731689453126,0.9668999910354614,1.0813000202178955,-2.5295000076293945
1702299729866731800,30.278731689453124,-0.05469999834895134,-0.41589999198913574,-1.4172999858856201
1702299729926731800,30.338731689453127,-0.02539999969303608,8.303400039672852,-1.2390999794006348
1702299729986731800,30.398731689453125,1.458799958229065,-0.27230000495910645,1.8610999584197998
1702299730046759700,30.458759765625,-0.9932999610900879,-2.608599901199341,3.678499937057495
1702299730106731800,30.518731689453126,-1.2324999570846558,-2.4340999126434326,-0.8420999646186829
1702299730166731800,30.578731689453125,-1.7353999614715576,-2.319200038909912,5.92549991607666
1702299730226731800,30.638731689453124,1.5662000179290771,0.3504999876022339,4.102200031280518
1702299730286731800,30.698731689453126,1.8119999170303345,-5.2769999504089355,-12.589799880981445
1702299730346731800,30.758731689453125,-0.9574999809265137,-2.2266998291015625,2.9542999267578125
1702299730406731800,30.818731689453124,2.9995999336242676,12.166999816894531,4.56089973449707
1702299730466731800,30.878731689453126,-4.096199989318848,0.38670000433921814,2.4077999591827393
1702299730526731800,30.938731689453125,-1.2829999923706055,2.666100025177002,2.0037999153137207
1702299730586731800,30.998731689453123,-1.0030999183654785,-1.4715999364852905,2.0769999027252197
1702299730646731800,31.058731689453126,0.24239999055862427,-1.0822999477386475,2.3633999824523926
1702299730706731800,31.118731689453124,4.367599964141846,-2.18149995803833,-3.384199857711792
1702299730766731800,31.178731689453127,3.7476999759674072,-2.248999834060669,-2.287600040435791
1702299730826731800,31.238731689453125,0.4967999756336212,2.254199981689453,-1.8151999711990356
1702299730886731800,31.298731689453124,1.7343999147415161,-0.1671999990940094,-0.878600001335144
1702299730946731800,31.358731689453126,0.6349999904632568,-1.6004999876022339,-1.4139000177383423
1702299731006731800,31.418731689453125,-1.188599944114685,2.5725998878479004,-1.7568999528884888
1702299731066731800,31.478731689453124,2.010499954223633,7.644199848175049,0.2386000007390976
1702299731126731800,31.538731689453126,1.5226999521255493,-1.5370999574661255,2.261199951171875
1702299731186731800,31.598731689453125,-1.2817000150680542,-2.695499897003174,3.188699960708618
1702299731246731800,31.658731689453123,-1.4428999423980713,-2.549799919128418,3.631199836730957
1702299731306731800,31.718731689453126,-0.4010999798774719,-0.5674999952316284,4.455499649047852
1702299731366731800,31.778731689453124,0.21249999105930328,-0.6517999768257141,-7.9427995681762695
1702299731426731800,31.838731689453127,-0.7804999947547913,3.45989990234375,-1.1740999221801758
1702299731486731800,31.898731689453125,3.473299980163574,2.120499849319458,1.5389000177383423
1702299731546731800,31.958731689453124,-5.515199661254883,2.122499942779541,1.8739999532699585
1702299731606731800,32.018731689453126,1.2085000276565552,1.1517999172210693,1.8204998970031738
1702299731666731800,32.07873168945312,-0.4291999936103821,-0.9702000021934509,1.2968000173568726
1702299731726731800,32.138731689453124,-1.18559992313385,-1.4121999740600586,1.7232999801635742
1702299731786731800,32.198731689453126,2.733599901199341,-0.6243000030517578,-1.4673999547958374
1702299731846731800,32.25873168945313,3.0189998149871826,-2.111599922180176,-1.0361000299453735
1702299731906731800,32.318731689453124,0.34129998087882996,0.1281999945640564,-0.2651999890804291
1702299731966731800,32.378731689453126,1.636299967765808,0.9952999949455261,-0.6800000071525574
1702299732026731800,32.43873168945313,1.3673999309539795,1.3565999269485474,-3.514899969100952
1702299732086731800,32.49873168945312,-1.673799991607666,-0.9860999584197998,-0.6419000029563904
1702299732146731800,32.558731689453126,1.3281999826431274,3.9677000045776367,-1.2526999711990356
1702299732206731800,32.61873168945313,-0.5823000073432922,2.111999988555908,1.4812999963760376
1702299732266731800,32.67873168945312,1.88510000705719,-1.6588000059127808,2.001499891281128
1702299732326731800,32.738731689453125,-1.1389999389648438,-3.0471999645233154,0.7691999673843384
1702299732386731800,32.79873168945313,-0.6225999593734741,-1.3464999198913574,4.8638997077941895
1702299732446731800,32.85873168945312,-0.0632999986410141,-0.4908999800682068,4.367499828338623
1702299732506731800,32.918731689453125,2.698199987411499,1.0734000205993652,-5.703199863433838
1702299732566731800,32.97873168945313,3.1803998947143555,-4.701399803161621,-0.5037999749183655
1702299732626731800,33.03873168945312,-0.9089999794960022,6.879299640655518,0.5012999773025513
1702299732686731800,33.098731689453125,-2.731600046157837,-1.0719000101089478,-1.0375999212265015
1702299732746731800,33.15873168945313,-1.8773999214172363,3.3302998542785645,3.20389986038208
1702299732806731800,33.21873168945312,0.4672999978065491,0.1517999917268753,1.2380999326705933
1702299732866731800,33.278731689453124,-0.42249998450279236,-1.754499912261963,3.0790998935699463
1702299732926731800,33.33873168945313,-0.4804999828338623,-0.8191999793052673,0.032600000500679016
1702299732986731800,33.39873168945312,4.440700054168701,-2.6771998405456543,-2.1407999992370605
1702299733046731800,33.458731689453124,2.4098000526428223,-1.1615999937057495,-1.018899917602539
1702299733106731800,33.518731689453126,1.4635999202728271,0.11490000039339066,-1.3720999956130981
1702299733166731800,33.57873168945312,0.4765999913215637,1.3246999979019165,-1.6740999221801758
1702299733226759700,33.638759765625,0.39819997549057007,1.2451999187469482,-2.3071000576019287
1702299733286731800,33.698731689453126,2.472399950027466,8.09060001373291,-0.004399999976158142
1702299733346731800,33.75873168945313,1.6859999895095825,0.7303000092506409,0.847599983215332
1702299733406731800,33.818731689453124,-0.1444000005722046,-2.2022998332977295,3.2572999000549316
1702299733466731800,33.878731689453126,-0.6256999969482422,-3.1693999767303467,2.2249999046325684
1702299733526731800,33.93873168945313,-0.39419999718666077,-3.1539998054504395,4.630499839782715
1702299733586731800,33.99873168945312,3.497999906539917,1.2674000263214111,1.0720999240875244
1702299733646731800,34.058731689453126,1.0887999534606934,-3.675299882888794,-9.602700233459473
1702299733706731800,34.11873168945313,1.1061999797821045,0.31790000200271606,0.8751999735832214
1702299733766731800,34.17873168945312,0.9220999479293823,3.455899953842163,4.220399856567383
1702299733826731800,34.238731689453125,-3.7918999195098877,1.7496999502182007,0.6735000014305115
1702299733886731800,34.29873168945313,-1.2968999147415161,0.5537999868392944,0.38609999418258667
1702299733946731800,34.35873168945312,0.4520999789237976,-0.9675999879837036,0.6283000111579895
1702299734006731800,34.418731689453125,-0.8315999507904053,-1.334399938583374,2.9348998069763184
1702299734066731800,34.47873168945313,2.6893999576568604,-0.47279998660087585,-0.7360999584197998
1702299734126731800,34.53873168945312,2.869499921798706,-2.7595999240875244,-2.5112998485565186
1702299734186731800,34.598731689453125,3.290599822998047,-0.42559999227523804,-1.9063999652862549
1702299734246731800,34.65873168945313,2.4323999881744385,1.2414000034332275,-1.3636000156402588
1702299734306731800,34.71873168945312,0.7803999781608582,1.2020000219345093,-3.3048999309539795
1702299734366731800,34.778731689453124,0.1437000036239624,1.4363999366760254,-2.3000998497009277
1702299734426731800,34.83873168945313,-1.2027000188827515,4.5578999519348145,-0.47519999742507935
1702299734486731800,34.89873168945312,1.0831999778747559,2.017400026321411,3.5677998065948486
1702299734546731800,34.958731689453124,-0.012999999336898327,-2.14739990234375,3.2737998962402344
1702299734606731800,35.018731689453126,-1.789099931716919,-2.4365999698638916,2.3036999702453613
1702299734666731800,35.07873168945312,-1.607800006866455,-1.8770999908447266,2.762199878692627
1702299734726731800,35.138731689453124,0.3869999945163727,-0.3222000002861023,4.490499973297119
1702299734786731800,35.198731689453126,0.7292999625205994,-0.548799991607666,-8.45319938659668
1702299734846731800,35.25873168945313,3.6905999183654785,-2.690999984741211,-0.5230000019073486
1702299734906731800,35.318731689453124,-2.348099946975708,5.488800048828125,1.6627999544143677
1702299734966731800,35.378731689453126,-4.208199977874756,1.5376999378204346,2.229099988937378
1702299735026731800,35.43873168945313,-0.49619999527931213,2.982300043106079,3.5707998275756836
1702299735086731800,35.49873168945312,0.20250000059604645,-0.5733999609947205,1.607800006866455
1702299735146731800,35.558731689453126,0.36910000443458557,-3.492799997329712,0.41909998655319214
1702299735206731800,35.61873168945313,1.5512999296188354,-1.7598999738693237,-1.7213000059127808
1702299735266731800,35.67873168945312,2.2311999797821045,-2.1115000247955322,-1.8669999837875366
1702299735326759700,35.738759765625,0.40639999508857727,-0.10179999470710754,-1.4244999885559082
1702299735386731800,35.79873168945313,1.9290999174118042,0.5455999970436096,-2.1389000415802
1702299735446731800,35.85873168945312,2.1671998500823975,0.9376999735832214,-2.071199893951416
1702299735506731800,35.918731689453125,1.7014999389648438,-0.424699991941452,-0.45499998331069946
1702299735566731800,35.97873168945313,-1.4589999914169312,4.291899681091309,-1.1312999725341797
1702299735626731800,36.03873168945312,1.7615000009536743,1.7842999696731567,0.5295000076293945
1702299735686731800,36.098731689453125,1.5960999727249146,-3.1043999195098877,2.019899845123291
1702299735746731800,36.15873168945313,-0.35979998111724854,-2.4735000133514404,-0.5429999828338623
1702299735806731800,36.21873168945312,-1.55649995803833,-1.2703999280929565,5.093499660491943
1702299735866731800,36.278731689453124,-0.4968999922275543,-0.9708999991416931,5.0767998695373535
1702299735926731800,36.33873168945313,3.375200033187866,1.8269000053405762,-5.911799907684326
1702299735986731800,36.39873168945312,5.530799865722656,-0.7792999744415283,-3.0288000106811523
1702299736046731800,36.458731689453124,-4.955899715423584,3.530399799346924,-1.198799967765808
1702299736106731800,36.518731689453126,-5.3673996925354,1.483299970626831,4.581199645996094
1702299736166731800,36.57873168945312,0.3797999918460846,4.997200012207031,3.6919000148773193
1702299736226731800,36.638731689453124,-0.9083999991416931,-0.761199951171875,1.4050999879837036
1702299736286731800,36.698731689453126,2.6561999320983887,-4.0177998542785645,-2.700399875640869
1702299736346731800,36.75873168945313,-1.8696999549865723,-1.8150999546051025,-0.003700000001117587
1702299736406731800,36.818731689453124,4.962100028991699,-1.3781999349594116,-2.044800043106079
1702299736466731800,36.878731689453126,0.6363999843597412,-0.40939998626708984,-1.6586999893188477
1702299736526731800,36.93873168945313,1.316100001335144,0.5608999729156494,-1.729599952697754
1702299736586731800,36.99873168945312,1.7901999950408936,0.5101000070571899,-1.7036999464035034
1702299736646731800,37.058731689453126,0.27230000495910645,2.232300043106079,0.8829999566078186
1702299736706731800,37.11873168945313,-0.10639999806880951,2.912799835205078,-0.7913999557495117
1702299736766731800,37.17873168945312,1.0680999755859375,3.514899969100952,1.6395999193191528
1702299736826731800,37.238731689453125,0.9339999556541443,-1.5161999464035034,2.4220998287200928
1702299736886731800,37.29873168945313,-0.1979999989271164,-2.523399829864502,3.0124998092651367
1702299736946731800,37.35873168945312,-0.5478000044822693,-3.3041999340057373,3.131199836730957
1702299737006731800,37.418731689453125,1.642899990081787,-2.78059983253479,2.95389986038208
1702299737066731800,37.47873168945313,3.1723999977111816,2.4131999015808105,-4.7540998458862305
1702299737126731800,37.53873168945312,3.5971999168395996,-4.689799785614014,-2.0423998832702637
1702299737186731800,37.598731689453125,2.4594998359680176,10.392999649047852,1.3396999835968018
1702299737246731800,37.65873168945313,-4.769999980926514,-0.7760999798774719,1.1309000253677368
1702299737306731800,37.71873168945312,-0.9431999921798706,2.0697999000549316,2.101799964904785
1702299737366731800,37.778731689453124,0.70660001039505,-1.1756999492645264,0.4007999897003174
1702299737426759700,37.838759765625,-0.7181000113487244,-2.063499927520752,3.5934998989105225
1702299737486731800,37.89873168945312,2.91159987449646,-0.8118000030517578,-2.334699869155884
1702299737546731800,37.958731689453124,1.376599907875061,-1.9254999160766602,-2.031100034713745
1702299737606731800,38.018731689453126,1.4605000019073486,-0.6196999549865723,-0.9378999471664429
1702299737666731800,38.07873168945312,1.5168999433517456,-0.6757000088691711,-1.3288999795913696
1702299737726731800,38.138731689453124,0.6771000027656555,0.20269998908042908,-1.501599907875061
1702299737786731800,38.198731689453126,2.1203999519348145,0.05810000002384186,-1.025399923324585
1702299737846731800,38.25873168945313,-1.3007999658584595,5.206500053405762,-2.013200044631958
1702299737906731800,38.318731689453124,2.1606998443603516,2.0046000480651855,0.19189999997615814
1702299737966731800,38.378731689453126,-0.08659999817609787,-1.9728999137878418,3.3987998962402344
1702299738026731800,38.43873168945313,0.07989999651908875,-2.311699867248535,0.8675000071525574
1702299738086731800,38.49873168945312,-0.5224999785423279,-3.026700019836426,3.6395998001098633
1702299738146731800,38.558731689453126,0.5404999852180481,-0.8664000034332275,3.9398999214172363
1702299738206731800,38.61873168945313,3.384500026702881,1.2369999885559082,-4.774600028991699
1702299738266731800,38.67873168945312,2.5488998889923096,-2.0304999351501465,0.19119998812675476
1702299738326731800,38.738731689453125,2.484499931335449,3.6679999828338623,-0.06369999796152115
1702299738386731800,38.79873168945313,-1.2378000020980835,0.5288000106811523,0.9383999705314636
1702299738446731800,38.85873168945312,-3.2637999057769775,1.3672000169754028,1.7148000001907349
1702299738506731800,38.918731689453125,1.2111999988555908,1.632599949836731,-0.03500000014901161
1702299738566731800,38.97873168945313,0.4829999804496765,-2.0859999656677246,1.7246999740600586
1702299738626731800,39.03873168945312,-2.2920000553131104,-0.6685000061988831,2.1327998638153076
1702299738686731800,39.098731689453125,1.8563998937606812,-1.5776000022888184,-1.40749990940094
1702299738746731800,39.15873168945313,4.664899826049805,-1.2759000062942505,-1.1919000148773193
1702299738806731800,39.21873168945312,0.7213000059127808,0.45260000228881836,-1.1644999980926514
1702299738866731800,39.278731689453124,3.3237998485565186,0.8521999716758728,-1.075600028038025
1702299738926731800,39.33873168945313,-0.680899977684021,0.6696000099182129,-1.1373999118804932
1702299738986731800,39.39873168945312,3.298499822616577,-0.7234999537467957,-3.9347000122070312
1702299739046731800,39.458731689453124,0.3619000017642975,2.2000999450683594,-0.8859999775886536
1702299739106731800,39.518731689453126,1.302299976348877,5.194699764251709,1.0583000183105469
1702299739166731800,39.57873168945312,1.049899935722351,-0.8782999515533447,1.2898999452590942
1702299739226731800,39.638731689453124,0.06359999626874924,-2.3320000171661377,0.6523999571800232
1702299739286731800,39.698731689453126,-0.5286999940872192,-2.756700038909912,2.8220999240875244
1702299739346731800,39.75873168945313,-0.6686999797821045,-4.871299743652344,3.9769999980926514
1702299739406731800,39.818731689453124,7.540999889373779,0.7594000101089478,-0.3012000024318695
1702299739466731800,39.878731689453126,4.032599925994873,-3.2149999141693115,-3.5421998500823975
1702299739526759700,39.938759765625,-1.3698999881744385,0.9900999665260315,2.9470999240875244
1702299739586731800,39.99873168945312,5.781899929046631,9.023099899291992,4.290499687194824
1702299739646731800,40.058731689453126,-5.188799858093262,-4.153299808502197,1.170199990272522
1702299739706731800,40.11873168945313,4.091399669647217,6.889400005340576,-2.5326998233795166
1702299739766731800,40.17873168945312,-1.250999927520752,-2.1332998275756836,2.947700023651123
1702299739826731800,40.238731689453125,-0.46320000290870667,0.20409999787807465,0.5773999691009521
1702299739886731800,40.29873168945313,1.3447999954223633,-1.9351999759674072,-0.676099956035614
1702299739946731800,40.35873168945312,2.9735000133514404,-0.6313999891281128,-0.8621000051498413
1702299740006731800,40.418731689453125,2.2400999069213867,-1.6947999000549316,-0.8113999962806702
1702299740066731800,40.47873168945313,-0.8327999711036682,1.9961999654769897,-0.28360000252723694
1702299740126731800,40.53873168945312,0.3471999764442444,3.5010998249053955,-3.4893999099731445
1702299740186731800,40.598731689453125,-0.43309998512268066,0.7605999708175659,-2.2858998775482178
1702299740246731800,40.65873168945313,2.4975998401641846,-0.37549999356269836,0.05639999732375145
1702299740306731800,40.71873168945312,-2.2970998287200928,1.0170999765396118,0.2800999879837036
1702299740366731800,40.778731689453124,1.8884999752044678,-0.026499999687075615,2.689199924468994
1702299740426731800,40.83873168945313,-0.3025999963283539,-1.9774999618530273,1.8432999849319458
1702299740486731800,40.89873168945312,-0.8555999994277954,-3.3546998500823975,3.4175000190734863
1702299740546731800,40.958731689453124,0.8730999827384949,-3.515399932861328,1.861899971961975
1702299740606731800,41.018731689453126,2.0999999046325684,-0.35929998755455017,-7.333799839019775
1702299740666731800,41.07873168945312,-0.6406999826431274,2.3945000171661377,-1.4607999324798584
1702299740726731800,41.138731689453124,-0.7907999753952026,0.4916999936103821,3.87719988822937
1702299740786731800,41.198731689453126,-1.4464999437332153,4.134900093078613,3.412899971008301
1702299740846731800,41.25873168945313,-1.664199948310852,1.0190999507904053,1.2461999654769897
1702299740906731800,41.318731689453124,0.491599977016449,-1.9321999549865723,-0.785099983215332
1702299740966731800,41.378731689453126,-1.4129999876022339,-1.0995999574661255,1.0397000312805176
1702299741026731800,41.43873168945313,1.5987999439239502,-0.7556999921798706,0.16849999129772186
1702299741086731800,41.49873168945312,1.20169997215271,-1.1734999418258667,-0.37779998779296875
1702299741146731800,41.558731689453126,3.625999927520752,-2.190199851989746,-1.4229999780654907
1702299741206731800,41.61873168945313,2.3564000129699707,0.5134999752044678,-0.04439999908208847
1702299741266731800,41.67873168945312,-1.8298999071121216,3.9231998920440674,-1.7317999601364136
1702299741326731800,41.738731689453125,0.761199951171875,0.19909998774528503,-2.440700054168701
1702299741386731800,41.79873168945313,-0.788599967956543,1.8286999464035034,-0.8476999998092651
1702299741446731800,41.85873168945312,1.2461999654769897,4.092400074005127,1.4749000072479248
1702299741506731800,41.918731689453125,0.4546999931335449,-1.7878999710083008,2.2732999324798584
1702299741566731800,41.97873168945313,-0.18239998817443848,-2.1606998443603516,1.9850999116897583
1702299741626759700,42.038759765625,-0.1876000016927719,-1.6175999641418457,1.8492000102996826
1702299741686731800,42.098731689453125,-0.23999999463558197,-1.2721999883651733,3.98009991645813
1702299741746731800,42.15873168945313,4.397599697113037,-1.6929999589920044,-0.840999960899353
1702299741806731800,42.21873168945312,1.6000999212265015,-3.7635998725891113,-4.35890007019043
1702299741866731800,42.278731689453124,0.12359999865293503,0.07660000026226044,1.02839994430542
1702299741926731800,42.33873168945313,2.819000005722046,12.791099548339844,-0.6613999605178833
1702299741986731800,42.39873168945312,-4.821199893951416,-1.1756999492645264,4.940499782562256
1702299742046731800,42.458731689453124,0.6439999938011169,3.5655999183654785,0.7129999995231628
1702299742106731800,42.518731689453126,0.7662000060081482,-2.492300033569336,-0.47110000252723694
1702299742166731800,42.57873168945312,0.5773000121116638,-0.9332999587059021,1.2182999849319458
1702299742226731800,42.638731689453124,0.870199978351593,-1.0584999322891235,-0.9049999713897705
1702299742286731800,42.698731689453126,1.712399959564209,0.28509998321533203,0.313400000333786
1702299742346731800,42.75873168945313,3.2365000247955322,-2.8894999027252197,-1.308899998664856
1702299742406731800,42.818731689453124,1.2781000137329102,-0.471699982881546,-1.753499984741211
1702299742466731800,42.878731689453126,-0.9455999732017517,3.1661999225616455,-0.2996000051498413
1702299742526731800,42.93873168945313,-0.25679999589920044,3.4255998134613037,-2.100299835205078
1702299742586731800,42.99873168945312,0.9020999670028687,0.9185999631881714,-0.3157999813556671
1702299742646731800,43.058731689453126,-0.34439998865127563,5.246799945831299,0.5709999799728394
1702299742706731800,43.11873168945313,0.20789998769760132,0.4098999798297882,1.7453999519348145
1702299742766731800,43.17873168945312,0.1340000033378601,-1.583899974822998,3.1569998264312744
1702299742826731800,43.238731689453125,-1.1197999715805054,-2.3492000102996826,3.210899829864502
1702299742886731800,43.29873168945313,-0.5758000016212463,-3.404099941253662,3.751199960708618
1702299742946731800,43.35873168945312,2.0687999725341797,-0.10830000042915344,1.1741999387741089
1702299743006731800,43.418731689453125,1.0357999801635742,-2.807299852371216,-5.125
1702299743066731800,43.47873168945313,3.6262998580932617,3.262899875640869,-3.3167998790740967
1702299743126731800,43.53873168945312,3.1068999767303467,2.115499973297119,4.157700061798096
1702299743186731800,43.598731689453125,-6.922999858856201,-2.013399839401245,4.941400051116943
1702299743246731800,43.65873168945313,1.9591000080108643,5.927799701690674,-0.6807999610900879
1702299743306731800,43.71873168945312,-0.4213999807834625,-2.162299871444702,0.5092999935150146
1702299743366731800,43.778731689453124,0.7494999766349792,-0.28839999437332153,0.7981999516487122
1702299743426731800,43.83873168945313,1.0358999967575073,-1.339900016784668,-0.6029999852180481
1702299743486731800,43.89873168945312,2.0249998569488525,-0.7209999561309814,-0.2678000032901764
1702299743546731800,43.958731689453124,3.046299934387207,-1.6007999181747437,0.33409997820854187
1702299743606731800,44.018731689453126,2.6654000282287598,1.479599952697754,-1.0831999778747559
1702299743666731800,44.07873168945312,-0.7879999876022339,2.035799980163574,-0.5794999599456787
1702299743726759700,44.138759765625,2.0658998489379883,1.2919999361038208,-1.3858000040054321
1702299743786731800,44.198731689453126,-0.6995999813079834,0.2718999981880188,-1.084399938583374
1702299743846731800,44.25873168945313,0.25040000677108765,3.459699869155884,0.3815999925136566
1702299743906731800,44.318731689453124,1.184899926185608,-0.2703999876976013,1.5164999961853027
1702299743966731800,44.378731689453126,0.6431999802589417,-3.077199935913086,1.6484999656677246
1702299744026733300,44.4387333984375,-0.3538999855518341,-2.111999988555908,2.833699941635132
1702299744086731800,44.49873168945312,-0.18979999423027039,-3.30079984664917,3.1313998699188232
1702299744146731800,44.558731689453126,4.176599979400635,0.9177999496459961,0.06390000134706497
1702299744206731800,44.61873168945313,0.5177000164985657,-4.2399001121521,-7.188499927520752
1702299744266731800,44.67873168945312,2.450700044631958,5.109899997711182,-2.9515998363494873
1702299744326731800,44.738731689453125,1.1145999431610107,3.890699863433838,4.382899761199951
1702299744386731800,44.79873168945313,-5.91349983215332,-1.5828999280929565,4.713500022888184
1702299744446731800,44.85873168945312,3.575699806213379,4.464999675750732,-1.017699956893921
1702299744506731800,44.918731689453125,-0.07729999721050262,-3.52239990234375,0.820099949836731
1702299744566731800,44.97873168945313,0.10080000013113022,0.4114999771118164,0.8773999810218811
1702299744626731800,45.03873168945312,1.5232999324798584,-1.2239999771118164,-0.14010000228881836
1702299744686731800,45.098731689453125,1.734299898147583,-1.7453999519348145,-0.6759999990463257
1702299744746731800,45.15873168945313,2.585700035095215,-1.3529999256134033,-1.379599928855896
1702299744806731800,45.21873168945312,1.2365999221801758,2.939499855041504,-0.6785999536514282
1702299744866731800,45.278731689453124,0.14419999718666077,0.7498999834060669,-1.8971999883651733
1702299744926731800,45.33873168945313,0.027499999850988388,0.2572999894618988,-1.206399917602539
1702299744986731800,45.39873168945312,0.2928999960422516,4.349699974060059,-1.1912999153137207
1702299745046731800,45.458731689453124,0.14139999449253082,1.1405999660491943,1.6632999181747437
1702299745106731800,45.518731689453126,0.4528999924659729,-2.027600049972534,3.3192999362945557
1702299745166731800,45.57873168945312,-1.486299991607666,-2.761899948120117,2.6805999279022217
1702299745226731800,45.638731689453124,-0.5652999877929688,-1.3817999362945557,3.0190999507904053
1702299745286731800,45.698731689453126,1.7973999977111816,-1.386799931526184,2.155900001525879
1702299745346731800,45.75873168945313,1.7846999168395996,-2.035399913787842,-7.017699718475342
1702299745406759700,45.818759765625,2.3382999897003174,0.4931999742984772,-2.4644999504089355
1702299745466731800,45.878731689453126,-1.9661999940872192,5.764599800109863,1.0140999555587769
1702299745526731800,45.93873168945313,-7.008999824523926,-2.9336998462677,6.398799896240234
1702299745586731800,45.99873168945312,0.9709999561309814,7.005199909210205,2.8274998664855957
1702299745646731800,46.058731689453126,-3.3753998279571533,-2.1160998344421387,0.26159998774528503
1702299745706731800,46.11873168945313,1.4563000202178955,-0.27619999647140503,1.1297999620437622
1702299745766731800,46.17873168945312,0.8763999938964844,-1.0157999992370605,0.17019999027252197
1702299745826759700,46.238759765625,2.4480998516082764,-1.046299934387207,-1.0019999742507935
1702299745886731800,46.29873168945313,1.8964999914169312,-1.1620999574661255,0.2003999948501587
1702299745946731800,46.35873168945312,2.7122998237609863,-2.0495998859405518,-0.6686999797821045
1702299746006731800,46.418731689453125,2.025399923324585,-1.343400001525879,-0.9842999577522278
1702299746066731800,46.47873168945313,-0.9797999858856201,2.7124998569488525,-1.3072999715805054
1702299746126731800,46.53873168945312,1.3191999197006226,1.4871000051498413,-3.3984999656677246
1702299746186731800,46.598731689453125,-0.01529999915510416,0.17639999091625214,1.199299931526184
1702299746246731800,46.65873168945313,-0.5394999980926514,3.0167999267578125,-0.6680999994277954
1702299746306731800,46.71873168945312,1.396299958229065,-0.5379999876022339,-0.14399999380111694
1702299746366731800,46.778731689453124,2.254199981689453,-1.7049999237060547,-0.38769999146461487
1702299746426731800,46.83873168945313,-0.2541999816894531,-0.2613999843597412,2.924999952316284
1702299746486731800,46.89873168945312,-0.6395999789237976,-0.5925999879837036,4.124000072479248
1702299746546731800,46.958731689453124,0.5956999659538269,-1.4002000093460083,3.0676000118255615
1702299746606731800,47.018731689453126,3.9878997802734375,0.07400000095367432,-5.392999649047852
1702299746666731800,47.07873168945312,-3.753000020980835,-0.739799976348877,-2.126199960708618
1702299746726731800,47.138731689453124,-5.096199989318848,1.309899926185608,7.519999980926514
1702299746786731800,47.198731689453126,-2.4933998584747314,9.472000122070312,0.0681999996304512
1702299746846731800,47.25873168945313,-0.8966999650001526,-2.4296998977661133,1.9153999090194702
1702299746906731800,47.318731689453124,3.1215999126434326,0.09839999675750732,-1.8675999641418457
1702299746966731800,47.378731689453126,0.2676999866962433,-4.362299919128418,0.01719999872148037
1702299747026731800,47.43873168945313,0.5692999958992004,-0.4147000014781952,-0.7928999662399292
1702299747086731800,47.49873168945312,0.15309999883174896,-0.31779998540878296,0.8639999628067017
1702299747146731800,47.558731689453126,6.0065999031066895,-2.8794000148773193,-0.4341999888420105
1702299747206731800,47.61873168945313,3.084399938583374,-2.1006999015808105,-3.983799934387207
1702299747266731800,47.67873168945312,-1.7352999448776245,3.1821999549865723,0.5370000004768372
1702299747326731800,47.738731689453125,-2.914299964904785,1.0476999282836914,-1.3881999254226685
1702299747386731800,47.79873168945313,2.3808000087738037,6.0183000564575195,-1.7907999753952026
1702299747446731800,47.85873168945312,-0.19489999115467072,2.7345998287200928,2.2037999629974365
1702299747506731800,47.918731689453125,0.9177999496459961,-1.698099970817566,3.4286999702453613
1702299747566731800,47.97873168945313,-1.107699990272522,-2.9821999073028564,0.5756999850273132
1702299747626731800,48.03873168945312,-2.026599884033203,-1.3269000053405762,3.1942999362945557
1702299747686731800,48.098731689453125,0.09239999949932098,-3.4086999893188477,6.146999835968018
1702299747746731800,48.15873168945313,2.704900026321411,3.197399854660034,-0.8671999573707581
1702299747806731800,48.21873168945312,6.848700046539307,-6.44189977645874,-7.619799613952637
1702299747866731800,48.278731689453124,-4.627599716186523,9.904600143432617,-6.162499904632568
1702299747926759700,48.338759765625,1.6038999557495117,-1.1705999374389648,4.815399646759033
1702299747986731800,48.39873168945312,-5.678799629211426,1.0332000255584717,4.31279993057251
1702299748046731800,48.458731689453124,1.8970999717712402,3.6018998622894287,0.854699969291687
1702299748106731800,48.518731689453126,-0.5286999940872192,-2.567999839782715,2.135699987411499
1702299748166731800,48.57873168945312,-2.539299964904785,0.39319998025894165,-0.2465999871492386
1702299748226731800,48.638731689453124,4.266599655151367,-1.2166999578475952,-0.4408999979496002
1702299748286731800,48.698731689453126,1.2323999404907227,-1.667799949645996,0.4794999957084656
1702299748346731800,48.75873168945313,3.3005998134613037,-0.8366000056266785,-1.6168999671936035
1702299748406731800,48.818731689453124,1.789199948310852,0.7541999816894531,-0.7590000033378601
1702299748466731800,48.878731689453126,-1.6509000062942505,3.074899911880493,-2.7530999183654785
1702299748526731800,48.93873168945313,2.2637999057769775,0.4887000024318695,-0.7379999756813049
1702299748586731800,48.99873168945312,2.4463999271392822,2.1782000064849854,-2.2563998699188232
1702299748646731800,49.058731689453126,-0.9549999833106995,3.5680999755859375,-0.4935999810695648
1702299748706731800,49.11873168945313,1.0930999517440796,-1.1092000007629395,1.9986999034881592
1702299748766731800,49.17873168945312,-0.5406000018119812,-2.1659998893737793,2.3313000202178955
1702299748826731800,49.238731689453125,-1.5285999774932861,-1.500599980354309,3.3531999588012695
1702299748886731800,49.29873168945313,-0.9791999459266663,-1.2831000089645386,5.146399974822998
1702299748946731800,49.35873168945312,2.219599962234497,-2.2577998638153076,4.201399803161621
1702299749006731800,49.418731689453125,4.339699745178223,1.7267999649047852,-11.277299880981445
1702299749066731800,49.47873168945313,1.3988999128341675,2.949199914932251,0.38029998540878296
1702299749126731800,49.53873168945312,-2.299499988555908,-0.24169999361038208,-3.2612998485565186
1702299749186731800,49.598731689453125,-8.991299629211426,-0.4262999892234802,4.383899688720703
1702299749246731800,49.65873168945313,-0.2289000004529953,5.792599678039551,4.0040998458862305
1702299749306731800,49.71873168945312,-0.11509999632835388,-2.232599973678589,-0.7932999730110168
1702299749366731800,49.778731689453124,0.9138000011444092,-1.6420999765396118,-0.1867000013589859
1702299749426731800,49.83873168945313,-0.20349998772144318,-2.4465999603271484,0.6548999547958374
1702299749486731800,49.89873168945312,1.692099928855896,0.3537999987602234,0.04690000042319298
1702299749546731800,49.958731689453124,0.5616999864578247,-1.3220999240875244,0.272599995136261
1702299749606731800,50.018731689453126,2.393399953842163,-1.24809992313385,-0.24379999935626984
1702299749666731800,50.07873168945312,1.5027999877929688,-0.6214999556541443,-0.9781000018119812
1702299749726731800,50.138731689453124,1.3853999376296997,-0.29589998722076416,-2.3282999992370605
1702299749786731800,50.198731689453126,-1.8459999561309814,4.890100002288818,-4.682300090789795
1702299749846731800,50.25873168945313,-0.5941999554634094,1.018399953842163,2.015399932861328
1702299749906731800,50.318731689453124,-0.7569999694824219,1.3463000059127808,0.32199999690055847
1702299749966731800,50.378731689453126,-0.7450999617576599,2.0055999755859375,0.0210999995470047
1702299750026759700,50.438759765625,0.19280000030994415,-0.7342000007629395,1.4993000030517578
1702299750086731800,50.49873168945312,-0.6870999932289124,-1.211899995803833,2.085700035095215
1702299750146731800,50.558731689453126,-1.556899905204773,-0.9282999634742737,2.573499917984009
1702299750206731800,50.61873168945313,-1.6669999361038208,-1.034600019454956,3.5306999683380127
1702299750266731800,50.67873168945312,0.8533999919891357,-2.1977999210357666,4.070300102233887
1702299750326731800,50.738731689453125,3.2607998847961426,0.1525000035762787,-3.8203999996185303
1702299750386731800,50.79873168945313,1.9017999172210693,3.424799919128418,-4.529599666595459
1702299750446731800,50.85873168945312,2.7592999935150146,3.3055999279022217,3.1785998344421387
1702299750506731800,50.918731689453125,-2.418799877166748,-2.9391000270843506,3.8277997970581055
1702299750566731800,50.97873168945313,-4.371500015258789,9.144100189208984,1.5694999694824219
1702299750626731800,51.03873168945312,-1.9375998973846436,-1.5238999128341675,2.291100025177002
1702299750686731800,51.098731689453125,-0.7239999771118164,0.6893999576568604,0.3434999883174896
1702299750746731800,51.15873168945313,-1.0734000205993652,-1.3848999738693237,-0.22579999268054962
1702299750806731800,51.21873168945312,0.9296999573707581,-1.4063999652862549,-0.2457999885082245
1702299750866731800,51.278731689453124,0.3222000002861023,0.34379997849464417,0.8729999661445618
1702299750926731800,51.33873168945313,0.6590999960899353,-1.0168999433517456,0.733199954032898
1702299750986731800,51.39873168945312,0.8121999502182007,-1.3353999853134155,-0.6269999742507935
1702299751046731800,51.458731689453124,1.0568000078201294,-0.539900004863739,0.10509999841451645
1702299751106731800,51.518731689453126,0.4253999888896942,1.299299955368042,-0.492499977350235
1702299751166731800,51.57873168945312,0.8716999888420105,1.1267999410629272,-2.7307000160217285
1702299751226731800,51.638731689453124,-1.2842999696731567,2.543599843978882,-0.4107999801635742
1702299751286731800,51.698731689453126,1.5662999153137207,3.325699806213379,2.7883999347686768
1702299751346731800,51.75873168945313,0.09839999675750732,3.374699831008911,2.4170000553131104
1702299751406731800,51.818731689453124,0.3691999912261963,-0.4039999842643738,3.0038998126983643
1702299751466731800,51.878731689453126,0.8628000020980835,-1.2803999185562134,1.1590999364852905
1702299751526731800,51.93873168945313,0.2732999920845032,-1.527899980545044,2.6850998401641846
1702299751586731800,51.99873168945312,0.3034999966621399,-3.705199956893921,3.2767999172210693
1702299751646731800,52.058731689453126,1.8334999084472656,-0.8443999886512756,1.0099999904632568
1702299751706731800,52.11873168945313,2.984999895095825,-1.5972999334335327,-4.817399978637695
1702299751766731800,52.17873168945312,1.1718000173568726,1.8109999895095825,2.328199863433838
1702299751826731800,52.238731689453125,4.9721999168396,11.922599792480469,6.795899868011475
1702299751886731800,52.29873168945313,-3.2363998889923096,-5.32480001449585,1.5676000118255615
1702299751946731800,52.35873168945312,-2.1009998321533203,3.2846999168395996,-1.1101000308990479
1702299752006731800,52.418731689453125,1.0098999738693237,-0.9381999969482422,1.2773000001907349
1702299752066731800,52.47873168945313,0.6593999862670898,0.6911999583244324,2.0667998790740967
1702299752126731800,52.53873168945312,0.7809000015258789,-0.8768999576568604,-0.8479999899864197
1702299752186731800,52.598731689453125,2.222899913787842,-2.1103999614715576,-0.7507999539375305
1702299752246731800,52.65873168945313,4.028500080108643,-0.9952999949455261,-0.21329998970031738
1702299752306731800,52.71873168945312,2.2398998737335205,0.09279999881982803,-2.1059000492095947
1702299752366731800,52.778731689453124,2.4422998428344727,-0.45229998230934143,-1.3535000085830688
1702299752426731800,52.83873168945313,2.5162999629974365,0.23589999973773956,-3.2786998748779297
1702299752486731800,52.89873168945312,1.4138000011444092,2.218600034713745,0.3595999777317047
1702299752546731800,52.958731689453124,-0.3043999969959259,5.467899799346924,-0.8075000047683716
1702299752606731800,53.018731689453126,1.6625999212265015,1.3019999265670776,-0.2361999899148941
1702299752666731800,53.07873168945312,0.6121999621391296,-0.9587999582290649,3.3513998985290527
1702299752726731800,53.138731689453124,-0.6696000099182129,-1.9200999736785889,2.1784000396728516
1702299752786731800,53.198731689453126,0.5148000121116638,-1.1601999998092651,2.55679988861084
1702299752846731800,53.25873168945313,0.6557999849319458,-2.028899908065796,3.6268999576568604
1702299752906731800,53.318731689453124,2.2976999282836914,0.7483999729156494,-1.6133999824523926
1702299752966731800,53.378731689453126,2.971299886703491,-3.0195000171661377,-2.6893999576568604
1702299753026731800,53.43873168945313,0.4949999749660492,7.991399765014648,-1.83489990234375
1702299753086731800,53.49873168945312,3.154599905014038,-4.274799823760986,-0.7985999584197998
1702299753146731800,53.558731689453126,-4.174200057983398,4.502500057220459,3.489799976348877
1702299753206731800,53.61873168945313,1.3665000200271606,0.7410999536514282,-0.010099999606609344
1702299753266731800,53.67873168945312,-0.5579999685287476,-1.6755999326705933,-0.11029999703168869
1702299753326731800,53.738731689453125,1.3765000104904175,-2.257200002670288,-0.46140000224113464
1702299753386731800,53.79873168945313,1.3288999795913696,-0.5464000105857849,0.5600999593734741
1702299753446731800,53.85873168945312,2.205199956893921,-1.6829999685287476,-0.6601999998092651
1702299753506731800,53.918731689453125,1.4779999256134033,-1.1439999341964722,-1.0799000263214111
1702299753566731800,53.97873168945313,1.760699987411499,0.8172999620437622,-1.617900013923645
1702299753626731800,54.03873168945312,1.8108999729156494,0.5123000144958496,-3.097299814224243
1702299753686731800,54.098731689453125,-0.23669999837875366,1.0614999532699585,-0.8379999995231628
1702299753746731800,54.15873168945313,-0.5758000016212463,4.360699653625488,-0.06879999488592148
1702299753806731800,54.21873168945312,2.25600004196167,3.944199800491333,1.3456000089645386
1702299753866731800,54.278731689453124,-0.12199999392032623,-1.7792999744415283,2.669600009918213
1702299753926731800,54.33873168945313,-0.07419999688863754,-2.5892999172210693,2.4282000064849854
1702299753986731800,54.39873168945312,-0.5253999829292297,-1.3334999084472656,2.2990000247955322
1702299754046731800,54.458731689453124,0.2433999925851822,-2.706899881362915,3.684199810028076
1702299754106731800,54.518731689453126,2.5848000049591064,1.5791000127792358,-1.0379999876022339
1702299754166731800,54.57873168945312,3.532599925994873,-5.390899658203125,-6.773699760437012
1702299754226759700,54.638759765625,-0.4390999972820282,3.8640999794006348,-2.734099864959717
1702299754286731800,54.698731689453126,-0.941100001335144,0.6340000033378601,0.5942999720573425
1702299754346731800,54.75873168945313,-3.7871999740600586,2.27810001373291,1.9019999504089355
1702299754406731800,54.818731689453124,-0.2879999876022339,1.8671000003814697,1.441100001335144
1702299754466731800,54.878731689453126,0.5744999647140503,-1.257699966430664,1.06659996509552
1702299754526731800,54.93873168945313,-0.3547999858856201,-1.1201999187469482,1.1759999990463257
1702299754586731800,54.99873168945312,2.5739998817443848,-0.7972999811172485,-0.7042999863624573
1702299754646731800,55.058731689453126,2.0737998485565186,-1.7339999675750732,-1.3356000185012817
1702299754706731800,55.11873168945313,2.579900026321411,-1.4901999235153198,-1.1413999795913696
1702299754766731800,55.17873168945312,1.6947999000549316,1.13510000705719,-1.524999976158142
1702299754826731800,55.238731689453125,0.9318999648094177,0.4422999918460846,-1.8502999544143677
1702299754886731800,55.29873168945313,1.3082000017166138,0.001999999862164259,-1.7445999383926392
1702299754946731800,55.35873168945312,-1.4191999435424805,2.816499948501587,-1.1729999780654907
1702299755006731800,55.418731689453125,4.017699718475342,6.0304999351501465,1.8982999324798584
1702299755066731800,55.47873168945313,0.8434999585151672,-1.5407999753952026,2.160399913787842
1702299755126731800,55.53873168945312,-0.6848999857902527,-2.7864999771118164,2.1814000606536865
1702299755186731800,55.598731689453125,-0.9688999652862549,-0.8777999877929688,1.3349000215530396
1702299755246731800,55.65873168945313,-0.24279999732971191,-0.6146999597549438,4.582900047302246
1702299755306731800,55.71873168945312,1.2793999910354614,0.298799991607666,1.367900013923645
1702299755366731800,55.778731689453124,3.3785998821258545,-3.4472999572753906,-6.872699737548828
1702299755426731800,55.83873168945313,0.7581999897956848,4.37339973449707,-2.1189000606536865
1702299755486731800,55.89873168945312,0.4096999764442444,-0.33640000224113464,1.3391000032424927
1702299755546731800,55.958731689453124,-2.875499963760376,3.713599920272827,1.5893999338150024
1702299755606731800,56.018731689453126,-0.30969998240470886,1.180899977684021,1.2458999156951904
1702299755666731800,56.07873168945312,1.0455999374389648,-0.9070999622344971,0.5013999938964844
1702299755726731800,56.138731689453124,0.2683999836444855,-1.4306999444961548,2.0527000427246094
1702299755786731800,56.198731689453126,2.214200019836426,-0.2304999977350235,-0.357699990272522
1702299755846731800,56.25873168945313,3.160399913787842,-1.6338999271392822,-1.7900999784469604
1702299755906731800,56.318731689453124,1.7802000045776367,-0.8834999799728394,-0.8184999823570251
1702299755966731800,56.378731689453126,2.857599973678589,0.38659998774528503,-2.085700035095215
1702299756026731800,56.43873168945313,1.0413999557495117,0.46209999918937683,-1.9474999904632568
1702299756086731800,56.49873168945312,1.7940999269485474,0.36409997940063477,-2.33489990234375
1702299756146731800,56.558731689453126,-0.45809999108314514,2.3083999156951904,-0.5694999694824219
1702299756206731800,56.61873168945313,4.406199932098389,7.295599937438965,1.0892999172210693
1702299756266731800,56.67873168945312,1.6502000093460083,-0.9660999774932861,0.8082999587059021
1702299756326759700,56.738759765625,-0.35439997911453247,-2.3099000453948975,2.660799980163574
1702299756386731800,56.79873168945313,-1.2067999839782715,-2.3359999656677246,2.2005999088287354
1702299756446731800,56.85873168945312,1.7577999830245972,-2.446899890899658,3.8267998695373535
1702299756506731800,56.918731689453125,1.7249000072479248,2.8541998863220215,0.3042999804019928
1702299756566731800,56.97873168945313,2.347399950027466,-6.213500022888184,-8.24269962310791
1702299756626731800,57.03873168945312,-2.3828999996185303,3.1882998943328857,-2.508699893951416
1702299756686731800,57.098731689453125,2.461400032043457,5.752399921417236,2.18179988861084
1702299756746731800,57.15873168945313,-4.270400047302246,0.2386000007390976,2.859499931335449
1702299756806731800,57.21873168945312,1.520900011062622,1.8086999654769897,0.11759999394416809
1702299756866731800,57.278731689453124,1.9161999225616455,-2.3813998699188232,0.5809000134468079
1702299756926731800,57.33873168945313,-3.471299886703491,-0.9803999662399292,2.9507999420166016
1702299756986731800,57.39873168945312,3.54259991645813,-1.0946999788284302,-1.316499948501587
1702299757046731800,57.458731689453124,2.4661998748779297,-0.9442999958992004,-1.6497999429702759
1702299757106731800,57.518731689453126,2.1303000450134277,0.699400007724762,-1.9733999967575073
1702299757166731800,57.57873168945312,2.553799867630005,1.1166999340057373,-1.5267000198364258
1702299757226731800,57.638731689453124,0.24199999868869781,1.4106999635696411,-1.4046999216079712
1702299757286731800,57.698731689453126,0.5072000026702881,1.2426999807357788,-0.2612999975681305
1702299757346731800,57.75873168945313,1.9978998899459839,5.4863996505737305,1.402400016784668
1702299757406731800,57.818731689453124,0.4311999976634979,-0.8592999577522278,0.7491999864578247
1702299757466731800,57.878731689453126,0.13819999992847443,-1.7919999361038208,2.6878998279571533
1702299757526802000,57.93880200195313,0.26729997992515564,-2.996999979019165,0.007199999876320362
1702299757586731800,57.99873168945312,-0.2619999945163727,-3.421299934387207,4.60159969329834
1702299757646731800,58.058731689453126,3.565199851989746,1.5983999967575073,0.3772999942302704
1702299757706731800,58.11873168945313,3.6362998485565186,-6.114500045776367,-4.635200023651123
1702299757766731800,58.17873168945312,-2.2620999813079834,5.605799674987793,-0.8894000053405762
1702299757826731800,58.238731689453125,1.0657999515533447,-0.524899959564209,0.186599999666214
1702299757886731800,58.29873168945313,-2.918599843978882,2.1385998725891113,3.7476999759674072
1702299757946731800,58.35873168945312,2.1317999362945557,-0.08509999513626099,-1.5241999626159668
1702299758006731800,58.418731689453125,-3.3371999263763428,-3.8529999256134033,1.7609999179840088
1702299758066731800,58.47873168945313,2.9632999897003174,-1.0002000331878662,-1.671299934387207
1702299758126731800,58.53873168945312,0.698199987411499,-0.6252999901771545,0.7026000022888184
1702299758186731800,58.598731689453125,3.4988999366760254,-1.1912000179290771,-0.9441999793052673
1702299758246731800,58.65873168945313,0.8887999653816223,0.3432999849319458,-2.3415000438690186
1702299758306731800,58.71873168945312,-0.45260000228881836,2.127699851989746,-0.9601999521255493
1702299758366731800,58.778731689453124,2.233299970626831,0.19089999794960022,-0.8159999847412109
1702299758426759700,58.838759765625,0.4615999758243561,1.3205000162124634,-1.2939999103546143
1702299758486731800,58.89873168945312,2.7517998218536377,5.400399684906006,-0.015699999406933784
1702299758546731800,58.958731689453124,1.017199993133545,-0.39249998331069946,1.4797999858856201
1702299758606731800,59.018731689453126,-0.5238999724388123,-1.803299903869629,3.279599905014038
1702299758666731800,59.07873168945312,0.9066999554634094,-2.399099826812744,1.7591999769210815
1702299758726731800,59.138731689453124,-0.31119999289512634,-2.7298998832702637,1.9972999095916748
1702299758786731800,59.198731689453126,1.5184999704360962,-0.013399999588727951,2.2776999473571777
1702299758846731800,59.25873168945313,3.9875998497009277,-0.9422999620437622,-4.524799823760986
1702299758906731800,59.318731689453124,1.5066999197006226,-0.44449999928474426,-2.691999912261963
1702299758966731800,59.378731689453126,0.8080999851226807,8.34469985961914,2.498699903488159
1702299759026731800,59.43873168945313,-3.7623000144958496,-1.3351999521255493,1.8420000076293945
1702299759086731800,59.49873168945312,2.6459999084472656,2.987499952316284,0.40230000019073486
1702299759146731800,59.558731689453126,1.414099931716919,-1.942099928855896,0.7926999926567078
1702299759206731800,59.61873168945313,-3.027400016784668,-1.4757999181747437,3.0655999183654785
1702299759266731800,59.67873168945312,2.7509000301361084,-0.2565000057220459,-0.7633000016212463
1702299759326731800,59.738731689453125,3.3055999279022217,-2.0809998512268066,-1.5399999618530273
1702299759386733300,59.7987333984375,1.6969000101089478,-0.46299999952316284,-1.1453999280929565
1702299759446731800,59.85873168945312,2.9953999519348145,0.6678999662399292,-1.6686999797821045
1702299759506731800,59.918731689453125,0.6746000051498413,0.6906999945640564,-1.1597999334335327
1702299759566731800,59.97873168945313,0.2613999843597412,1.0226999521255493,-1.751099944114685
1702299759626731800,60.03873168945312,-0.017400000244379044,6.1691999435424805,-0.368399977684021
1702299759686731800,60.098731689453125,1.9000999927520752,0.5164999961853027,0.6654999852180481
1702299759746731800,60.15873168945313,-0.23019999265670776,-2.573699951171875,3.217099905014038
1702299759806731800,60.21873168945312,0.1152999997138977,-3.2366998195648193,1.559899926185608
1702299759866731800,60.278731689453124,-0.590499997138977,-2.8469998836517334,4.289499759674072
1702299759926731800,60.33873168945313,2.8867998123168945,-0.15770000219345093,2.6280999183654785
1702299759986731800,60.39873168945312,1.8889999389648438,-2.1738998889923096,-8.376799583435059
1702299760046731800,60.458731689453124,0.3538999855518341,5.499000072479248,-0.6578999757766724
1702299760106731800,60.518731689453126,2.5321998596191406,-2.2904000282287598,1.948599934577942
1702299760166731800,60.57873168945312,-4.843100070953369,3.688999891281128,1.992799997329712
1702299760226731800,60.638731689453124,0.6988999843597412,1.1162999868392944,-0.12189999967813492
1702299760286731800,60.698731689453126,0.837399959564209,-3.3533999919891357,-0.36409997940063477
1702299760346731800,60.75873168945313,-0.4635999798774719,-0.8165000081062317,1.9555999040603638
1702299760406731800,60.818731689453124,1.684899926185608,-0.6491000056266785,1.022499918937683
1702299760466731800,60.878731689453126,2.3478000164031982,-1.254499912261963,-1.1124999523162842
1702299760526759700,60.938759765625,1.8924999237060547,0.08079999685287476,-1.531599998474121
1702299760586731800,60.99873168945312,2.5018999576568604,1.2199000120162964,-1.4194999933242798
1702299760646731800,61.058731689453126,0.5952000021934509,0.4147000014781952,-1.8188999891281128
1702299760706731800,61.11873168945313,-0.8685999512672424,2.308799982070923,-0.8858999609947205
1702299760766731800,61.17873168945312,2.722599983215332,6.650199890136719,-0.243599995970726
1702299760826731800,61.238731689453125,0.3052999973297119,-0.38359999656677246,0.9616999626159668
1702299760886731800,61.29873168945313,-0.13120000064373016,-2.312700033187866,2.7532999515533447
1702299760946731800,61.35873168945312,-0.5212000012397766,-2.4217000007629395,1.593999981880188
1702299761006731800,61.418731689453125,-0.6202999949455261,-2.150399923324585,3.8755998611450195
1702299761066731800,61.47873168945313,2.3518998622894287,-0.14569999277591705,2.849299907684326
1702299761126731800,61.53873168945312,3.1629998683929443,-0.29189997911453247,-5.524099826812744
1702299761186731800,61.598731689453125,3.578199863433838,1.9215999841690063,-3.8852999210357666
1702299761246731800,61.65873168945313,-3.2716000080108643,4.258500099182129,0.054499998688697815
1702299761306731800,61.71873168945312,-1.9713999032974243,0.7117999792098999,3.7829999923706055
1702299761366731800,61.778731689453124,-0.03680000081658363,3.197700023651123,2.9823999404907227
1702299761426731800,61.83873168945313,1.0591999292373657,-0.08460000157356262,0.9003999829292297
1702299761486731800,61.89873168945312,0.08949999511241913,-3.1208999156951904,1.1058999300003052
1702299761546731800,61.958731689453124,-1.6318999528884888,-0.555899977684021,0.7272999882698059
1702299761606731800,62.018731689453126,2.4891998767852783,-0.9715999960899353,-1.1233999729156494
1702299761666731800,62.07873168945312,5.246200084686279,-0.3431999981403351,-0.6757999658584595
1702299761726731800,62.138731689453124,0.3474999964237213,1.629499912261963,-0.699999988079071
1702299761786731800,62.198731689453126,3.5946998596191406,0.16110000014305115,-2.0297000408172607
1702299761846731800,62.25873168945313,0.1890999972820282,0.7828999757766724,-2.199399948120117
1702299761906731800,62.318731689453124,-0.6809999942779541,2.044100046157837,-1.6186999082565308
1702299761966731800,62.378731689453126,0.6363999843597412,5.218100070953369,1.8529999256134033
1702299762026731800,62.43873168945313,0.8515999913215637,-0.9302999973297119,0.5911999940872192
1702299762086731800,62.49873168945312,-0.3400000035762787,-1.8289999961853027,3.2630999088287354
1702299762146731800,62.558731689453126,-0.4165000021457672,-2.245499849319458,1.3329999446868896
1702299762206731800,62.61873168945313,-0.1988999992609024,-1.480299949645996,3.5007998943328857
1702299762266731800,62.67873168945312,3.731299877166748,1.5267000198364258,1.4890999794006348
1702299762326731800,62.738731689453125,0.6729999780654907,-4.363100051879883,-6.269899845123291
1702299762386731800,62.79873168945313,3.2030999660491943,1.9412999153137207,-1.2587000131607056
1702299762446731800,62.85873168945312,-1.0196999311447144,1.7533999681472778,0.5471999645233154
1702299762506731800,62.918731689453125,-2.458099842071533,2.1038999557495117,1.4857999086380005
1702299762566731800,62.97873168945313,-1.000599980354309,1.3468999862670898,2.2510998249053955
1702299762626759700,63.038759765625,1.2781000137329102,0.4072999954223633,0.34759998321533203
1702299762686731800,63.098731689453125,0.37700000405311584,-1.9940999746322632,1.767899990081787
1702299762746731800,63.15873168945313,-0.007499999832361937,-0.2256999909877777,1.8460999727249146
1702299762806731800,63.21873168945312,2.4310998916625977,-1.630199909210205,-1.9899998903274536
1702299762866731800,63.278731689453124,2.883699893951416,-1.0579999685287476,-0.24049998819828033
1702299762926731800,63.33873168945313,2.9674999713897705,0.5309999585151672,-1.6703999042510986
1702299762986731800,63.39873168945312,1.9337999820709229,0.023499999195337296,-1.8994998931884766
1702299763046731800,63.458731689453124,1.132599949836731,1.0845999717712402,-1.7884999513626099
1702299763106731800,63.518731689453126,1.8437999486923218,-0.5557999610900879,-0.552899956703186
1702299763166731800,63.57873168945312,-0.786799967288971,5.5304999351501465,-0.8458999991416931
1702299763226731800,63.638731689453124,2.1634998321533203,0.8574999570846558,-0.3481999933719635
1702299763286731800,63.698731689453126,0.1979999989271164,-1.819599986076355,2.613499879837036
1702299763346731800,63.75873168945313,-0.3089999854564667,-2.0383999347686768,1.2632999420166016
1702299763406731800,63.818731689453124,-1.3626999855041504,-2.0232999324798584,3.753700017929077
1702299763466731800,63.878731689453126,-0.07899999618530273,-1.3465999364852905,4.366099834442139
1702299763526731800,63.93873168945313,6.662199974060059,2.637899875640869,-4.2139997482299805
1702299763586731800,63.99873168945312,4.258999824523926,-4.736099720001221,-1.84499990940094
1702299763646731800,64.05873168945313,0.4415999948978424,9.4197998046875,0.5977999567985535
1702299763706731800,64.11873168945313,-0.6789999604225159,-1.8070999383926392,0.6083999872207642
1702299763766731800,64.17873168945313,-2.0473999977111816,3.232800006866455,3.3546998500823975
1702299763826731800,64.23873168945312,1.7192000150680542,0.6717000007629395,0.7847999930381775
1702299763886731800,64.29873168945312,-0.3495999872684479,-3.2030999660491943,3.129199981689453
1702299763946731800,64.35873168945312,-0.39309999346733093,-0.32199999690055847,0.8398000001907349
1702299764006731800,64.41873168945312,3.572499990463257,-1.2777999639511108,-1.986799955368042
1702299764066731800,64.47873168945313,3.6370999813079834,-0.43709999322891235,-0.19609999656677246
1702299764126731800,64.53873168945313,1.4667999744415283,0.9519999623298645,-1.9503999948501587
1702299764186731800,64.59873168945313,2.409299850463867,0.6751999855041504,-1.5953999757766724
1702299764246731800,64.65873168945312,-0.3479999899864197,1.312999963760376,-1.126099944114685
1702299764306731800,64.71873168945312,-1.2587000131607056,2.7361998558044434,-1.6303999423980713
1702299764366731800,64.77873168945312,4.22629976272583,5.735300064086914,2.7503998279571533
1702299764426731800,64.83873168945313,0.8680999875068665,-1.476599931716919,1.4149999618530273
1702299764486731800,64.89873168945313,-1.066100001335144,-2.6016998291015625,3.777099847793579
1702299764546731800,64.95873168945313,-0.027499999850988388,-1.6190999746322632,1.267799973487854
1702299764606731800,65.01873168945312,0.4449999928474426,-1.3051999807357788,3.660599946975708
1702299764666731800,65.07873168945312,2.9617998600006104,1.468999981880188,1.9076999425888062
1702299764726759700,65.138759765625,1.2269999980926514,-5.4842000007629395,-7.936800003051758
1702299764786731800,65.19873168945313,2.3378000259399414,1.815999984741211,-2.052799940109253
1702299764846731800,65.25873168945313,-1.3869999647140503,1.624899983406067,2.172600030899048
1702299764906731800,65.31873168945313,-2.618299961090088,2.704200029373169,1.2502999305725098
1702299764966731800,65.37873168945312,-0.7193999886512756,1.5820999145507812,1.8727999925613403
1702299765026731800,65.43873168945312,0.9809999465942383,-0.18469999730587006,0.6873999834060669
1702299765086731800,65.49873168945312,-0.013100000098347664,-2.1512999534606934,2.8450000286102295
1702299765146731800,65.55873168945313,0.14219999313354492,-0.41290000081062317,1.2217999696731567
1702299765206731800,65.61873168945313,2.638200044631958,-0.6329999566078186,-1.6759999990463257
1702299765266731800,65.67873168945313,3.8543999195098877,-0.43779999017715454,-1.0335999727249146
1702299765326731800,65.73873168945312,2.001499891281128,0.2247999906539917,-2.1433000564575195
1702299765386731800,65.79873168945312,2.3020999431610107,0.8690999746322632,-2.149899959564209
1702299765446731800,65.85873168945312,1.4192999601364136,1.5922999382019043,-1.348099946975708
1702299765506731800,65.91873168945312,-0.4339999854564667,3.9301998615264893,-1.4433999061584473
1702299765566731800,65.97873168945313,2.274399995803833,3.9453999996185303,1.305299997329712
1702299765626731800,66.03873168945313,0.5257999897003174,-1.948599934577942,2.5427000522613525
1702299765686731800,66.09873168945313,-0.7002999782562256,-3.5461997985839844,3.270599842071533
1702299765746731800,66.15873168945312,-0.9490000009536743,-2.934199810028076,2.6850998401641846
1702299765806731800,66.21873168945312,1.260599970817566,-1.89739990234375,2.878700017929077
1702299765866731800,66.27873168945312,6.02239990234375,4.300899982452393,-3.6113998889923096
1702299765926731800,66.33873168945313,5.420499801635742,-5.290299892425537,-3.268899917602539
1702299765986731800,66.39873168945313,-2.9489998817443848,4.766499996185303,2.9426000118255615
1702299766046731800,66.45873168945313,-0.6189000010490417,1.805999994277954,0.698199987411499
1702299766106731800,66.51873168945312,-2.225100040435791,1.6631999015808105,3.907899856567383
1702299766166731800,66.57873168945312,1.875999927520752,1.2702000141143799,0.11649999767541885
1702299766226731800,66.63873168945312,0.7161999940872192,-3.758999824523926,1.8884999752044678
1702299766286731800,66.69873168945313,1.122499942779541,-0.5636000037193298,0.5672999620437622
1702299766346731800,66.75873168945313,2.458099842071533,-2.0070998668670654,-1.239300012588501
1702299766406731800,66.81873168945313,3.544099807739258,-0.3595999777317047,-0.6504999995231628
1702299766466731800,66.87873168945312,0.6024999618530273,0.43539997935295105,-2.313999891281128
1702299766526731800,66.93873168945312,1.777999997138977,0.36139997839927673,-1.9438999891281128
1702299766586731800,66.99873168945312,1.081399917602539,0.5281000137329102,-1.1532000303268433
1702299766646731800,67.05873168945313,0.34139999747276306,2.984099864959717,-1.5252000093460083
1702299766706731800,67.11873168945313,4.1092000007629395,5.49869966506958,0.864799976348877
1702299766766731800,67.17873168945313,0.8805999755859375,-1.5404999256134033,1.477199912071228
1702299766826759700,67.238759765625,-0.0738999992609024,-3.0943000316619873,2.7985999584198
1702299766886731800,67.29873168945312,-0.38670000433921814,-2.6171998977661133,1.6684999465942383
1702299766946731800,67.35873168945312,-0.06939999759197235,-2.2509000301361084,4.292500019073486
1702299767006731800,67.41873168945312,3.0052998065948486,2.7546000480651855,0.30489999055862427
1702299767066731800,67.47873168945313,2.053799867630005,-4.031199932098389,-8.79419994354248
1702299767126731800,67.53873168945313,1.3727999925613403,3.275599956512451,-2.333899974822998
1702299767186731800,67.59873168945313,-0.8190999627113342,3.214900016784668,2.648200035095215
1702299767246731800,67.65873168945312,-3.1098999977111816,0.16859999299049377,2.6940999031066895
1702299767306731800,67.71873168945312,2.2304999828338623,2.9426000118255615,0.4983999729156494
1702299767366731800,67.77873168945312,1.278499960899353,-2.469099998474121,0.4528999924659729
1702299767426731800,67.83873168945313,-1.6036999225616455,-0.9383999705314636,3.190199851989746
1702299767486731800,67.89873168945313,1.7913999557495117,-0.492499977350235,-0.39259999990463257
1702299767546731800,67.95873168945313,2.7846999168395996,-1.7223999500274658,-1.6380999088287354
1702299767606731800,68.01873168945312,4.158699989318848,-0.5631999969482422,-1.1054999828338623
1702299767666731800,68.07873168945312,0.7253999710083008,2.400099992752075,-0.9813999533653259
1702299767726731800,68.13873168945312,1.3250999450683594,1.2264999151229858,-1.952799916267395
1702299767786731800,68.19873168945313,0.4189999997615814,0.045499999076128006,-1
1702299767846731800,68.25873168945313,0.6662999987602234,2.14520001411438,-1.6642999649047852
1702299767906731800,68.31873168945313,1.7289999723434448,3.523699998855591,1.4204999208450317
1702299767966731800,68.37873168945312,1.247499942779541,-2.722100019454956,0.975600004196167
1702299768026731800,68.43873168945312,-0.49480000138282776,-3.213899850845337,1.2418999671936035
1702299768086731800,68.49873168945312,-1.3078999519348145,-2.20389986038208,3.357499837875366
1702299768146731800,68.55873168945313,0.26260000467300415,-1.087899923324585,4.115900039672852
1702299768206731800,68.61873168945313,4.924099922180176,3.02020001411438,-3.061699867248535
1702299768266731800,68.67873168945313,3.6226999759674072,-6.789299964904785,-5.43149995803833
1702299768326731800,68.73873168945312,-2.645400047302246,7.707899570465088,-1.6179999113082886
1702299768386731800,68.79873168945312,3.7518999576568604,-1.1520999670028687,1.802899956703186
1702299768446731800,68.85873168945312,-4.27209997177124,2.679999828338623,3.8554999828338623
1702299768506731800,68.91873168945312,3.874199867248535,1.4132999181747437,0.20170000195503235
1702299768566731800,68.97873168945313,0.15860000252723694,-3.8322999477386475,0.17329999804496765
1702299768626731800,69.03873168945313,-1.2440999746322632,-0.3953000009059906,1.0016999244689941
1702299768686731800,69.09873168945313,2.917099952697754,-1.1223000288009644,-0.38269999623298645
1702299768746731800,69.15873168945312,3.7527999877929688,-1.157099962234497,-1.2567999362945557
1702299768806731800,69.21873168945312,-0.34450000524520874,1.3163999319076538,-1.4781999588012695
1702299768866731800,69.27873168945312,1.799799919128418,1.2179999351501465,-1.406000018119812
1702299768926759700,69.338759765625,-0.4967999756336212,-1.1447999477386475,-0.09129999577999115
1702299768986731800,69.39873168945313,-0.2474999874830246,4.037600040435791,-1.2343999147415161
1702299769046731800,69.45873168945313,4.065199851989746,3.4848999977111816,0.5536999702453613
1702299769106731800,69.51873168945312,1.6380999088287354,-1.8880000114440918,1.093999981880188
1702299769166731800,69.57873168945312,0.07809999585151672,-3.572000026702881,1.6351999044418335
1702299769226731800,69.63873168945312,-0.15369999408721924,-1.942699909210205,1.6097999811172485
1702299769286731800,69.69873168945313,1.0166000127792358,-2.0866000652313232,2.5220999717712402
1702299769346731800,69.75873168945313,2.3217999935150146,0.31529998779296875,0.016099998727440834
1702299769406731800,69.81873168945313,4.072299957275391,-4.202699661254883,-6.826200008392334
1702299769466731800,69.87873168945312,1.8115999698638916,1.9246000051498413,-1.6966999769210815
1702299769526731800,69.93873168945312,0.41040000319480896,3.288100004196167,2.3402998447418213
1702299769586731800,69.99873168945312,-2.421799898147583,0.8632999658584595,0.8675999641418457
1702299769646731800,70.05873168945313,-0.02290000021457672,1.736299991607666,1.5063999891281128
1702299769706731800,70.11873168945313,2.6248998641967773,-1.3819999694824219,-0.9728999733924866
1702299769766731800,70.17873168945313,-0.6155999898910522,-2.2747998237609863,2.6529998779296875
1702299769826731800,70.23873168945312,2.0978000164031982,-0.3707999885082245,0.7336999773979187
1702299769886731800,70.29873168945312,1.8077999353408813,-1.0800999402999878,-0.9690999984741211
1702299769946731800,70.35873168945312,3.927799940109253,-0.15160000324249268,-1.733199954032898
1702299770006731800,70.41873168945312,1.5615999698638916,0.8262999653816223,-2.6106998920440674
1702299770066731800,70.47873168945313,1.827799916267395,1.0752999782562256,-3.339099884033203
1702299770126731800,70.53873168945313,0.016300000250339508,0.3994999825954437,1.2736999988555908
1702299770186731800,70.59873168945313,0.5705999732017517,4.218999862670898,-0.9637999534606934
1702299770246731800,70.65873168945312,1.115399956703186,0.4104999899864197,1.2969999313354492
1702299770306731800,70.71873168945312,1.0200999975204468,-2.0804998874664307,2.1569998264312744
1702299770366731800,70.77873168945312,0.0982000008225441,-2.631700038909912,0.9564999938011169
1702299770426731800,70.83873168945313,-1.0601999759674072,-2.3496999740600586,2.5974998474121094
1702299770486731800,70.89873168945313,1.4128999710083008,-1.5132999420166016,3.1549999713897705
1702299770546731800,70.95873168945313,5.281300067901611,1.128999948501587,-4.298699855804443
1702299770606731800,71.01873168945312,3.0896999835968018,1.2214000225067139,-5.982999801635742
1702299770666731800,71.07873168945312,-2.8444998264312744,2.534099817276001,0.6513000130653381
1702299770726731800,71.13873168945312,-3.7788000106811523,-1.0960999727249146,3.0316998958587646
1702299770786731800,71.19873168945313,2.5585999488830566,5.063499927520752,2.97379994392395
1702299770846731800,71.25873168945313,1.1613999605178833,-2.485299825668335,-0.27079999446868896
1702299770906731800,71.31873168945313,-2.15559983253479,-2.981599807739258,1.5828999280929565
1702299770966731800,71.37873168945312,2.884899854660034,0.06260000169277191,-0.508899986743927
1702299771026759700,71.438759765625,0.6243999600410461,-1.3483999967575073,-0.16859999299049377
1702299771086731800,71.49873168945312,4.717299938201904,-1.3885999917984009,-0.78329998254776
1702299771146731800,71.55873168945313,0.903499960899353,1.4397999048233032,-1.0875999927520752
1702299771206731800,71.61873168945313,1.6962000131607056,0.2651999890804291,-1.0686999559402466
1702299771266731800,71.67873168945313,-0.24969999492168427,1.43559992313385,-2.563699960708618
1702299771326731800,71.73873168945312,-0.6236000061035156,5.931099891662598,-1.716499924659729
1702299771386731800,71.79873168945312,2.5787999629974365,1.4220999479293823,1.6967999935150146
1702299771446731800,71.85873168945312,-0.15860000252723694,-2.1026999950408936,3.341399908065796
1702299771506731800,71.91873168945312,-0.746399998664856,-3.131999969482422,2.1742000579833984
1702299771566731800,71.97873168945313,-0.9828999638557434,-3.309299945831299,3.0993998050689697
1702299771626731800,72.03873168945313,0.9934999942779541,-1.5902999639511108,3.200399875640869
1702299771686731800,72.09873168945313,7.551299571990967,2.3773000240325928,-5.285299777984619
1702299771746731800,72.15873168945312,2.784099817276001,-2.7929999828338623,-2.224799871444702
1702299771806731800,72.21873168945312,-0.1915999948978424,4.802199840545654,-1.6276999711990356
1702299771866731800,72.27873168945312,1.1518999338150024,-0.9018999934196472,-1.7645999193191528
1702299771926731800,72.33873168945313,-2.07099986076355,2.5917999744415283,2.2654998302459717
1702299771986731800,72.39873168945313,0.762499988079071,1.9054999351501465,0.5336999893188477
1702299772046731800,72.45873168945313,0.8194999694824219,-2.947499990463257,2.56850004196167
1702299772106731800,72.51873168945312,-2.737499952316284,0.4611999988555908,3.4605000019073486
1702299772166731800,72.57873168945312,1.9092999696731567,-1.4341999292373657,-0.4651999771595001
1702299772226731800,72.63873168945312,2.8350000381469727,-0.3044999837875366,-1.0192999839782715
1702299772286731800,72.69873168945313,2.700500011444092,0.28679999709129333,-2.1501998901367188
1702299772346731800,72.75873168945313,3.5311999320983887,-0.8382999897003174,-2.996699810028076
1702299772406731800,72.81873168945313,0.3944000005722046,0.4389999806880951,-2.256999969482422
1702299772466731800,72.87873168945312,1.215499997138977,0.8711999654769897,0.8325999975204468
1702299772526731800,72.93873168945312,-2.4460999965667725,4.416199684143066,-2.5762999057769775
1702299772586731800,72.99873168945312,3.882399797439575,1.6308000087738037,-0.054099999368190765
1702299772646731800,73.05873168945313,1.4091999530792236,-1.0444999933242798,1.4072999954223633
1702299772706731800,73.11873168945313,-1.0023000240325928,-2.4350998401641846,2.412600040435791
1702299772766731800,73.17873168945313,-1.2422999143600464,-2.233599901199341,4.579599857330322
1702299772826731800,73.23873168945312,-0.05069999769330025,-1.3421000242233276,3.7528998851776123
1702299772886731800,73.29873168945312,4.283699989318848,2.659299850463867,-2.5109000205993652
1702299772946731800,73.35873168945312,2.829200029373169,-1.6279000043869019,-1.0793999433517456
1702299773006731800,73.41873168945312,1.3234999179840088,1.6768999099731445,0.03749999776482582
1702299773066731800,73.47873168945313,0.20229999721050262,1.6033999919891357,-0.6601999998092651
1702299773126731800,73.53873168945313,-4.727299690246582,3.4749999046325684,4.2357001304626465
1702299773186731800,73.59873168945313,2.0404999256134033,1.3698999881744385,-0.6753000020980835
1702299773246731800,73.65873168945312,0.7098000049591064,-2.308500051498413,-1.352199912071228
1702299773306731800,73.71873168945312,-1.132099986076355,-0.8695999979972839,4.305999755859375
1702299773366731800,73.77873168945312,1.8507999181747437,-0.6141999959945679,1.1727999448776245
1702299773426731800,73.83873168945313,1.6669999361038208,-0.9019999504089355,-0.8159999847412109
1702299773486731800,73.89873168945313,3.0421998500823975,0.3619999885559082,-0.7299999594688416
1702299773546731800,73.95873168945313,1.688599944114685,1.0367000102996826,-1.9318000078201294
1702299773606731800,74.01873168945312,1.5196999311447144,1.267300009727478,-2.225100040435791
1702299773666731800,74.07873168945312,-0.4702000021934509,0.44909998774528503,0.3974999785423279
1702299773726731800,74.13873168945312,1.8490999937057495,4.051300048828125,-1.6907999515533447
1702299773786731800,74.19873168945313,-0.15150000154972076,2.827199935913086,1.4412999153137207
1702299773846731800,74.25873168945313,2.4194998741149902,-1.5575999021530151,1.545699954032898
1702299773906731800,74.31873168945313,0.2619999945163727,-2.3511998653411865,2.7963998317718506
1702299773966731800,74.37873168945312,0.24120000004768372,-2.711400032043457,2.619799852371216
1702299774026731800,74.43873168945312,0.7509999871253967,-2.200399875640869,3.552299976348877
1702299774086731800,74.49873168945312,4.0279998779296875,4.6793999671936035,-3.3325998783111572
1702299774146731800,74.55873168945313,5.018499851226807,-1.7661999464035034,-4.969599723815918
1702299774206731800,74.61873168945313,-3.0439999103546143,-0.5403000116348267,-1.1225999593734741
1702299774266731800,74.67873168945313,-3.289799928665161,0.7946999669075012,4.718899726867676
1702299774326731800,74.73873168945312,0.8263999819755554,6.360199928283691,4.370699882507324
1702299774386731800,74.79873168945312,1.629599928855896,-1.0023999214172363,-1.437600016593933
1702299774446731800,74.85873168945312,-0.8621000051498413,-2.906599998474121,1.3810999393463135
