time,seconds_elapsed,z,y,x
1702219769185682700,0.0556826171875,-0.5906999707221985,-0.5661999583244324,-1.2223999500274658
1702219769245682700,0.1156826171875,-0.7816999554634094,-0.9692999720573425,-0.2239999920129776
1702219769305682700,0.1756826171875,0.40849998593330383,-0.7423999905586243,-0.2303999960422516
1702219769365682700,0.2356826171875,-1.4271999597549438,-0.7179999947547913,-1.541700005531311
1702219769425682700,0.2956826171875,-1.7049999237060547,-0.5388999581336975,0.03150000050663948
1702219769485682700,0.3556826171875,1.4127999544143677,-0.75409996509552,-1.011299967765808
1702219769545682700,0.4156826171875,2.3713998794555664,0.0016999999061226845,-1.2467999458312988
1702219769605682700,0.4756826171875,0.6226999759674072,0.243599995970726,-0.32009997963905334
1702219769665682700,0.5356826171875,-0.16169999539852142,0.30410000681877136,-0.2802000045776367
1702219769725682700,0.5956826171875,0.19739998877048492,-0.02159999869763851,-0.3791999816894531
1702219769785682700,0.6556826171875,0.5189999938011169,0.25509998202323914,-0.2838999927043915
1702219769845682700,0.7156826171875,0.45339998602867126,0.3684999942779541,-0.1907999962568283
1702219769905682700,0.7756826171875,0.3904999792575836,0.02539999969303608,1.4043999910354614
1702219769965682700,0.8356826171875,0.37629997730255127,-0.21519999206066132,0.7049999833106995
1702219770025682700,0.8956826171875,-0.18869999051094055,0.11639999598264694,0.18039999902248383
1702219770085682700,0.9556826171875,-0.14710000157356262,0.17989999055862427,0.10329999774694443
1702219770145682700,1.0156826171875,0.10509999841451645,0.16049998998641968,-0.17249999940395355
1702219770205682700,1.0756826171875,-0.6979999542236328,-0.11479999870061874,0.04659999907016754
1702219770265682700,1.1356826171875,-0.8723999857902527,-0.6614999771118164,0.13750000298023224
1702219770325682700,1.1956826171875,-1.9957998991012573,-1.368399977684021,1.1878999471664429
1702219770385682700,1.2556826171875,-3.5954999923706055,-2.0374999046325684,1.423699975013733
1702219770445682700,1.3156826171875,-3.4134998321533203,-2.6947999000549316,0.6394000053405762
1702219770505682700,1.3756826171875,-2.846400022506714,-5.7093000411987305,1.4225999116897583
1702219770565682700,1.4356826171875,-0.8429999947547913,-5.919699668884277,0.8233999609947205
1702219770625682700,1.4956826171875,-2.320199966430664,-6.84499979019165,1.0609999895095825
1702219770685682700,1.5556826171875,-1.6521999835968018,-6.516599655151367,-2.7237000465393066
1702219770745682700,1.6156826171875,-0.219200000166893,-5.3796000480651855,-4.10260009765625
1702219770805682700,1.6756826171875,7.764499664306641,-3.492299795150757,-7.20229959487915
1702219770865682700,1.7356826171875,12.10890007019043,1.4656999111175537,-12.51349925994873
1702219770925682700,1.7956826171875,8.223400115966797,3.199399948120117,-10.111800193786621
1702219770985682700,1.8556826171875,10.613699913024902,7.592799663543701,8.014900207519531
1702219771045682700,1.9156826171875,2.3289999961853027,1.7311999797821045,2.4007999897003174
1702219771105682700,1.9756826171875,2.397899866104126,1.2314999103546143,-2.7863998413085938
1702219771165682700,2.0356826171875,-1.2098000049591064,0.8312999606132507,-2.708199977874756
1702219771225682700,2.0956826171875,0.2694999873638153,1.979200005531311,1.702299952507019
1702219771285682700,2.1556826171875,-1.4431999921798706,-0.2442999929189682,-0.5778999924659729
1702219771345682700,2.2156826171875,0.4982999861240387,0.2635999917984009,2.005199909210205
1702219771405682700,2.2756826171875,1.3325999975204468,-2.9385998249053955,0.6739000082015991
1702219771465682700,2.3356826171875,1.983799934387207,-0.05939999967813492,1.503999948501587
1702219771525682700,2.3956826171875,1.5300999879837036,0.8109999895095825,1.4637999534606934
1702219771585682700,2.4556826171875,4.238699913024902,-2.709399938583374,-4.309499740600586
1702219771645682700,2.5156826171875,-3.634999990463257,-0.7021999955177307,0.2352999895811081
1702219771705682700,2.5756826171875,0.47429999709129333,-0.05419999733567238,-1.235700011253357
1702219771765682700,2.6356826171875,-2.0123000144958496,-0.8380999565124512,0.0510999970138073
1702219771825682700,2.6956826171875,-1.1633999347686768,0.49539998173713684,-0.09369999915361404
1702219771885682700,2.7556826171875,-0.4633999764919281,1.9565999507904053,1.3761999607086182
1702219771945682700,2.8156826171875,-0.6069999933242798,3.859099864959717,3.602099895477295
1702219772005682700,2.8756826171875,-3.5988998413085938,-7.679999828338623,-3.6735999584198
1702219772065682700,2.9356826171875,4.8206000328063965,-1.7308999300003052,-1.3779000043869019
1702219772125682700,2.9956826171875,0.670799970626831,0.9697999954223633,-0.34939998388290405
1702219772185682700,3.0556826171875,1.3293999433517456,-0.12099999934434891,-1.9871999025344849
1702219772245682700,3.1156826171875,3.9602999687194824,0.05040000006556511,-1.2401000261306763
1702219772305682700,3.1756826171875,0.13819999992847443,-0.15529999136924744,-1.653499960899353
1702219772365682700,3.2356826171875,4.599299907684326,-1.2451999187469482,-2.486299991607666
1702219772425682700,3.2956826171875,3.1723999977111816,-2.303999900817871,-3.1903998851776123
1702219772485682700,3.3556826171875,1.5814999341964722,-0.41169998049736023,-3.5848000049591064
1702219772545682700,3.4156826171875,-3.1950998306274414,-3.7849998474121094,1.9002000093460083
1702219772605682700,3.4756826171875,1.250100016593933,-1.2424999475479126,0.8646999597549438
1702219772665682700,3.5356826171875,-3.213599920272827,1.0443999767303467,1.5597999095916748
1702219772725682700,3.5956826171875,-1.256500005722046,1.0684000253677368,1.3818999528884888
1702219772785682700,3.6556826171875,-1.6606999635696411,0.6189000010490417,1.8756999969482422
1702219772845682700,3.7156826171875,-1.0078999996185303,1.823699951171875,2.523599863052368
1702219772905682700,3.7756826171875,5.102799892425537,0.25529998540878296,-4.7067999839782715
1702219772965682700,3.8356826171875,2.126800060272217,1.6612999439239502,-1.9931999444961548
1702219773025682700,3.8956826171875,4.320199966430664,-3.1034998893737793,2.7019999027252197
1702219773085682700,3.9556826171875,-8.859700202941895,-2.437199831008911,-2.485100030899048
1702219773145682700,4.0156826171875,-2.098599910736084,-0.011500000022351742,2.4400999546051025
1702219773205682700,4.0756826171875,-3.328699827194214,-1.8392999172210693,2.1328999996185303
1702219773265682700,4.1356826171875,0.7585999965667725,0.032499998807907104,1.8851999044418335
1702219773325682700,4.1956826171875,0.12999999523162842,0.37219998240470886,-0.21899999678134918
1702219773385682700,4.2556826171875,2.4403998851776123,1.8260999917984009,-0.4072999954223633
1702219773445682700,4.3156826171875,0.4041999876499176,-1.7482999563217163,-2.432499885559082
1702219773505682700,4.3756826171875,6.066699981689453,-0.4242999851703644,1.0257999897003174
1702219773565682700,4.4356826171875,0.8113999962806702,-0.9957000017166138,-2.142400026321411
1702219773625682700,4.4956826171875,6.855199813842773,-0.6311999559402466,-2.3071000576019287
1702219773685682700,4.5556826171875,-2.282399892807007,-3.3775999546051025,-3.7014999389648438
1702219773745682700,4.6156826171875,-2.0566999912261963,-3.0130999088287354,-1.253600001335144
1702219773805682700,4.6756826171875,3.544999837875366,-7.327399730682373,4.075200080871582
1702219773865682700,4.7356826171875,-6.240299701690674,2.2690000534057617,3.0553998947143555
1702219773925682700,4.7956826171875,-1.0468999147415161,1.923699975013733,-0.41259998083114624
1702219773985682700,4.8556826171875,-3.894699811935425,0.9078999757766724,2.2032999992370605
1702219774045682700,4.9156826171875,-1.5138999223709106,3.694499969482422,5.000400066375732
1702219774105682700,4.9756826171875,10.955399513244629,-0.9309999942779541,-4.584399700164795
1702219774165682700,5.0356826171875,0.38929998874664307,-0.16899999976158142,-2.6116998195648193
1702219774225682700,5.0956826171875,2.1236000061035156,5.522500038146973,5.085799694061279
1702219774285682700,5.1556826171875,-1.3257999420166016,-12.557299613952637,-8.008099555969238
1702219774345682700,5.2156826171875,-4.7505998611450195,0.8464999794960022,5.8317999839782715
1702219774405682700,5.2756826171875,-4.8196001052856445,-1.5921999216079712,2.125499963760376
1702219774465682700,5.3356826171875,-3.3178999423980713,-0.7507999539375305,0.7048999667167664
1702219774525682700,5.3956826171875,6.9940996170043945,0.1614999920129776,0.36789998412132263
1702219774585682700,5.4556826171875,-1.9043999910354614,0.32739999890327454,-1.6473000049591064
1702219774645682700,5.5156826171875,0.16200000047683716,0.19409999251365662,-1.525999903678894
1702219774705682700,5.5756826171875,7.417299747467041,0.5733000040054321,-2.619999885559082
1702219774765682700,5.6356826171875,1.6299999952316284,-1.0712000131607056,-2.301300048828125
1702219774825682700,5.6956826171875,4.873499870300293,-0.4318999946117401,-3.05049991607666
1702219774885682700,5.7556826171875,0.9066999554634094,-1.298699975013733,-4.4156999588012695
1702219774945682700,5.8156826171875,-2.3241000175476074,-4.195300102233887,0.39879998564720154
1702219775005682700,5.8756826171875,-1.0958999395370483,-6.527599811553955,3.822399854660034
1702219775065682700,5.9356826171875,-3.971299886703491,1.524899959564209,3.9828999042510986
1702219775125682700,5.9956826171875,-1.8736999034881592,0.7895999550819397,0.3756999969482422
1702219775185682700,6.0556826171875,-4.059000015258789,2.9909000396728516,5.189300060272217
1702219775245682700,6.1156826171875,-0.7001000046730042,3.372799873352051,3.6501998901367188
1702219775305682700,6.1756826171875,6.182499885559082,-3.6610000133514404,-13.566800117492676
1702219775365682700,6.2356826171875,-0.38119998574256897,6.089799880981445,1.4405999183654785
1702219775425682700,6.2956826171875,-4.917299747467041,-12.751099586486816,-3.0687999725341797
1702219775485682700,6.3556826171875,-5.102099895477295,1.8316999673843384,5.522299766540527
1702219775545682700,6.4156826171875,-3.7375998497009277,-0.2757999897003174,1.1690000295639038
1702219775605682700,6.4756826171875,0.015199999324977398,-0.32989999651908875,-1.8632999658584595
1702219775665682700,6.5356826171875,0.9547999501228333,0.29819998145103455,-0.4355999827384949
1702219775725682700,6.5956826171875,-0.8078999519348145,0.7448999881744385,-0.4071999788284302
1702219775785682700,6.6556826171875,1.1055999994277954,0.5849999785423279,-0.22349999845027924
1702219775845682700,6.7156826171875,8.353300094604492,-2.139400005340576,-1.9185999631881714
1702219775905682700,6.7756826171875,-0.1784999966621399,-0.5026000142097473,-2.197999954223633
1702219775965682700,6.8356826171875,4.4664998054504395,-0.29729998111724854,-5.838900089263916
1702219776025682700,6.8956826171875,2.0939998626708984,-1.2818999290466309,-0.8782999515533447
1702219776085682700,6.9556826171875,-4.744199752807617,-3.6050000190734863,-0.9822999835014343
1702219776145682700,7.0156826171875,-0.0364999994635582,-4.0752997398376465,1.6811999082565308
1702219776205682700,7.0756826171875,-3.196499824523926,0.4108999967575073,3.3086998462677
1702219776265682700,7.1356826171875,-3.3304998874664307,1.9543999433517456,1.5852999687194824
1702219776325682700,7.1956826171875,-2.5421998500823975,2.52239990234375,4.141900062561035
1702219776385682700,7.2556826171875,2.1557998657226562,1.9706999063491821,2.90559983253479
1702219776445682700,7.3156826171875,4.450999736785889,0.11739999800920486,-3.9935998916625977
1702219776505682700,7.3756826171875,3.0566999912261963,-2.819399833679199,-4.418799877166748
1702219776565682700,7.4356826171875,-8.362099647521973,-3.0295000076293945,3.6611998081207275
1702219776625682700,7.4956826171875,-4.076999664306641,1.545699954032898,2.8519999980926514
1702219776685682700,7.5556826171875,-4.33489990234375,-5.279099941253662,-2.6023998260498047
1702219776745682700,7.6156826171875,-0.3052999973297119,0.6416999697685242,1.2487000226974487
1702219776805682700,7.6756826171875,0.6690999865531921,0.11749999970197678,1.1953999996185303
1702219776865682700,7.7356826171875,-1.0266000032424927,0.5036999583244324,-1.6460999250411987
1702219776925682700,7.7956826171875,1.476099967956543,0.7687000036239624,-2.0493998527526855
1702219776985682700,7.8556826171875,5.288599967956543,-0.12429999560117722,-2.035099983215332
1702219777045682700,7.9156826171875,1.3889999389648438,-1.669600009918213,-0.2816999852657318
1702219777105682700,7.9756826171875,2.493799924850464,-2.7181999683380127,-1.7285000085830688
1702219777165682700,8.0356826171875,2.651899814605713,-2.3085999488830566,-5.013999938964844
1702219777225682700,8.0956826171875,-4.851799964904785,2.0971999168395996,-1.0024999380111694
1702219777285682700,8.1556826171875,-1.074199914932251,-4.283599853515625,-1.5565999746322632
1702219777345682700,8.2156826171875,-2.2614998817443848,-0.527999997138977,3.2475998401641846
1702219777405682700,8.2756826171875,-1.6832998991012573,0.5374999642372131,1.910499930381775
1702219777465682700,8.3356826171875,-2.600399971008301,0.4098999798297882,2.0874998569488525
1702219777525682700,8.3956826171875,-1.223099946975708,2.109499931335449,6.220699787139893
1702219777585682700,8.4556826171875,1.8798999786376953,0.4910999834537506,-0.28329998254776
1702219777645682700,8.5156826171875,2.1963999271392822,2.4821999073028564,-6.682699680328369
1702219777705682700,8.5756826171875,0.07699999958276749,-2.857599973678589,-2.3710999488830566
1702219777765682700,8.6356826171875,-5.954999923706055,-4.87369966506958,2.405400037765503
1702219777825682700,8.6956826171875,-4.729300022125244,0.8009999990463257,3.3877999782562256
1702219777885682700,8.7556826171875,-4.278199672698975,-2.3248000144958496,-0.8540999889373779
1702219777945682700,8.8156826171875,-3.2416000366210938,1.0167999267578125,0.7206999659538269
1702219778005682700,8.8756826171875,5.5731000900268555,0.12299999594688416,-0.9544000029563904
1702219778065682700,8.9356826171875,0.1876000016927719,0.9617999792098999,-1.114400029182434
1702219778125682700,8.9956826171875,0.3041999936103821,0.42409998178482056,-1.678399920463562
1702219778185682700,9.0556826171875,5.394799709320068,-0.5699999928474426,-0.6365000009536743
1702219778245682700,9.1156826171875,1.2273999452590942,-1.965499997138977,-3.2558999061584473
1702219778305682700,9.1756826171875,8.204500198364258,0.1973000019788742,-5.208600044250488
1702219778365682700,9.2356826171875,-4.1128997802734375,-3.350799798965454,3.0179998874664307
1702219778425682700,9.2956826171875,-1.027999997138977,-6.301699638366699,-2.1243999004364014
1702219778485682700,9.3556826171875,-1.3863999843597412,-2.057999849319458,0.5115999579429626
1702219778545682700,9.4156826171875,-5.088099956512451,0.14489999413490295,3.779599905014038
1702219778605682700,9.4756826171875,-1.6394000053405762,2.499199867248535,3.1123998165130615
1702219778665682700,9.5356826171875,-1.8133999109268188,2.8372998237609863,4.47160005569458
1702219778725682700,9.5956826171875,2.72979998588562,0.5752999782562256,-0.6638000011444092
1702219778785682700,9.6556826171875,1.949299931526184,1.7394999265670776,-1.1279000043869019
1702219778845682700,9.7156826171875,5.5447998046875,-3.8566999435424805,-2.3536999225616455
1702219778905682700,9.7756826171875,-7.315099716186523,-0.24639999866485596,2.5097999572753906
1702219778965682700,9.8356826171875,-6.894099712371826,-1.117900013923645,1.4232999086380005
1702219779025681200,9.89568115234375,-0.7581999897956848,-2.528599977493286,-2.027099847793579
1702219779085681200,9.95568115234375,-1.1917999982833862,1.6589999198913574,1.12909996509552
1702219779145682700,10.0156826171875,1.2211999893188477,-0.10889999568462372,-0.9041999578475952
1702219779205682700,10.0756826171875,0.3312000036239624,1.5016999244689941,-2.198499917984009
1702219779265682700,10.1356826171875,0.5931999683380127,0.9364999532699585,-1.7649999856948853
1702219779325682700,10.1956826171875,1.2138999700546265,-1.0729999542236328,-0.981499969959259
1702219779385682700,10.2556826171875,4.296299934387207,-2.0272998809814453,-0.4803999960422516
1702219779445682700,10.3156826171875,1.9952999353408813,-1.302799940109253,-2.577899932861328
1702219779505682700,10.3756826171875,5.645199775695801,-1.9957998991012573,-6.314499855041504
1702219779565709300,10.435709228515625,-3.7548999786376953,0.2858999967575073,-0.4000999927520752
1702219779625682700,10.4956826171875,1.3366999626159668,-4.880799770355225,-2.0592000484466553
1702219779685682700,10.5556826171875,-2.4940998554229736,-0.5439000129699707,3.057299852371216
1702219779745682700,10.6156826171875,-2.82889986038208,0.2786000072956085,2.512500047683716
1702219779805681200,10.67568115234375,-2.984299898147583,0.9172999858856201,2.8345999717712402
1702219779865681200,10.73568115234375,-2.686499834060669,3.0944998264312744,7.0706000328063965
1702219779925681200,10.79568115234375,9.523599624633789,-1.767899990081787,-12.182000160217285
1702219779985681200,10.85568115234375,-1.6212999820709229,-1.1589000225067139,-6.9579997062683105
1702219780045682700,10.9156826171875,-2.265199899673462,1.271299958229065,13.2701997756958
1702219780105682700,10.9756826171875,-1.6955000162124634,-7.074599742889404,-4.4141998291015625
1702219780165682700,11.0356826171875,-2.875499963760376,0.5153999924659729,0.3077999949455261
1702219780225682700,11.0956826171875,-2.766700029373169,0.3586999773979187,0.5299999713897705
1702219780285682700,11.1556826171875,1.1526999473571777,0.65829998254776,-0.5830999612808228
1702219780345682700,11.2156826171875,1.4500999450683594,0.8726999759674072,0.4244999885559082
1702219780405682700,11.2756826171875,1.2106999158859253,0.7863999605178833,-0.5511999726295471
1702219780465682700,11.3356826171875,2.189499855041504,-0.18050000071525574,-2.4182000160217285
1702219780525682700,11.3956826171875,4.488100051879883,-0.2886999845504761,-2.577399969100952
1702219780585682700,11.4556826171875,4.138499736785889,-0.7190999984741211,-6.581199645996094
1702219780645682700,11.5156826171875,-5.766900062561035,-3.3653998374938965,-2.550999879837036
1702219780705682700,11.5756826171875,3.28059983253479,-7.9781999588012695,0.5654999613761902
1702219780765682700,11.6356826171875,-2.722899913787842,-1.1380000114440918,2.9027998447418213
1702219780825682700,11.6956826171875,-1.5844999551773071,0.9628999829292297,1.5765999555587769
1702219780885682700,11.7556826171875,-4.128799915313721,1.3180999755859375,3.6694998741149902
1702219780945682700,11.8156826171875,-3.8427999019622803,3.3934998512268066,6.260499954223633
1702219781005682700,11.8756826171875,3.5012998580932617,1.0458999872207642,0.9070000052452087
1702219781065682700,11.9356826171875,3.0885000228881836,1.448599934577942,-4.94189977645874
1702219781125682700,11.9956826171875,3.795499801635742,-7.808899879455566,-6.080999851226807
1702219781185682700,12.0556826171875,-4.947199821472168,1.871899962425232,7.152599811553955
1702219781245682700,12.1156826171875,-4.720099925994873,-4.548099994659424,0.08699999749660492
1702219781305682700,12.1756826171875,-2.5364999771118164,-1.8345999717712402,-1.583299994468689
1702219781365682700,12.2356826171875,2.115000009536743,0.6104999780654907,2.393899917602539
1702219781425682700,12.2956826171875,0.2574000060558319,0.4245999753475189,1.868399977684021
1702219781485682700,12.3556826171875,-1.1029999256134033,2.2730000019073486,-0.9376999735832214
1702219781545682700,12.4156826171875,-1.653899908065796,2.7040998935699463,-1.646299958229065
1702219781605682700,12.4756826171875,4.329599857330322,-1.6173999309539795,-5.4004998207092285
1702219781665682700,12.5356826171875,-0.7608999609947205,-1.6434999704360962,-3.01039981842041
1702219781725682700,12.5956826171875,9.969499588012695,-0.5011000037193298,-1.8438999652862549
1702219781785682700,12.6556826171875,0.7389000058174133,-1.6146999597549438,-5.88599967956543
1702219781845682700,12.7156826171875,-6.01609992980957,-1.5069999694824219,-4.845999717712402
1702219781905682700,12.7756826171875,3.7782998085021973,-5.934299945831299,1.0916999578475952
1702219781965682700,12.8356826171875,-2.339900016784668,0.4001999795436859,4.97599983215332
1702219782025682700,12.8956826171875,-4.5254998207092285,1.5741000175476074,0.3480999767780304
1702219782085682700,12.9556826171875,-4.864099979400635,2.021399974822998,7.873299598693848
1702219782145682700,13.0156826171875,0.8715999722480774,1.6404999494552612,5.9054999351501465
1702219782205682700,13.0756826171875,3.2660000324249268,-2.2300000190734863,-5.212100028991699
1702219782265682700,13.1356826171875,-2.583699941635132,-9.326299667358398,-9.118999481201172
1702219782325682700,13.1956826171875,-4.167099952697754,3.3892998695373535,11.842399597167969
1702219782385682700,13.2556826171875,-1.3877999782562256,-4.650199890136719,-1.989799976348877
1702219782445682700,13.3156826171875,-4.045300006866455,-2.4140000343322754,-1.6172000169754028
1702219782505682700,13.3756826171875,-2.0981998443603516,1.8298999071121216,2.296099901199341
1702219782565682700,13.4356826171875,1.6755999326705933,0.14239999651908875,0.47209998965263367
1702219782625682700,13.4956826171875,-0.011599999852478504,1.5703999996185303,-0.04919999837875366
1702219782685682700,13.5556826171875,1.5886999368667603,0.5063999891281128,-1.9572999477386475
1702219782745682700,13.6156826171875,10.631199836730957,-2.2779998779296875,-4.393799781799316
1702219782805682700,13.6756826171875,-0.8474999666213989,-0.8396999835968018,-2.357599973678589
1702219782865682700,13.7356826171875,6.03939962387085,-1.9866999387741089,-8.14680004119873
1702219782925682700,13.7956826171875,-0.1680999994277954,0.6394999623298645,-2.7151999473571777
1702219782985682700,13.8556826171875,-3.5451998710632324,-5.764800071716309,0.5654000043869019
1702219783045682700,13.9156826171875,0.14259999990463257,-2.4903998374938965,2.6048998832702637
1702219783105682700,13.9756826171875,-4.9481000900268555,1.5870000123977661,2.6315999031066895
1702219783165682700,14.0356826171875,-2.638399839401245,1.4422999620437622,0.2590999901294708
1702219783225682700,14.0956826171875,-3.3143999576568604,1.295300006866455,5.894399642944336
1702219783285682700,14.1556826171875,0.7075999975204468,2.0105998516082764,4.411099910736084
1702219783345682700,14.2156826171875,4.631199836730957,0.39640000462532043,-8.187199592590332
1702219783405682700,14.2756826171875,-1.181399941444397,1.890299916267395,-5.4203996658325195
1702219783465682700,14.3356826171875,-2.227299928665161,-7.150399684906006,1.8765000104904175
1702219783525682700,14.3956826171875,-5.365999698638916,-0.37860000133514404,4.8867998123168945
1702219783585682700,14.4556826171875,-4.090399742126465,-3.4960999488830566,-1.2558000087738037
1702219783645682700,14.5156826171875,-2.7620999813079834,0.3334999978542328,0.16349999606609344
1702219783705682700,14.5756826171875,2.956399917602539,1.0515999794006348,2.865799903869629
1702219783765682700,14.6356826171875,-0.07029999792575836,0.8540999889373779,-0.731499969959259
1702219783825682700,14.6956826171875,0.0997999981045723,0.9532999992370605,-2.0874998569488525
1702219783885682700,14.7556826171875,3.6826999187469482,-0.07329999655485153,-3.6696999073028564
1702219783945682700,14.8156826171875,1.8420000076293945,0.06129999831318855,-3.184000015258789
1702219784005682700,14.8756826171875,2.539599895477295,-1.3113999366760254,-4.612800121307373
1702219784065682700,14.9356826171875,2.194200038909912,-1.3172999620437622,-2.7005999088287354
1702219784125682700,14.9956826171875,-4.043900012969971,-2.9589998722076416,-0.6049000024795532
1702219784185682700,15.0556826171875,-0.4478999972343445,-5.187299728393555,-0.14989998936653137
1702219784245682700,15.1156826171875,-5.317800045013428,1.3184999227523804,2.517400026321411
1702219784305682700,15.1756826171875,-2.8058998584747314,1.242900013923645,1.6780999898910522
1702219784365682700,15.2356826171875,-3.6255998611450195,1.7621999979019165,5.674099922180176
1702219784425682700,15.2956826171875,-0.9811999797821045,1.9701999425888062,7.200799942016602
1702219784485682700,15.3556826171875,9.196000099182129,-4.771699905395508,-11.502399444580078
1702219784545682700,15.4156826171875,-3.4138998985290527,6.097099781036377,-1.7222999334335327
1702219784605682700,15.4756826171875,-3.340099811553955,-2.6282999515533447,-2.2676000595092773
1702219784665682700,15.5356826171875,5.138000011444092,-7.239500045776367,-1.8680999279022217
1702219784725682700,15.5956826171875,-5.45989990234375,-0.19569998979568481,5.362199783325195
1702219784785682700,15.6556826171875,-5.891299724578857,-3.4520998001098633,-0.7928999662399292
1702219784845682700,15.7156826171875,-0.6316999793052673,0.13570000231266022,0.09479999542236328
1702219784905682700,15.7756826171875,5.337800025939941,0.9994999766349792,1.8457999229431152
1702219784965681200,15.83568115234375,-0.028699999675154686,1.7785999774932861,-0.6729999780654907
1702219785025682700,15.8956826171875,0.43709999322891235,1.5734999179840088,-2.458699941635132
1702219785085682700,15.9556826171875,2.3894999027252197,-0.9302999973297119,-3.6315999031066895
1702219785145682700,16.0156826171875,3.3351998329162598,-0.4778999984264374,-1.7648999691009521
1702219785205682700,16.0756826171875,2.099400043487549,-1.0356999635696411,-3.0062999725341797
1702219785265682700,16.1356826171875,-5.4923996925354,-1.4041999578475952,-1.5017999410629272
1702219785325682700,16.1956826171875,2.721299886703491,-6.32289981842041,-1.330299973487854
1702219785385682700,16.2556826171875,-5.456199645996094,-0.07249999791383743,3.5013999938964844
1702219785445682700,16.3156826171875,-1.0583000183105469,0.6248999834060669,1.2099000215530396
1702219785505682700,16.3756826171875,-3.001699924468994,0.39969998598098755,3.361999988555908
1702219785565682700,16.4356826171875,-2.4982998371124268,1.7389999628067017,6.473499774932861
1702219785625682700,16.4956826171875,2.526399850845337,0.5009999871253967,-2.161900043487549
1702219785685682700,16.5556826171875,0.6362999677658081,3.853099822998047,-6.313499927520752
1702219785745682700,16.6156826171875,0.9257999658584595,-3.15559983253479,-1.027899980545044
1702219785805682700,16.6756826171875,-2.8731000423431396,-4.422800064086914,1.2252999544143677
1702219785865682700,16.7356826171875,-4.9822998046875,-0.5654999613761902,0.4643999934196472
1702219785925682700,16.7956826171875,-4.156599998474121,-2.5593998432159424,-1.9768999814987183
1702219785985682700,16.8556826171875,-1.961899995803833,0.8501999974250793,0.8782999515533447
1702219786045682700,16.9156826171875,1.3396999835968018,0.4643999934196472,2.276399850845337
1702219786105682700,16.9756826171875,0.5580999851226807,0.7989000082015991,-0.3971000015735626
1702219786165682700,17.0356826171875,1.5607999563217163,0.5634999871253967,-2.9024999141693115
1702219786225682700,17.0956826171875,1.8075000047683716,1.3701000213623047,-1.3358999490737915
1702219786285682700,17.1556826171875,1.1974999904632568,-0.9220999479293823,-2.4484000205993652
1702219786345682700,17.2156826171875,3.8720998764038086,-0.3935999870300293,-1.8208999633789062
1702219786405682700,17.2756826171875,2.782899856567383,-2.8564000129699707,-5.051599979400635
1702219786465682700,17.3356826171875,-3.930799961090088,1.2761999368667603,-1.81659996509552
1702219786525682700,17.3956826171875,0.18119999766349792,-6.178499698638916,-2.3436999320983887
1702219786585682700,17.4556826171875,-3.4273998737335205,-1.0821999311447144,3.1745998859405518
1702219786645682700,17.5156826171875,-3.0772998332977295,0.5941999554634094,1.4261999130249023
1702219786705682700,17.5756826171875,-3.2814998626708984,0.5378000140190125,2.7898998260498047
1702219786765682700,17.6356826171875,-2.7783000469207764,2.53059983253479,7.753399848937988
1702219786825682700,17.6956826171875,3.9310998916625977,0.9030999541282654,-0.5769000053405762
1702219786885682700,17.7556826171875,0.6559000015258789,4.4593000411987305,-7.167299747467041
1702219786945682700,17.8156826171875,1.327199935913086,0.8446999788284302,0.5029000043869019
1702219787005682700,17.8756826171875,-10.563300132751465,-9.391399383544922,-3.0520999431610107
1702219787065682700,17.9356826171875,-5.283999919891357,-0.0044999998062849045,4.216000080108643
1702219787125682700,17.9956826171875,-6.5117998123168945,-3.1410999298095703,-0.5078999996185303
1702219787185682700,18.0556826171875,0.3425000011920929,0.4596000015735626,-0.6243000030517578
1702219787245682700,18.1156826171875,1.9869999885559082,0.011799999512732029,1.0311999320983887
1702219787305682700,18.1756826171875,-0.6468999981880188,1.4771000146865845,-0.1881999969482422
1702219787365682700,18.2356826171875,-1.041700005531311,1.215999960899353,-2.849599838256836
1702219787425682700,18.2956826171875,2.577399969100952,-0.2597000002861023,-3.9086999893188477
1702219787485682700,18.3556826171875,2.619999885559082,-0.5816999673843384,-2.268899917602539
1702219787545682700,18.4156826171875,1.1452000141143799,-1.7324999570846558,-2.98829984664917
1702219787605682700,18.4756826171875,3.851599931716919,0.5241999626159668,-2.758699893951416
1702219787665682700,18.5356826171875,-10.217399597167969,-2.8945999145507812,-5.723899841308594
1702219787725682700,18.5956826171875,2.547999858856201,-7.013799667358398,0.012399999424815178
1702219787785682700,18.6556826171875,-3.2527999877929688,-0.6984999775886536,4.269499778747559
1702219787845682700,18.7156826171875,-3.452399969100952,1.5853999853134155,1.2340999841690063
1702219787905682700,18.7756826171875,-3.5871999263763428,1.243299961090088,2.885999917984009
1702219787965682700,18.8356826171875,-3.010499954223633,1.6280999183654785,6.48259973526001
1702219788025682700,18.8956826171875,4.775300025939941,-0.4594999849796295,-5.03249979019165
1702219788085682700,18.9556826171875,0.08630000054836273,3.57889986038208,-3.2667999267578125
1702219788145682700,19.0156826171875,2.171099901199341,-8.933699607849121,-5.562099933624268
1702219788205682700,19.0756826171875,2.1225998401641846,3.0376999378204346,7.121399879455566
1702219788265681200,19.13568115234375,-6.46619987487793,-1.9493999481201172,-0.41349998116493225
1702219788325682700,19.1956826171875,-1.9154999256134033,-0.33309999108314514,-1.7654999494552612
1702219788385682700,19.2556826171875,0.03099999949336052,0.49459999799728394,-0.017500000074505806
1702219788445682700,19.3156826171875,-0.8517000079154968,-0.1574999988079071,1.317099928855896
1702219788505682700,19.3756826171875,0.30949997901916504,0.832099974155426,-0.3312000036239624
1702219788565682700,19.4356826171875,-0.016200000420212746,1.6668999195098877,-1.7897999286651611
1702219788625682700,19.4956826171875,0.11979999393224716,1.2699999809265137,-1.4225999116897583
1702219788685682700,19.5556826171875,3.6577999591827393,-0.8974999785423279,-1.4488999843597412
1702219788745682700,19.6156826171875,1.1145999431610107,-1.3953999280929565,-3.4189000129699707
1702219788805682700,19.6756826171875,8.484000205993652,-2.1108999252319336,-6.418699741363525
1702219788865682700,19.7356826171875,-3.819999933242798,1.2071999311447144,-0.567799985408783
1702219788925682700,19.7956826171875,3.683199882507324,-8.301899909973145,-1.4874999523162842
1702219788985682700,19.8556826171875,-4.824599742889404,-0.9801999926567078,2.316499948501587
1702219789045682700,19.9156826171875,-1.4448000192642212,1.3070999383926392,0.07189999520778656
1702219789105682700,19.9756826171875,-2.7958998680114746,0.4260999858379364,1.9952999353408813
1702219789165682700,20.0356826171875,-2.761199951171875,1.9014999866485596,6.5792999267578125
1702219789225681200,20.09568115234375,0.20809999108314514,2.6024999618530273,5.781199932098389
1702219789285682700,20.1556826171875,4.525000095367432,-1.8923999071121216,-10.944999694824219
1702219789345682700,20.2156826171875,-2.0964999198913574,4.571599960327148,-5.683499813079834
1702219789405682700,20.2756826171875,-5.182799816131592,1.657599925994873,3.2926998138427734
1702219789465682700,20.3356826171875,3.336400032043457,-4.194900035858154,-1.7245999574661255
1702219789525682700,20.3956826171875,-13.850699424743652,-8.40369987487793,6.840199947357178
1702219789585682700,20.4556826171875,-6.613399982452393,0.7464999556541443,1.9240999221801758
1702219789645682700,20.5156826171875,2.336599826812744,0.024000000208616257,-4.430599689483643
1702219789705682700,20.5756826171875,5.866499900817871,2.404399871826172,3.1554999351501465
1702219789765682700,20.6356826171875,-0.6935999989509583,1.3852999210357666,-1.5651999711990356
1702219789825682700,20.6956826171875,0.5676000118255615,0.517799973487854,-4.195699691772461
1702219789885682700,20.7556826171875,-0.45229998230934143,1.3966000080108643,-3.4542999267578125
1702219789945682700,20.8156826171875,2.2345998287200928,-0.8241999745368958,-1.753499984741211
1702219790005682700,20.8756826171875,4.339099884033203,0.526199996471405,-0.7846999764442444
1702219790065682700,20.9356826171875,1.6270999908447266,-3.2890000343322754,-4.459399700164795
1702219790125682700,20.9956826171875,-4.987799644470215,0.8145999908447266,-4.8892998695373535
1702219790185682700,21.0556826171875,3.0882999897003174,-6.429499626159668,-1.8995999097824097
1702219790245682700,21.1156826171875,-4.216099739074707,-1.4321999549865723,3.471400022506714
1702219790305682700,21.1756826171875,-3.670099973678589,1.8319998979568481,2.77839994430542
1702219790365682700,21.2356826171875,-2.2547998428344727,1.8438999652862549,1.6907999515533447
1702219790425682700,21.2956826171875,-3.427299976348877,1.1682000160217285,5.16379976272583
1702219790485682700,21.3556826171875,0.7670999765396118,2.053499937057495,0.9036999940872192
1702219790545682700,21.4156826171875,0.30889999866485596,2.03629994392395,-8.906099319458008
1702219790605682700,21.4756826171875,1.3150999546051025,-2.017199993133545,-2.9345998764038086
1702219790665682700,21.5356826171875,-4.202499866485596,-4.562900066375732,1.6733999252319336
1702219790725682700,21.5956826171875,-3.2172999382019043,-1.5061999559402466,4.650000095367432
1702219790785682700,21.6556826171875,-4.069499969482422,-3.1783998012542725,-0.8872999548912048
1702219790845682700,21.7156826171875,-1.8994998931884766,1.0827000141143799,-0.5898999571800232
1702219790905682700,21.7756826171875,3.185299873352051,2.1998000144958496,1.0297999382019043
1702219790965682700,21.8356826171875,0.0640999972820282,0.9957999587059021,-1.2666000127792358
1702219791025682700,21.8956826171875,-0.8981999754905701,1.4807000160217285,-1.8229999542236328
1702219791085682700,21.9556826171875,1.1454999446868896,0.6692999601364136,-2.861799955368042
1702219791145682700,22.0156826171875,4.881099700927734,-1.3729000091552734,-2.34060001373291
1702219791205682700,22.0756826171875,4.372099876403809,-1.7720999717712402,-1.6282999515533447
1702219791265682700,22.1356826171875,1.9519999027252197,0.06499999761581421,-4.101999759674072
1702219791325682700,22.1956826171875,-7.325199604034424,-4.453700065612793,-3.7361998558044434
1702219791385682700,22.2556826171875,0.5295000076293945,-5.906300067901611,-0.3628000020980835
1702219791445682700,22.3156826171875,-5.314899921417236,1.4239000082015991,3.223099946975708
1702219791505682700,22.3756826171875,-2.391700029373169,1.8863999843597412,2.0486998558044434
1702219791565682700,22.4356826171875,-4.200200080871582,0.7489999532699585,4.573599815368652
1702219791625682700,22.4956826171875,-2.6803998947143555,1.698599934577942,6.908799648284912
1702219791685682700,22.5556826171875,7.85699987411499,-4.918999671936035,-7.583099842071533
1702219791745682700,22.6156826171875,-0.5999999642372131,5.262599945068359,-4.18619966506958
1702219791805682700,22.6756826171875,-1.8188999891281128,1.4190999269485474,-0.26600000262260437
1702219791865682700,22.7356826171875,-4.8394999504089355,-5.1352996826171875,-3.730599880218506
1702219791925682700,22.7956826171875,-4.0980000495910645,0.6990000009536743,3.6292998790740967
1702219791985682700,22.8556826171875,-6.015399932861328,-3.8508999347686768,-2.461599826812744
1702219792045682700,22.9156826171875,-3.4380998611450195,-0.4139999747276306,1.2675999402999878
1702219792105682700,22.9756826171875,5.1703996658325195,0.022299999371170998,5.855499744415283
1702219792165682700,23.0356826171875,-0.9914999604225159,0.734499990940094,0.26919999718666077
1702219792225682700,23.0956826171875,-1.5810999870300293,1.6916999816894531,-1.2728999853134155
1702219792285682700,23.1556826171875,3.3964998722076416,-0.7301999926567078,-4.793699741363525
1702219792345682700,23.2156826171875,1.404099941253662,-0.23819999396800995,-4.957399845123291
1702219792405682700,23.2756826171875,9.809599876403809,-0.5871999859809875,-2.455699920654297
1702219792465682700,23.3356826171875,-3.510200023651123,-4.421299934387207,-3.7889997959136963
1702219792525682700,23.3956826171875,-1.646799921989441,-3.051800012588501,-3.2358999252319336
1702219792585682700,23.4556826171875,-0.46399998664855957,-3.4895999431610107,3.1963999271392822
1702219792645682700,23.5156826171875,-2.5432000160217285,0.16599999368190765,2.900399923324585
1702219792705682700,23.5756826171875,-2.6668999195098877,1.7703999280929565,2.2669999599456787
1702219792765682700,23.6356826171875,-3.49429988861084,1.9565999507904053,5.194699764251709
1702219792825682700,23.6956826171875,0.0689999982714653,2.166300058364868,1.136199951171875
1702219792885682700,23.7556826171875,1.254699945449829,0.4138000011444092,-6.787199974060059
1702219792945682700,23.8156826171875,0.40869998931884766,2.4124999046325684,-1.3255999088287354
1702219793005682700,23.8756826171875,1.3051999807357788,-6.414899826049805,-3.6173999309539795
1702219793065682700,23.9356826171875,-3.099799871444702,-0.00009999999747378752,2.996299982070923
1702219793125682700,23.9956826171875,-5.322000026702881,-2.146699905395508,0.09429999440908432
1702219793185682700,24.0556826171875,-4.210400104522705,-0.9614999890327454,-1.5791000127792358
1702219793245682700,24.1156826171875,1.6236999034881592,1.1121000051498413,1.6102999448776245
1702219793305682700,24.1756826171875,-0.18279999494552612,0.7550999522209167,1.2094999551773071
1702219793365682700,24.2356826171875,-0.29170000553131104,0.971299946308136,-1.552799940109253
1702219793425682700,24.2956826171875,1.2276999950408936,0.767799973487854,-2.7475998401641846
1702219793485682700,24.3556826171875,4.479099750518799,-0.7335000038146973,-3.1923999786376953
1702219793545682700,24.4156826171875,1.581299901008606,-1.493299961090088,-5.340199947357178
1702219793605682700,24.4756826171875,1.7075999975204468,-0.12269999831914902,-2.644700050354004
1702219793665682700,24.5356826171875,-6.9558000564575195,-2.272599935531616,-2.022599935531616
1702219793725682700,24.5956826171875,-0.42170000076293945,-3.7346999645233154,-4.627599716186523
1702219793785682700,24.6556826171875,-2.0882999897003174,-1.2721999883651733,2.158400058746338
1702219793845682700,24.7156826171875,-2.1605000495910645,0.9061999917030334,4.2276997566223145
1702219793905682700,24.7756826171875,-3.5799999237060547,1.803999900817871,3.1305999755859375
1702219793965682700,24.8356826171875,-1.073799967765808,1.2204999923706055,4.508800029754639
1702219794025682700,24.8956826171875,4.726999759674072,-1.2870999574661255,-4.640100002288818
1702219794085682700,24.9556826171875,0.3057999908924103,5.042500019073486,-2.250200033187866
1702219794145682700,25.0156826171875,-2.376699924468994,-1.476599931716919,-1.8285999298095703
1702219794205682700,25.0756826171875,0.559499979019165,-1.8585000038146973,2.0272998809814453
1702219794265682700,25.1356826171875,-4.252299785614014,-1.615799903869629,3.0097999572753906
1702219794325682700,25.1956826171875,-4.31220006942749,-3.435699939727783,-2.5902998447418213
1702219794385682700,25.2556826171875,0.6538000106811523,1.0885000228881836,-0.05869999900460243
1702219794445682700,25.3156826171875,-0.0674000009894371,0.3725000023841858,0.2336999922990799
1702219794505682700,25.3756826171875,-1.643799901008606,1.6947999000549316,-1.2244999408721924
1702219794565709300,25.435709228515623,-0.5065999627113342,1.8953999280929565,-1.889699935913086
1702219794625682700,25.4956826171875,2.1273999214172363,-0.4497999846935272,-4.549099922180176
1702219794685682700,25.5556826171875,2.2274999618530273,-1.1191999912261963,-2.333099842071533
1702219794745681200,25.61568115234375,0.2809000015258789,-0.6358999609947205,-3.7692999839782715
1702219794805681200,25.67568115234375,4.325200080871582,-0.59579998254776,-5.67549991607666
1702219794865682700,25.7356826171875,-4.9019999504089355,0.5029000043869019,-1.4959999322891235
1702219794925682700,25.7956826171875,0.7148000001907349,-5.560400009155273,-2.8546998500823975
1702219794985682700,25.8556826171875,-4.266299724578857,-0.8039000034332275,2.587399959564209
1702219795045682700,25.9156826171875,-2.930799961090088,0.5295999646186829,1.473099946975708
1702219795105682700,25.9756826171875,-2.9898998737335205,0.9370999932289124,3.3625998497009277
1702219795165682700,26.0356826171875,-2.668599843978882,2.656399965286255,6.413099765777588
1702219795225682700,26.0956826171875,2.631199836730957,0.585599958896637,-3.2651000022888184
1702219795285682700,26.1556826171875,-0.28110000491142273,4.388599872589111,-5.4309000968933105
1702219795345682700,26.2156826171875,0.47529998421669006,-2.5230000019073486,-2.2523999214172363
1702219795405682700,26.2756826171875,-5.548099994659424,-1.805299997329712,-1.566100001335144
1702219795465682700,26.3356826171875,-5.805799961090088,-0.7608000040054321,4.484699726104736
1702219795525682700,26.3956826171875,-4.104399681091309,-3.941999912261963,-0.5600999593734741
1702219795585682700,26.4556826171875,-2.1641998291015625,0.8301999568939209,0.10559999942779541
1702219795645682700,26.5156826171875,3.013000011444092,0.5561999678611755,0.8003999590873718
1702219795705682700,26.5756826171875,-1.0473999977111816,1.2573999166488647,-2.354300022125244
1702219795765682700,26.6356826171875,-0.5516999959945679,2.474299907684326,-1.553399920463562
1702219795825682700,26.6956826171875,3.478299856185913,-0.49229997396469116,-3.593599796295166
1702219795885682700,26.7556826171875,1.4358999729156494,-0.7470999956130981,-1.6970999240875244
1702219795945682700,26.8156826171875,2.1250998973846436,-0.9133999943733215,-3.4438998699188232
1702219796005682700,26.8756826171875,1.8756999969482422,-1.2437999248504639,-3.8586997985839844
1702219796065682700,26.9356826171875,-6.973999977111816,-1.639699935913086,-0.20659999549388885
1702219796125682700,26.9956826171875,2.0530998706817627,-5.055799961090088,-2.6902999877929688
1702219796185682700,27.0556826171875,-5.230000019073486,0.929099977016449,1.142199993133545
1702219796245682700,27.1156826171875,-2.5341999530792236,0.31039997935295105,2.2186999320983887
1702219796305682700,27.1756826171875,-3.3815999031066895,1.8367999792099,4.396299839019775
1702219796365682700,27.2356826171875,-2.4010000228881836,2.7321999073028564,6.933699607849121
1702219796425682700,27.2956826171875,7.589599609375,-2.5834999084472656,-8.920599937438965
1702219796485682700,27.3556826171875,-1.4160999059677124,6.048099994659424,-3.763000011444092
1702219796545682700,27.4156826171875,-0.29330000281333923,-3.419600009918213,-2.2654998302459717
1702219796605682700,27.4756826171875,0.8016999959945679,-0.9269999861717224,3.6014997959136963
1702219796665682700,27.5356826171875,-5.476199626922607,-4.009399890899658,1.374400019645691
1702219796725682700,27.5956826171875,-4.227099895477295,-2.5645999908447266,-0.8845999836921692
1702219796785682700,27.6556826171875,0.4359999895095825,0.4041999876499176,1.5460000038146973
1702219796845682700,27.7156826171875,0.3455999791622162,0.36899998784065247,2.4574999809265137
1702219796905682700,27.7756826171875,-0.6933000087738037,2.4238998889923096,-0.8331999778747559
1702219796965682700,27.8356826171875,-0.12099999934434891,2.093899965286255,-2.725800037384033
1702219797025682700,27.8956826171875,3.5471999645233154,-0.2797999978065491,-3.7681000232696533
1702219797085682700,27.9556826171875,1.2706999778747559,-0.28279998898506165,-3.726300001144409
1702219797145682700,28.0156826171875,5.155299663543701,-1.510599970817566,-5.811699867248535
1702219797205682700,28.0756826171875,1.0884000062942505,-0.5970999598503113,-2.7383999824523926
1702219797265682700,28.1356826171875,-3.7567999362945557,-2.3961000442504883,-2.4866998195648193
1702219797325682700,28.1956826171875,0.10300000011920929,-4.976799964904785,0.08940000087022781
1702219797385682700,28.2556826171875,-5.38100004196167,0.5622999668121338,3.569499969482422
1702219797445682700,28.3156826171875,-3.2099997997283936,1.643899917602539,2.121799945831299
1702219797505682700,28.3756826171875,-3.564499855041504,2.200899839401245,4.387199878692627
1702219797565682700,28.4356826171875,0.7428999543190002,1.4859999418258667,3.783099889755249
1702219797625682700,28.4956826171875,8.441399574279785,-1.2818999290466309,-8.609299659729004
1702219797685682700,28.5556826171875,-2.2983999252319336,2.720599889755249,-1.0638999938964844
1702219797745682700,28.6156826171875,-1.2232999801635742,-3.216599941253662,-2.097100019454956
1702219797805682700,28.6756826171875,-2.368299961090088,-1.2842999696731567,1.771399974822998
1702219797865682700,28.7356826171875,-5.038700103759766,-1.1309999227523804,1.816499948501587
1702219797925682700,28.7956826171875,-4.589600086212158,-2.4484000205993652,-1.135200023651123
1702219797985682700,28.8556826171875,-1.5637999773025513,0.9438999891281128,1.499899983406067
1702219798045682700,28.9156826171875,1.4844999313354492,1.1485999822616577,-1.0853999853134155
1702219798105682700,28.9756826171875,-1.9254999160766602,2.659099817276001,-1.5300999879837036
1702219798165682700,29.0356826171875,-0.7174999713897705,2.3274998664855957,-2.252500057220459
1702219798225682700,29.0956826171875,8.28030014038086,-1.4397000074386597,-3.3551998138427734
1702219798285682700,29.1556826171875,2.7398998737335205,-0.9107999801635742,-1.9696999788284302
1702219798345682700,29.2156826171875,1.1187999248504639,-0.027899999171495438,-4.211100101470947
1702219798405682700,29.2756826171875,-9.1003999710083,-3.3125998973846436,-6.726999759674072
1702219798465682700,29.3356826171875,5.120999813079834,-6.788899898529053,-1.6459999084472656
1702219798525682700,29.3956826171875,-6.104799747467041,-0.18060000240802765,3.874499797821045
1702219798585682700,29.4556826171875,-1.8914999961853027,1.6131999492645264,0.9698999524116516
1702219798645682700,29.5156826171875,-4.007299900054932,0.8743000030517578,3.5396997928619385
1702219798705682700,29.5756826171875,-4.653800010681152,1.757599949836731,6.177499771118164
1702219798765682700,29.6356826171875,7.519099712371826,0.09690000116825104,-1.1333999633789062
1702219798825682700,29.6956826171875,3.2174999713897705,2.074699878692627,-5.923099994659424
1702219798885682700,29.7556826171875,-0.6966999769210815,2.4697999954223633,2.526700019836426
1702219798945682700,29.8156826171875,-6.483299732208252,-9.41819953918457,-7.442699909210205
1702219799005682700,29.8756826171875,-4.281599998474121,0.9738999605178833,2.8680999279022217
1702219799065682700,29.9356826171875,-5.212199687957764,-1.4127999544143677,1.1200000047683716
1702219799125682700,29.9956826171875,-3.6033999919891357,-0.7335000038146973,0.12289999425411224
1702219799185682700,30.0556826171875,6.187099933624268,0.43359997868537903,2.6987998485565186
1702219799245682700,30.1156826171875,-1.2422000169754028,1.3780999183654785,-1.3490999937057495
1702219799305682700,30.1756826171875,-2.204699993133545,2.9530999660491943,-2.212399959564209
1702219799365682700,30.2356826171875,2.846599817276001,0.5202000141143799,-5.07859992980957
1702219799425682700,30.2956826171875,1.1074999570846558,-0.722000002861023,-3.4068000316619873
1702219799485681200,30.35568115234375,0.5787000060081482,-0.9939999580383301,-6.005199909210205
1702219799545682700,30.4156826171875,6.171000003814697,-0.08609999716281891,-1.6176999807357788
1702219799605682700,30.4756826171875,-8.126999855041504,-4.049799919128418,-5.014899730682373
1702219799665682700,30.5356826171875,1.142199993133545,-6.303299903869629,-0.5374000072479248
1702219799725682700,30.5956826171875,-4.7704997062683105,-0.543999969959259,4.3180999755859375
1702219799785682700,30.6556826171875,-3.123699903488159,2.162400007247925,1.8809999227523804
1702219799845682700,30.7156826171875,-3.7802999019622803,2.1240999698638916,3.350299835205078
1702219799905682700,30.7756826171875,-1.4954999685287476,2.5386998653411865,6.908999919891357
1702219799965682700,30.8356826171875,3.6631999015808105,-3.421599864959717,-11.128899574279785
1702219800025682700,30.8956826171875,0.5848999619483948,3.763399839401245,-3.947499990463257
1702219800085682700,30.9556826171875,1.4369999170303345,-7.188299655914307,0.17729999125003815
1702219800145682700,31.0156826171875,-5.90369987487793,0.6880999803543091,3.726799964904785
1702219800205681200,31.07568115234375,-4.254300117492676,-3.041800022125244,-2.0911998748779297
1702219800265681200,31.13568115234375,-2.261199951171875,0.11599999666213989,-0.1922999918460846
1702219800325681200,31.19568115234375,1.1971999406814575,0.7466999888420105,3.9570000171661377
1702219800385681200,31.25568115234375,-1.0734999179840088,1.0216000080108643,-0.9382999539375305
1702219800445682700,31.3156826171875,-0.26589998602867126,1.5712999105453491,-3.2014999389648438
1702219800505682700,31.3756826171875,1.4007999897003174,1.6960999965667725,-2.725100040435791
1702219800565682700,31.4356826171875,3.3912999629974365,-0.32679998874664307,-2.9467999935150146
1702219800625682700,31.4956826171875,1.124899983406067,-0.40219998359680176,-2.424799919128418
1702219800685682700,31.5556826171875,2.4666998386383057,-1.0200999975204468,-7.589200019836426
1702219800745682700,31.6156826171875,1.9520999193191528,0.4935999810695648,-2.6736998558044434
1702219800805682700,31.6756826171875,-5.073899745941162,-3.798799991607666,-1.0744999647140503
1702219800865682700,31.7356826171875,0.23429998755455017,-3.8123998641967773,0.07289999723434448
1702219800925682700,31.7956826171875,-3.9492998123168945,0.6031000018119812,2.5413999557495117
1702219800985682700,31.8556826171875,-2.9570999145507812,0.9982999563217163,1.9684998989105225
1702219801045682700,31.9156826171875,-3.3414998054504395,2.922999858856201,5.478499889373779
1702219801105682700,31.9756826171875,0.23879998922348022,2.6089999675750732,4.181299686431885
1702219801165682700,32.0356826171875,6.056399822235107,-1.8136999607086182,-11.581500053405762
1702219801225682700,32.0956826171875,-0.5245000123977661,-1.8070999383926392,-5.042599678039551
1702219801285682700,32.1556826171875,-4.125499725341797,0.8759999871253967,4.896100044250488
1702219801345682700,32.2156826171875,-4.923999786376953,-2.3178999423980713,0.9937999844551086
1702219801405682700,32.2756826171875,-3.211599826812744,-5.006099700927734,-2.0007998943328857
1702219801465682700,32.3356826171875,-3.8887999057769775,0.9965999722480774,1.2374999523162842
1702219801525682700,32.3956826171875,0.910099983215332,0.055799998342990875,2.023599863052368
1702219801585682700,32.4556826171875,-0.4140999913215637,1.301800012588501,0.5547999739646912
1702219801645682700,32.5156826171875,-1.0825999975204468,0.8323999643325806,-3.96809983253479
1702219801705682700,32.5756826171875,2.321699857711792,3.022199869155884,-3.6029999256134033
1702219801765682700,32.6356826171875,1.0024999380111694,1.3532999753952026,-3.6676998138427734
1702219801825682700,32.6956826171875,1.538599967956543,-0.7037000060081482,-1.6047999858856201
1702219801885682700,32.7556826171875,3.3629000186920166,-2.3877999782562256,-5.07889986038208
1702219801945682700,32.8156826171875,-1.257599949836731,-0.0778999999165535,-3.3984999656677246
1702219802005682700,32.8756826171875,-2.580399990081787,-2.978799819946289,-3.11929988861084
1702219802065682700,32.9356826171875,1.652999997138977,-4.8242998123168945,-0.11019999533891678
1702219802125682700,32.9956826171875,-5.34689998626709,1.1770999431610107,4.139400005340576
1702219802185682700,33.0556826171875,-3.09879994392395,0.8946999907493591,1.670199990272522
1702219802245682700,33.1156826171875,-3.348099946975708,1.8009999990463257,4.111599922180176
1702219802305682700,33.1756826171875,-3.749799966812134,1.9147999286651611,5.541500091552734
1702219802365682700,33.2356826171875,10.506199836730957,-2.075700044631958,-10.194600105285645
1702219802425682700,33.2956826171875,-2.527899980545044,5.322499752044678,-5.580699920654297
1702219802485682700,33.3556826171875,5.508299827575684,-6.888000011444092,-3.9667999744415283
1702219802545682700,33.4156826171875,-0.3215999901294708,-0.1565999984741211,7.096299648284912
1702219802605682700,33.4756826171875,-5.223199844360352,-0.2352999895811081,1.1726999282836914
1702219802665682700,33.5356826171875,-3.944700002670288,-2.4457998275756836,-2.5815999507904053
1702219802725682700,33.5956826171875,1.1139999628067017,2.4335999488830566,0.014699999243021011
1702219802785681200,33.65568115234375,0.6272000074386597,-0.6936999559402466,-0.1662999987602234
1702219802845681200,33.71568115234375,-1.3871999979019165,0.809499979019165,-1.483199954032898
1702219802905681200,33.77568115234375,0.5054999589920044,1.843999981880188,-1.5321999788284302
1702219802965681200,33.83568115234375,0.9182999730110168,0.18039999902248383,-1.379499912261963
1702219803025682700,33.8956826171875,6.8942999839782715,-1.6092000007629395,-1.1571999788284302
1702219803085682700,33.9556826171875,0.006599999964237213,-2.6150999069213867,-5.465099811553955
1702219803145682700,34.0156826171875,3.400099992752075,-1.58489990234375,-3.160799980163574
1702219803205682700,34.0756826171875,-7.352299690246582,-2.976300001144409,-2.0349998474121094
1702219803265682700,34.1356826171875,-1.4014999866485596,-3.8056998252868652,-0.9729999899864197
1702219803325682700,34.1956826171875,-2.8028998374938965,1.1073999404907227,2.5271999835968018
1702219803385682700,34.2556826171875,-3.1111998558044434,1.954699993133545,2.7300000190734863
1702219803445682700,34.3156826171875,-3.656899929046631,1.8461999893188477,3.194499969482422
1702219803505682700,34.3756826171875,-1.5650999546051025,1.8077999353408813,4.303599834442139
1702219803565682700,34.4356826171875,5.049599647521973,-1.8278999328613281,-9.004599571228027
1702219803625682700,34.4956826171875,-1.7030999660491943,5.001800060272217,-2.4621999263763428
1702219803685682700,34.5556826171875,1.3065999746322632,-6.622399806976318,-1.4722999334335327
1702219803745682700,34.6156826171875,0.19099999964237213,0.8549999594688416,1.6022999286651611
1702219803805682700,34.6756826171875,-6.987599849700928,-0.035099998116493225,2.5460000038146973
1702219803865682700,34.7356826171875,-1.4498999118804932,-3.134399890899658,-3.239799976348877
1702219803925682700,34.7956826171875,0.26440000534057617,2.534099817276001,0.7831000089645386
1702219803985682700,34.8556826171875,-0.2360999882221222,-0.1907999962568283,0.33219999074935913
1702219804045682700,34.9156826171875,-0.9386999607086182,1.135200023651123,-1.8306999206542969
1702219804105682700,34.9756826171875,0.9449999928474426,1.7211999893188477,-2.6473000049591064
1702219804165682700,35.0356826171875,3.7964999675750732,0.280599981546402,-2.8279998302459717
1702219804225682700,35.0956826171875,2.5927000045776367,-2.1224000453948975,-1.671299934387207
1702219804285682700,35.1556826171875,5.208099842071533,-0.7258999943733215,-4.670599937438965
1702219804345682700,35.2156826171875,1.7999999523162842,-1.7394999265670776,-5.401899814605713
1702219804405682700,35.2756826171875,-6.0615997314453125,-2.4965999126434326,-1.8078999519348145
1702219804465682700,35.3356826171875,1.2831000089645386,-4.891900062561035,-0.6765999794006348
1702219804525682700,35.3956826171875,-4.613999843597412,0.805899977684021,3.6325998306274414
1702219804585682700,35.4556826171875,-3.7677998542785645,2.1043999195098877,1.9062999486923218
1702219804645682700,35.5156826171875,-3.281100034713745,2.0934998989105225,3.577899932861328
1702219804705682700,35.5756826171875,-1.9316999912261963,1.487399935722351,4.745800018310547
1702219804765682700,35.6356826171875,9.763699531555176,-2.2035000324249268,-11.81559944152832
1702219804825682700,35.6956826171875,-2.3533999919891357,3.031399965286255,-1.8432999849319458
1702219804885682700,35.7556826171875,0.13099999725818634,-5.587500095367432,1.1828999519348145
1702219804945682700,35.8156826171875,-0.13210000097751617,0.5357999801635742,0.6309999823570251
1702219805005682700,35.8756826171875,-7.090199947357178,-0.5507000088691711,0.07699999958276749
1702219805065682700,35.9356826171875,-4.120500087738037,-2.3661999702453613,-2.794800043106079
1702219805125682700,35.9956826171875,0.19709999859333038,1.556399941444397,0.1777999997138977
1702219805185682700,36.0556826171875,-0.9828999638557434,0.9662999510765076,0.9174000024795532
1702219805245682700,36.1156826171875,-0.19849999248981476,1.8953999280929565,-0.8876999616622925
1702219805305682700,36.1756826171875,0.3630000054836273,0.16849999129772186,-2.0881998538970947
1702219805365682700,36.2356826171875,4.912799835205078,-1.229599952697754,-2.882200002670288
1702219805425682700,36.2956826171875,0.15489999949932098,0.2612999975681305,-3.1125998497009277
1702219805485682700,36.3556826171875,7.074699878692627,0.3027999997138977,-6.462800025939941
1702219805545682700,36.4156826171875,-1.1683999300003052,-2.533799886703491,-4.661099910736084
1702219805605682700,36.4756826171875,-2.4417998790740967,-4.883699893951416,-1.9287999868392944
1702219805665682700,36.5356826171875,-0.27619999647140503,-2.623199939727783,2.088599920272827
1702219805725682700,36.5956826171875,-4.219900131225586,2.3367998600006104,1.148800015449524
1702219805785682700,36.6556826171875,-4.767199993133545,2.202199935913086,1.962399959564209
1702219805845682700,36.7156826171875,-2.9707000255584717,2.3845999240875244,6.330599784851074
1702219805905682700,36.7756826171875,0.5658999681472778,-0.17469999194145203,0.8912999629974365
1702219805965682700,36.8356826171875,4.294699668884277,0.9073999524116516,-6.937399864196777
1702219806025682700,36.8956826171875,-1.8451999425888062,2.1942999362945557,-0.09839999675750732
1702219806085682700,36.9556826171875,1.80649995803833,-6.70829963684082,-1.4807000160217285
1702219806145682700,37.0156826171875,-3.125,-0.04699999839067459,1.1660000085830688
1702219806205682700,37.0756826171875,-4.2667999267578125,-0.2662000060081482,0.8668999671936035
1702219806265682700,37.1356826171875,-4.731899738311768,-1.1704000234603882,-0.732699990272522
1702219806325682700,37.1956826171875,0.85589998960495,0.9358999729156494,1.6613999605178833
1702219806385682700,37.2556826171875,-1.0194000005722046,1.0845999717712402,-0.3928000032901764
1702219806445682700,37.3156826171875,0.020999999716877937,0.9490000009536743,-3.1001999378204346
1702219806505682700,37.3756826171875,3.128199815750122,2.176300048828125,-3.8362998962402344
1702219806565682700,37.4356826171875,1.4565999507904053,-0.17719998955726624,-4.304800033569336
1702219806625682700,37.4956826171875,9.769700050354004,-0.8999999761581421,-5.620100021362305
1702219806685682700,37.5556826171875,-2.19569993019104,-2.4214999675750732,-3.6053998470306396
1702219806745682700,37.6156826171875,-3.3696999549865723,-5.19249963760376,-3.9903998374938965
1702219806805682700,37.6756826171875,0.5920999646186829,-5.195899963378906,1.4611999988555908
1702219806865682700,37.7356826171875,-6.496799945831299,1.5547000169754028,3.0906999111175537
1702219806925682700,37.7956826171875,-4.085099697113037,2.9457998275756836,1.7055000066757202
1702219806985682700,37.8556826171875,-4.911299705505371,2.432499885559082,7.490799903869629
1702219807045682700,37.9156826171875,0.18599998950958252,0.23160000145435333,4.43619966506958
1702219807105682700,37.9756826171875,1.795199990272522,0.11749999970197678,-5.708699703216553
1702219807165682700,38.0356826171875,-0.8133999705314636,5.723299980163574,1.0059000253677368
1702219807225682700,38.0956826171875,-4.431099891662598,-13.082399368286133,-10.073999404907227
1702219807285682700,38.1556826171875,-7.867300033569336,1.0978000164031982,7.717199802398682
1702219807345682700,38.2156826171875,-6.7928996086120605,-2.1594998836517334,1.9584999084472656
1702219807405682700,38.2756826171875,0.09059999883174896,-0.7170000076293945,-1.4422999620437622
1702219807465682700,38.3356826171875,0.8069999814033508,1.2369999885559082,-0.6970999836921692
1702219807525682700,38.3956826171875,-1.94760000705719,1.0521999597549438,-1.577199935913086
1702219807585682700,38.4556826171875,0.43299999833106995,0.9706999659538269,-3.83709979057312
1702219807645682700,38.5156826171875,3.4463999271392822,-0.08980000019073486,-4.484099864959717
1702219807705682700,38.5756826171875,1.9804999828338623,0.5396999716758728,-4.174200057983398
1702219807765682700,38.6356826171875,6.203700065612793,-0.7290999889373779,-4.282299995422363
1702219807825682700,38.6956826171875,-8.74329948425293,-4.217199802398682,-3.9572999477386475
1702219807885682700,38.7556826171875,2.5356998443603516,-5.13129997253418,-1.9608999490737915
1702219807945682700,38.8156826171875,-4.664299964904785,-1.1305999755859375,4.3125996589660645
1702219808005682700,38.8756826171875,-3.163300037384033,1.8013999462127686,1.4846999645233154
1702219808065682700,38.9356826171875,-4.301799774169922,2.47189998626709,2.705199956893921
1702219808125682700,38.9956826171875,-3.1826999187469482,3.235100030899048,8.2253999710083
1702219808185682700,39.0556826171875,10.63070011138916,-4.560999870300293,-14.107599258422852
1702219808245682700,39.1156826171875,-1.628600001335144,4.271699905395508,-1.3148000240325928
1702219808305682700,39.1756826171875,5.82889986038208,-8.712800025939941,-0.1444000005722046
1702219808365682700,39.2356826171875,-7.18589973449707,0.9163999557495117,3.434499979019165
1702219808425682700,39.2956826171875,-5.790599822998047,-1.4282000064849854,-2.1252999305725098
1702219808485682700,39.3556826171875,-3.276099920272827,0.15309999883174896,-1.698699951171875
1702219808545682700,39.4156826171875,5.44789981842041,1.2625999450683594,4.379300117492676
1702219808605682700,39.4756826171875,-1.63510000705719,1.2853000164031982,-0.013299999758601189
1702219808665682700,39.5356826171875,-0.19329999387264252,1.9139999151229858,-2.978099822998047
1702219808725682700,39.5956826171875,3.9654998779296875,0.6032999753952026,-4.79010009765625
1702219808785682700,39.6556826171875,-0.2976999878883362,-0.10009999573230743,-3.640699863433838
1702219808845682700,39.7156826171875,1.9335999488830566,0.07999999821186066,-3.061800003051758
1702219808905682700,39.7756826171875,6.6875,-1.3787999153137207,-4.650399684906006
1702219808965682700,39.8356826171875,-8.326499938964844,-1.7774999141693115,-0.8356999754905701
1702219809025682700,39.8956826171875,2.7421998977661133,-3.678799867630005,-3.961199998855591
1702219809085682700,39.9556826171875,-1.952799916267395,-2.5601999759674072,1.4864000082015991
1702219809145682700,40.0156826171875,-4.427199840545654,0.8467999696731567,2.5950000286102295
1702219809205682700,40.0756826171875,-2.66159987449646,2.3169000148773193,3.219899892807007
1702219809265682700,40.1356826171875,-2.5336999893188477,3.1288998126983643,7.149399757385254
1702219809325682700,40.1956826171875,5.216799736022949,-0.19460000097751617,-7.212699890136719
1702219809385682700,40.2556826171875,-1.2623999118804932,3.996299982070923,-5.530799865722656
1702219809445682700,40.3156826171875,1.9786999225616455,-5.767899990081787,-1.5738999843597412
1702219809505682700,40.3756826171875,-4.676199913024902,0.18949998915195465,5.8302998542785645
1702219809565709300,40.43570922851563,-5.309000015258789,-2.7481000423431396,-0.6936999559402466
1702219809625682700,40.4956826171875,-3.819399833679199,-1.0544999837875366,-2.9277000427246094
1702219809685682700,40.5556826171875,0.48489999771118164,1.2860000133514404,0.9495999813079834
1702219809745682700,40.6156826171875,-0.7271999716758728,0.8520999550819397,0.8417999744415283
1702219809805682700,40.6756826171875,0.210999995470047,1.1140999794006348,-2.4484000205993652
1702219809865682700,40.7356826171875,1.1615999937057495,1.1617000102996826,-2.939499855041504
1702219809925682700,40.7956826171875,1.4455000162124634,0.550599992275238,-2.7757999897003174
1702219809985682700,40.8556826171875,3.776099920272827,-0.10239999741315842,-3.303999900817871
1702219810045682700,40.9156826171875,4.952499866485596,-0.3921999931335449,-6.278800010681152
1702219810105682700,40.9756826171875,-0.27869999408721924,-0.599299967288971,-3.404599905014038
1702219810165682700,41.0356826171875,-5.237400054931641,-5.499899864196777,-1.5744999647140503
1702219810225682700,41.0956826171875,1.0059000253677368,-3.040099859237671,-0.4926999807357788
1702219810285682700,41.1556826171875,-7.457799911499023,1.2311999797821045,3.711899995803833
1702219810345682700,41.2156826171875,-2.749699831008911,1.6642999649047852,2.8646998405456543
1702219810405682700,41.2756826171875,-3.7368998527526855,2.8141000270843506,6.33489990234375
1702219810465682700,41.3356826171875,0.48899999260902405,-0.4050000011920929,2.337100028991699
1702219810525682700,41.3956826171875,4.377399921417236,2.0492000579833984,-7.625899791717529
1702219810585682700,41.4556826171875,-0.4189999997615814,0.3813999891281128,-3.100600004196167
1702219810645682700,41.5156826171875,-1.167199969291687,-4.701499938964844,2.7181999683380127
1702219810705682700,41.5756826171875,-6.968799591064453,-1.147499918937683,3.1205999851226807
1702219810765682700,41.6356826171875,-3.830699920654297,-1.9200999736785889,-2.128700017929077
1702219810825682700,41.6956826171875,-4.187399864196777,0.4325999915599823,-1.9914000034332275
1702219810885682700,41.7556826171875,4.393099784851074,1.354200005531311,2.876199960708618
1702219810945682700,41.8156826171875,-0.8073999881744385,1.0784000158309937,-0.8259999752044678
1702219811005682700,41.8756826171875,-0.830299973487854,1.768799901008606,-3.0566999912261963
1702219811065682700,41.9356826171875,0.3903999924659729,0.3434999883174896,-3.453399896621704
1702219811125682700,41.9956826171875,6.526000022888184,-0.3756999969482422,-1.4515999555587769
1702219811185682700,42.0556826171875,1.073699951171875,-0.0867999941110611,-3.1970999240875244
1702219811245682700,42.1156826171875,5.074699878692627,-0.04769999906420708,-6.500999927520752
1702219811305682700,42.1756826171875,-5.511899948120117,-2.116799831390381,-1.150499939918518
1702219811365682700,42.2356826171875,-0.5511999726295471,-5.823699951171875,-2.73829984664917
1702219811425682700,42.2956826171875,-3.0109000205993652,-0.8018999695777893,2.7811999320983887
1702219811485682700,42.3556826171875,-4.469899654388428,1.6172999143600464,1.5841000080108643
1702219811545682700,42.4156826171875,-3.810499906539917,1.8997999429702759,2.0016000270843506
1702219811605682700,42.4756826171875,-3.299299955368042,2.3132998943328857,5.320399761199951
1702219811665682700,42.5356826171875,5.482999801635742,-0.9544999599456787,-2.5423998832702637
1702219811725682700,42.5956826171875,0.8194999694824219,3.355599880218506,-4.435999870300293
1702219811785682700,42.6556826171875,1.5401999950408936,-1.7536998987197876,-4.230999946594238
1702219811845682700,42.7156826171875,-0.21719999611377716,-4.045000076293945,1.855199933052063
1702219811905682700,42.7756826171875,-4.338399887084961,0.45729997754096985,4.2216997146606445
1702219811965682700,42.8356826171875,-5.395599842071533,-2.9495999813079834,-2.0065999031066895
1702219812025682700,42.8956826171875,-4.747699737548828,-0.07009999454021454,-0.8700999617576599
1702219812085682700,42.9556826171875,4.97599983215332,1.0145999193191528,-1.263800024986267
1702219812145682700,43.0156826171875,0.14149999618530273,1.4843000173568726,-1.3985999822616577
1702219812205682700,43.0756826171875,-0.8412999510765076,1.69569993019104,-2.4509999752044678
1702219812265682700,43.1356826171875,4.339799880981445,-0.26579999923706055,-2.8080999851226807
1702219812325682700,43.1956826171875,0.5027999877929688,0.3017999827861786,-3.7948999404907227
1702219812385682700,43.2556826171875,1.4744999408721924,0.4087999761104584,-7.220099925994873
1702219812445682700,43.3156826171875,1.9997999668121338,-1.6337999105453491,-4.61359977722168
1702219812505682700,43.3756826171875,-5.334799766540527,-2.261399984359741,-0.3653999865055084
1702219812565682700,43.4356826171875,1.490299940109253,-8.017899513244629,0.19699999690055847
1702219812625682700,43.4956826171875,-5.669699668884277,1.2549999952316284,3.311800003051758
1702219812685682700,43.5556826171875,-3.0713999271392822,2.7767999172210693,0.5609999895095825
1702219812745682700,43.6156826171875,-4.2891998291015625,2.5085999965667725,4.1616997718811035
1702219812805682700,43.6756826171875,-0.6137999892234802,2.301100015640259,3.8252999782562256
1702219812865682700,43.7356826171875,13.791999816894531,-3.676999807357788,-11.852999687194824
1702219812925682700,43.7956826171875,0.20889998972415924,2.328699827194214,-2.709199905395508
1702219812985682700,43.8556826171875,-6.550299644470215,-5.974999904632568,-0.9485999941825867
1702219813045682700,43.9156826171875,-4.012700080871582,-0.02290000021457672,2.868299961090088
1702219813105682700,43.9756826171875,-4.416500091552734,-3.319899797439575,-0.9395999908447266
1702219813165682700,44.0356826171875,-3.804999828338623,-0.42649999260902405,-0.043299999088048935
1702219813225682700,44.0956826171875,1.229099988937378,0.7635999917984009,0.5108000040054321
1702219813285682700,44.1556826171875,-0.3089999854564667,0.5716999769210815,-1.7544000148773193
1702219813345682700,44.2156826171875,0.04399999976158142,2.4178998470306396,-1.7579998970031738
1702219813405682700,44.2756826171875,0.554099977016449,1.2863999605178833,-2.7348999977111816
1702219813465682700,44.3356826171875,5.5341997146606445,-1.2834999561309814,-1.9448999166488647
1702219813525682700,44.3956826171875,4.088299751281738,-0.5881999731063843,-2.4380998611450195
1702219813585682700,44.4556826171875,4.051599979400635,-1.0140999555587769,-6.191299915313721
1702219813645682700,44.5156826171875,-6.205899715423584,-2.6013998985290527,-1.326300024986267
1702219813705682700,44.5756826171875,1.8152999877929688,-6.48859977722168,-2.2265000343322754
1702219813765682700,44.6356826171875,-4.958899974822998,-0.6323999762535095,2.587599992752075
1702219813825682700,44.6956826171875,-4.510799884796143,1.990399956703186,1.8714998960494995
1702219813885682700,44.7556826171875,-4.88100004196167,1.6586999893188477,3.3571999073028564
1702219813945682700,44.8156826171875,-3.5408999919891357,3.023099899291992,5.800299644470215
1702219814005682700,44.8756826171875,9.333700180053711,-2.9765000343322754,-11.007899284362793
1702219814065682700,44.9356826171875,-2.8855998516082764,4.404799938201904,-3.999499797821045
1702219814125682700,44.9956826171875,1.927299976348877,-4.534599781036377,-0.4870999753475189
1702219814185682700,45.0556826171875,-1.5924999713897705,0.09640000015497208,2.1066999435424805
1702219814245682700,45.1156826171875,-6.255300045013428,-1.529599905014038,0.7387999892234802
1702219814305682700,45.1756826171875,-4.698699951171875,-1.9002999067306519,-2.4426000118255615
1702219814365682700,45.2356826171875,-1.2102999687194824,0.8197000026702881,0.1973000019788742
1702219814425682700,45.2956826171875,0.19009999930858612,-0.44689998030662537,-0.982699990272522
1702219814485682700,45.3556826171875,-1.0615999698638916,2.0078999996185303,-1.7632999420166016
1702219814545682700,45.4156826171875,-0.7736999988555908,1.6928999423980713,-2.3274998664855957
1702219814605682700,45.4756826171875,2.6173999309539795,-0.5679999589920044,-3.684999942779541
1702219814665682700,45.5356826171875,1.226099967956543,-0.44919997453689575,-1.9857999086380005
1702219814725682700,45.5956826171875,-2.321699857711792,-1.5823999643325806,-6.024899959564209
1702219814785682700,45.6556826171875,10.712900161743164,1.602199912071228,-0.10920000076293945
1702219814845682700,45.7156826171875,-7.626699924468994,0.16339999437332153,-1.4541000127792358
1702219814905682700,45.7756826171875,1.5322999954223633,-5.319799900054932,-3.0794999599456787
1702219814965682700,45.8356826171875,-2.533799886703491,-1.4966999292373657,4.163700103759766
1702219815025682700,45.8956826171875,-2.966399908065796,0.6751999855041504,3.2135000228881836
1702219815085682700,45.9556826171875,-0.7529999613761902,0.2721000015735626,-0.7124999761581421
1702219815145682700,46.0156826171875,-1.082800030708313,2.293599843978882,1.9448999166488647
1702219815205682700,46.0756826171875,1.044600009918213,2.2060999870300293,-0.7558000087738037
1702219815265682700,46.1356826171875,1.736799955368042,2.1517999172210693,-7.100100040435791
1702219815325682700,46.1956826171875,-0.8149999976158142,3.421599864959717,0.8042999505996704
1702219815385682700,46.2556826171875,-4.06279993057251,-11.593799591064453,-5.330100059509277
1702219815445682700,46.3156826171875,-3.4375998973846436,2.077899932861328,5.659499645233154
1702219815505682700,46.3756826171875,-5.409800052642822,-3.682799816131592,-2.118499994277954
1702219815565682700,46.4356826171875,-3.035399913787842,0.5311999917030334,-1.5712000131607056
1702219815625682700,46.4956826171875,3.6708998680114746,0.8818999528884888,1.9752999544143677
1702219815685682700,46.5556826171875,-1.3513000011444092,1.4471999406814575,-0.8256999850273132
1702219815745682700,46.6156826171875,-0.3968999981880188,2.5063998699188232,-1.7828999757766724
1702219815805682700,46.6756826171875,-0.07959999889135361,0.4739999771118164,-2.2100000381469727
1702219815865682700,46.7356826171875,2.102400064468384,-0.796999990940094,-3.378700017929077
1702219815925682700,46.7956826171875,1.949299931526184,0.23479999601840973,-2.90559983253479
1702219815985682700,46.8556826171875,4.451099872589111,-1.9440999031066895,-4.767399787902832
1702219816045682700,46.9156826171875,-0.3393999934196472,0.4245999753475189,-1.2405999898910522
1702219816105682700,46.9756826171875,-4.795899868011475,-4.359699726104736,-2.4236998558044434
1702219816165682700,47.0356826171875,-1.052299976348877,-1.774999976158142,0.6101999878883362
1702219816225682700,47.0956826171875,-5.441099643707275,0.27789998054504395,2.1253998279571533
1702219816285682700,47.1556826171875,-3.192199945449829,1.6398999691009521,1.379499912261963
1702219816345682700,47.2156826171875,-2.408399820327759,3.4579999446868896,3.8329999446868896
1702219816405682700,47.2756826171875,0.8812999725341797,1.1805999279022217,0.6746999621391296
1702219816465682700,47.3356826171875,6.382599830627441,0.2450999915599823,-6.581999778747559
1702219816525682700,47.3956826171875,-1.9289000034332275,2.299099922180176,-0.6911999583244324
1702219816585682700,47.4556826171875,3.0016000270843506,-4.658699989318848,-1.8398000001907349
1702219816645682700,47.5156826171875,-0.663100004196167,0.36319997906684875,3.4944000244140625
1702219816705682700,47.5756826171875,-6.5015997886657715,-0.8167999982833862,1.6068999767303467
1702219816765682700,47.6356826171875,-4.226900100708008,-2.7854998111724854,-2.5467000007629395
1702219816825682700,47.6956826171875,-0.07840000092983246,1.9945999383926392,-0.6736999750137329
1702219816885682700,47.7556826171875,0.4837999939918518,-0.11569999903440475,-1.4864999055862427
1702219816945682700,47.8156826171875,-1.086400032043457,1.9975999593734741,-1.9697999954223633
1702219817005682700,47.8756826171875,-0.9595999717712402,1.0935999155044556,-2.2676000595092773
1702219817065682700,47.9356826171875,2.194499969482422,-0.39389997720718384,-2.8954999446868896
1702219817125682700,47.9956826171875,6.538899898529053,-1.9767999649047852,0.25519999861717224
1702219817185682700,48.0556826171875,2.4040000438690186,-1.94760000705719,-2.7146999835968018
1702219817245682700,48.1156826171875,-2.7788000106811523,-0.2516999840736389,-5.726799964904785
1702219817305682700,48.1756826171875,-1.4875999689102173,-2.080699920654297,-3.94789981842041
1702219817365682700,48.2356826171875,-2.349400043487549,-3.3215999603271484,2.9983999729156494
1702219817425682700,48.2956826171875,-3.551100015640259,1.1303999423980713,1.6200999021530151
1702219817485682700,48.3556826171875,-3.338599920272827,1.8240998983383179,-0.13920000195503235
1702219817545682700,48.4156826171875,-3.743299961090088,2.2331998348236084,5.251199722290039
1702219817605682700,48.4756826171875,-0.4032999873161316,2.029899835586548,3.998199939727783
1702219817665682700,48.5356826171875,1.7970999479293823,-0.7170000076293945,-10.114099502563477
1702219817725682700,48.5956826171875,-2.311800003051758,3.896199941635132,-2.8287999629974365
1702219817785682700,48.6556826171875,4.970099925994873,-10.044599533081055,-3.8183000087738037
1702219817845682700,48.7156826171875,-1.8220999240875244,1.8068000078201294,5.461599826812744
1702219817905682700,48.7756826171875,-6.3694000244140625,-2.1477999687194824,0.4520999789237976
1702219817965682700,48.8356826171875,-4.278899669647217,-0.81659996509552,-1.2613999843597412
1702219818025682700,48.8956826171875,2.2131998538970947,0.9924999475479126,1.3774999380111694
1702219818085682700,48.9556826171875,-0.19439999759197235,-0.6491999626159668,-0.7150999903678894
1702219818145682700,49.0156826171875,-1.2773000001907349,2.3104000091552734,-1.0872999429702759
1702219818205682700,49.0756826171875,-0.3463999927043915,1.729200005531311,-2.171099901199341
1702219818265682700,49.1356826171875,2.1259000301361084,-1.2918999195098877,-4.921499729156494
1702219818325682700,49.1956826171875,1.8145999908447266,-1.3877999782562256,-2.447999954223633
1702219818385682700,49.2556826171875,1.0815999507904053,0.361299991607666,-2.469099998474121
1702219818445682700,49.3156826171875,1.608699917793274,-0.560699999332428,-4.716300010681152
1702219818505682700,49.3756826171875,-1.5090999603271484,0.7569999694824219,-1.1279000043869019
1702219818565682700,49.4356826171875,-0.2215999960899353,-7.158899784088135,1.0652999877929688
1702219818625682700,49.4956826171875,-4.6793999671936035,0.8865999579429626,1.972999930381775
1702219818685682700,49.5556826171875,-4.931999683380127,2.7337000370025635,0.08959999680519104
1702219818745682700,49.6156826171875,-4.8694000244140625,2.754999876022339,4.625999927520752
1702219818805682700,49.6756826171875,-3.021899938583374,3.5558998584747314,6.639899730682373
1702219818865682700,49.7356826171875,7.607399940490723,-5.106599807739258,-15.005999565124512
1702219818925682700,49.7956826171875,2.199899911880493,-2.5058999061584473,-9.532499313354492
1702219818985682700,49.8556826171875,-0.24549999833106995,3.3695998191833496,7.455999851226807
1702219819045682700,49.9156826171875,-8.065199851989746,-3.1024999618530273,2.36929988861084
1702219819105682700,49.9756826171875,-2.1661999225616455,-3.4935998916625977,-4.317500114440918
1702219819165682700,50.0356826171875,-0.9396999478340149,1.2329000234603882,1.188599944114685
1702219819225682700,50.0956826171875,-0.41179999709129333,0.5810999870300293,0.5938000082969666
1702219819285682700,50.1556826171875,0.0005999999702908099,1.9957998991012573,-1.5577999353408813
1702219819345682700,50.2156826171875,0.1688999980688095,1.621899962425232,-2.190199851989746
1702219819405682700,50.2756826171875,0.8941999673843384,-0.03590000048279762,-2.948899984359741
1702219819465682700,50.3356826171875,3.568199872970581,-0.8764999508857727,-2.4763998985290527
1702219819525682700,50.3956826171875,1.608299970626831,-0.7572000026702881,-4.063600063323975
1702219819585682700,50.4556826171875,4.456900119781494,-1.674299955368042,-5.6981000900268555
1702219819645682700,50.5156826171875,-7.974399566650391,0.2969000041484833,-2.1754000186920166
1702219819705682700,50.5756826171875,2.711599826812744,-6.332399845123291,-2.065199851989746
1702219819765682700,50.6356826171875,-5.185299873352051,0.4398999810218811,3.5495998859405518
1702219819825682700,50.6956826171875,-3.443699836730957,1.3701999187469482,0.6169999837875366
1702219819885682700,50.7556826171875,-3.9946999549865723,1.5857999324798584,2.1399998664855957
1702219819945681200,50.81568115234375,-3.844099998474121,2.9189999103546143,6.101399898529053
1702219820005681200,50.87568115234375,3.1233999729156494,0.06799999624490738,-0.8046000003814697
1702219820065682700,50.9356826171875,-0.41189998388290405,1.9519000053405762,-7.64739990234375
1702219820125682700,50.9956826171875,-1.8865000009536743,0.34700000286102295,-0.423799991607666
1702219820185682700,51.0556826171875,0.4104999899864197,-1.5511999130249023,2.2274999618530273
1702219820245682700,51.1156826171875,-5.184799671173096,-0.6934999823570251,3.3457000255584717
1702219820305682700,51.1756826171875,-5.364199638366699,-3.0154998302459717,-2.9579999446868896
1702219820365682700,51.2356826171875,2.2414000034332275,2.421099901199341,0.07509999722242355
1702219820425682700,51.2956826171875,0.3059999942779541,0.757099986076355,-0.6535999774932861
1702219820485682700,51.3556826171875,-0.9228000044822693,1.6318999528884888,-1.367900013923645
1702219820545682700,51.4156826171875,1.7503999471664429,1.430899977684021,-2.59309983253479
1702219820605682700,51.4756826171875,6.8730998039245605,-1.37909996509552,-3.0985000133514404
1702219820665682700,51.5356826171875,5.417399883270264,-1.166599988937378,-5.121999740600586
1702219820725682700,51.5956826171875,1.4024999141693115,1.0475000143051147,-5.577300071716309
1702219820785682700,51.6556826171875,-6.196599960327148,-6.386999607086182,-0.4749999940395355
1702219820845682700,51.7156826171875,0.8914999961853027,-5.802499771118164,-1.0886999368667603
1702219820905682700,51.7756826171875,-7.673199653625488,2.2512998580932617,0.6725999712944031
1702219820965682700,51.8356826171875,-4.695099830627441,2.787400007247925,1.000100016593933
1702219821025682700,51.8956826171875,-4.128499984741211,1.8494999408721924,5.077099800109863
1702219821085682700,51.9556826171875,-2.5339999198913574,1.511699914932251,4.328499794006348
1702219821145682700,52.0156826171875,10.389399528503418,-3.1919000148773193,-8.264399528503418
1702219821205682700,52.0756826171875,-2.747999906539917,5.190799713134766,-4.37369966506958
1702219821265682700,52.1356826171875,0.4667999744415283,-7.084099769592285,-2.2289998531341553
1702219821325682700,52.1956826171875,-1.499400019645691,-0.82669997215271,5.080399990081787
1702219821385682700,52.2556826171875,-5.1331000328063965,-1.6993999481201172,0.25589999556541443
1702219821445682700,52.3156826171875,-4.888000011444092,-1.2418999671936035,-2.4069998264312744
1702219821505682700,52.3756826171875,-0.6726999878883362,1.7900999784469604,-0.044199999421834946
1702219821565682700,52.4356826171875,0.12409999966621399,0.3010999858379364,-0.36910000443458557
1702219821625682700,52.4956826171875,-0.08410000056028366,1.3905999660491943,-1.6033999919891357
1702219821685682700,52.5556826171875,0.35899999737739563,1.095099925994873,-3.444999933242798
1702219821745682700,52.6156826171875,3.2363998889923096,0.006000000052154064,-3.688699960708618
1702219821805682700,52.6756826171875,1.6785999536514282,-0.08999999612569809,-3.3040997982025146
1702219821865682700,52.7356826171875,7.104399681091309,-0.48539999127388,-5.171499729156494
1702219821925682700,52.7956826171875,-5.870699882507324,-3.401899814605713,-2.3588998317718506
1702219821985682700,52.8556826171875,2.0799999237060547,-5.533999919891357,-3.2273998260498047
1702219822045682700,52.9156826171875,-6.463799953460693,-1.7029999494552612,3.203199863433838
1702219822105682700,52.9756826171875,-3.7839999198913574,1.683899998664856,1.0448999404907227
1702219822165682700,53.0356826171875,-4.464600086212158,1.4199999570846558,3.422600030899048
1702219822225682700,53.0956826171875,-3.1878998279571533,1.7148998975753784,5.568899631500244
1702219822285682700,53.1556826171875,7.826699733734131,-0.8454999923706055,-8.360199928283691
1702219822345682700,53.2156826171875,-0.4542999863624573,4.672999858856201,-2.3522000312805176
1702219822405682700,53.2756826171875,0.670799970626831,-0.6067999601364136,-1.0778999328613281
1702219822465682700,53.3356826171875,-3.906099796295166,-1.6718999147415161,-0.5738999843597412
1702219822525682700,53.3956826171875,-7.307699680328369,-0.013100000098347664,4.501299858093262
1702219822585682700,53.4556826171875,-4.275099754333496,-3.7909998893737793,-3.961599826812744
1702219822645682700,53.5156826171875,-2.368499994277954,1.649399995803833,-2.440000057220459
1702219822705682700,53.5756826171875,-0.241799995303154,0.5837000012397766,0.9300999641418457
1702219822765682700,53.6356826171875,0.2401999980211258,1.4023000001907349,-0.795799970626831
1702219822825682700,53.6956826171875,-0.10539999604225159,1.5642999410629272,-2.665599822998047
1702219822885682700,53.7556826171875,1.1627999544143677,-0.031099999323487282,-2.9077999591827393
1702219822945751600,53.81575146484375,5.539599895477295,-0.972599983215332,-1.2598999738693237
1702219823005682700,53.8756826171875,-0.6503999829292297,-1.8217999935150146,-7.152400016784668
1702219823065682700,53.9356826171875,4.396399974822998,0.44359999895095825,-3.663599967956543
1702219823125682700,53.9956826171875,-7.198099613189697,-3.5593998432159424,-1.2393999099731445
1702219823185682700,54.0556826171875,-0.7531999945640564,-4.134200096130371,-0.6686999797821045
1702219823245682700,54.1156826171875,-4.691099643707275,0.740399956703186,2.3808999061584473
1702219823305682700,54.1756826171875,-3.35479998588562,1.378000020980835,1.1485999822616577
1702219823365682700,54.2356826171875,-3.421999931335449,2.508699893951416,2.8587000370025635
1702219823425682700,54.2956826171875,0.6638999581336975,2.005699872970581,2.7102999687194824
1702219823485682700,54.3556826171875,3.1230998039245605,0.29829999804496765,-4.832299709320068
1702219823545682700,54.4156826171875,-0.7507999539375305,2.894699811935425,-3.172299861907959
1702219823605682700,54.4756826171875,0.3154999911785126,-8.062299728393555,-4.360300064086914
1702219823665682700,54.5356826171875,-4.6828999519348145,2.5451998710632324,6.709199905395508
1702219823725682700,54.5956826171875,-2.733599901199341,-4.5040998458862305,-2.4110000133514404
1702219823785682700,54.6556826171875,-3.632200002670288,0.8111000061035156,-1.8258999586105347
1702219823845682700,54.7156826171875,-1.2151999473571777,0.48489999771118164,-0.5354999899864197
1702219823905682700,54.7756826171875,-0.3247999846935272,0.973099946975708,0.8009999990463257
1702219823965682700,54.8356826171875,-0.6265999674797058,1.9929999113082886,-0.76419997215271
1702219824025682700,54.8956826171875,1.6275999546051025,-0.2572999894618988,-2.673499822616577
1702219824085682700,54.9556826171875,3.0416998863220215,-0.2726999819278717,-3.0160999298095703
1702219824145682700,55.0156826171875,-1.5173999071121216,-0.6248999834060669,-3.487799882888794
1702219824205682700,55.0756826171875,6.9091997146606445,-0.08139999955892563,-5.4832000732421875
1702219824265682700,55.1356826171875,-3.803299903869629,-0.1396999955177307,-1.80649995803833
1702219824325682700,55.1956826171875,0.0502999983727932,-5.095399856567383,-1.0429999828338623
1702219824385682700,55.2556826171875,-2.440199851989746,-0.8710999488830566,1.9793999195098877
1702219824445682700,55.3156826171875,-3.75819993019104,1.351699948310852,1.2879999876022339
1702219824505682700,55.3756826171875,-2.9099998474121094,2.1562998294830322,1.1855000257492065
1702219824565709300,55.43570922851563,-2.36899995803833,3.0281999111175537,4.389699935913086
1702219824625682700,55.4956826171875,3.53059983253479,0.8830999732017517,-4.40310001373291
1702219824685682700,55.5556826171875,-0.896399974822998,4.140899658203125,-2.6029999256134033
1702219824745682700,55.6156826171875,2.10509991645813,-11.491299629211426,-4.155999660491943
1702219824805682700,55.6756826171875,-5.316799640655518,3.796799898147583,7.172199726104736
1702219824865682700,55.7356826171875,-4.150599956512451,-4.940099716186523,-3.0044000148773193
1702219824925682700,55.7956826171875,-0.011399999260902405,0.9358999729156494,-0.3441999852657318
1702219824985682700,55.8556826171875,0.10349999368190765,-0.3434000015258789,1.4854999780654907
1702219825045682700,55.9156826171875,-0.04230000078678131,1.4279999732971191,-0.25779998302459717
1702219825105682700,55.9756826171875,1.4119999408721924,2.3648998737335205,-2.1377999782562256
1702219825165682700,56.0356826171875,-1.5393999814987183,1.8539999723434448,-2.952899932861328
1702219825225682700,56.0956826171875,1.7910000085830688,1.6593999862670898,-3.6654999256134033
1702219825285682700,56.1556826171875,2.2855000495910645,-0.49889999628067017,-2.7124998569488525
1702219825345682700,56.2156826171875,8.041299819946289,-1.055400013923645,-5.560199737548828
1702219825405682700,56.2756826171875,-5.466599941253662,-0.8066999912261963,-3.0927999019622803
1702219825465682700,56.3356826171875,0.31919997930526733,-4.455499649047852,-2.75849986076355
1702219825525682700,56.3956826171875,-1.7732999324798584,-1.2431999444961548,2.747799873352051
1702219825585682700,56.4556826171875,-3.4321999549865723,2.0288000106811523,1.6448999643325806
1702219825645682700,56.5156826171875,-4.110300064086914,2.579699993133545,2.171599864959717
1702219825705682700,56.5756826171875,-3.5937998294830322,2.9343998432159424,6.507299900054932
1702219825765682700,56.6356826171875,8.91189956665039,-2.3529000282287598,-6.037499904632568
1702219825825682700,56.6956826171875,-1.9825999736785889,5.6596999168396,-2.5002999305725098
1702219825885682700,56.7556826171875,-1.3667999505996704,-5.689799785614014,-3.8959999084472656
1702219825945682700,56.8156826171875,-5.441999912261963,-0.10080000013113022,2.503700017929077
1702219826005682700,56.8756826171875,-4.771299839019775,-3.0361998081207275,-1.39329993724823
1702219826065682700,56.9356826171875,-3.1434998512268066,-0.5572999715805054,-1.6461999416351318
1702219826125682700,56.9956826171875,-0.2547000050544739,1.0958999395370483,1.6948999166488647
1702219826185682700,57.0556826171875,2.571699857711792,0.47939997911453247,1.121999979019165
1702219826245682700,57.1156826171875,-0.2870999872684479,1.9229999780654907,-1.3680999279022217
1702219826305682700,57.1756826171875,0.3317999839782715,0.8925999999046326,-3.3820998668670654
1702219826365682700,57.2356826171875,7.440799713134766,-1.9422999620437622,-5.5680999755859375
1702219826425682700,57.2956826171875,0.4114999771118164,-0.7942999601364136,-5.4751996994018555
1702219826485682700,57.3556826171875,5.563399791717529,0.6768999695777893,-2.5408999919891357
1702219826545682700,57.4156826171875,-6.465399742126465,-4.371999740600586,-2.6907999515533447
1702219826605682700,57.4756826171875,0.43230000138282776,-4.399600028991699,1.0993000268936157
1702219826665682700,57.5356826171875,-4.213399887084961,-0.008799999952316284,2.5800998210906982
1702219826725682700,57.5956826171875,-2.7753000259399414,2.2268998622894287,1.6660999059677124
1702219826785682700,57.6556826171875,-2.177000045776367,4.265500068664551,3.50849986076355
1702219826845682700,57.7156826171875,1.3256999254226685,2.7396998405456543,0.3344999849796295
1702219826905682700,57.7756826171875,3.93969988822937,0.6746000051498413,-6.317299842834473
1702219826965682700,57.8356826171875,0.8334999680519104,0.9032999873161316,-0.14720000326633453
1702219827025682700,57.8956826171875,0.24549999833106995,-8.536799430847168,0.4327999949455261
1702219827085682700,57.9556826171875,-7.1828999519348145,1.8918999433517456,1.9858999252319336
1702219827145682700,58.0156826171875,-4.053400039672852,-4.48199987411499,-4.652100086212158
1702219827205682700,58.0756826171875,-2.3696999549865723,1.0622999668121338,-0.7687000036239624
1702219827265682700,58.1356826171875,5.582399845123291,-2.413599967956543,2.9186999797821045
1702219827325682700,58.1956826171875,-1.903899908065796,2.6029000282287598,-0.014699999243021011
1702219827385682700,58.2556826171875,-1.9785999059677124,1.9088000059127808,-3.761899948120117
1702219827445682700,58.3156826171875,-1.1761000156402588,2.2978999614715576,-2.817199945449829
1702219827505682700,58.3756826171875,7.958499908447266,-2.009899854660034,-4.766599655151367
1702219827565682700,58.4356826171875,0.30820000171661377,-0.15779998898506165,-1.7113999128341675
1702219827625682700,58.4956826171875,5.9238996505737305,0.38029998540878296,-5.5829997062683105
1702219827685682700,58.5556826171875,-3.0216000080108643,1.2223999500274658,-8.34179973602295
1702219827745682700,58.6156826171875,-3.3673999309539795,-5.230499744415283,-2.1410000324249268
1702219827805682700,58.6756826171875,-0.41130000352859497,-3.5608999729156494,3.1836998462677
1702219827865682700,58.7356826171875,-2.9800000190734863,2.5520999431610107,4.235599994659424
1702219827925682700,58.7956826171875,-3.7029998302459717,2.5495998859405518,0.607699990272522
1702219827985682700,58.8556826171875,-3.7132999897003174,2.6958999633789062,6.593899726867676
1702219828045682700,58.9156826171875,7.524600028991699,-0.22450000047683716,-5.940899848937988
1702219828105682700,58.9756826171875,2.0476999282836914,6.02810001373291,-1.347499966621399
1702219828165682700,59.0356826171875,-2.572199821472168,-9.105400085449219,-3.742999792098999
1702219828225682700,59.0956826171875,-7.491399765014648,0.9390999674797058,5.1844000816345215
1702219828285682700,59.1556826171875,-6.424299716949463,-6.5218000411987305,-3.597399950027466
1702219828345682700,59.2156826171875,-1.524399995803833,0.9853999614715576,0.7519999742507935
1702219828405682700,59.2756826171875,0.7838000059127808,-0.49129998683929443,-1.2437000274658203
1702219828465682700,59.3356826171875,-1.7771999835968018,1.8452999591827393,-2.3276000022888184
1702219828525682700,59.3956826171875,1.2317999601364136,2.747299909591675,-2.9491000175476074
1702219828585682700,59.4556826171875,2.6741998195648193,0.09059999883174896,-5.0548996925354
1702219828645682700,59.5156826171875,1.1204999685287476,-0.43939998745918274,-2.3020999431610107
1702219828705682700,59.5756826171875,6.852099895477295,-1.2824000120162964,-5.4365997314453125
1702219828765682700,59.6356826171875,-8.272500038146973,1.0540999174118042,-4.263700008392334
1702219828825682700,59.6956826171875,4.1203999519348145,-7.605499744415283,-4.843699932098389
1702219828885682700,59.7556826171875,-3.7814998626708984,-2.577899932861328,4.90910005569458
1702219828945682700,59.8156826171875,-2.9494998455047607,2.87719988822937,1.1728999614715576
1702219829005682700,59.8756826171875,-3.5604000091552734,3.6066999435424805,2.766199827194214
1702219829065682700,59.9356826171875,-3.4320998191833496,2.6947999000549316,6.5081000328063965
1702219829125682700,59.9956826171875,12.177499771118164,-1.2653999328613281,-9.242199897766113
1702219829185682700,60.0556826171875,-3.713899850845337,5.10290002822876,-3.0463998317718506
1702219829245682700,60.1156826171875,6.803499698638916,-8.49940013885498,-1.1717000007629395
1702219829305682700,60.1756826171875,-3.659799814224243,0.2044999897480011,2.6267998218536377
1702219829365682700,60.2356826171875,-5.457200050354004,-2.4631998538970947,0.21169999241828918
1702219829425682700,60.2956826171875,-3.6141998767852783,-1.00819993019104,-1.0362999439239502
1702219829485682700,60.3556826171875,2.8831000328063965,3.1385998725891113,0.703499972820282
1702219829545682700,60.4156826171875,0.02889999933540821,0.19200000166893005,-0.5289999842643738
1702219829605682700,60.4756826171875,2.149899959564209,3.004199981689453,-1.337499976158142
1702219829665682700,60.5356826171875,-1.0972999334335327,1.1471999883651733,-3.607999801635742
1702219829725682700,60.5956826171875,3.409299850463867,-1.1287999153137207,-5.662399768829346
1702219829785682700,60.6556826171875,5.532599925994873,-1.1794999837875366,-1.3693000078201294
1702219829845682700,60.7156826171875,1.8894000053405762,1.6916999816894531,-5.774399757385254
1702219829905682700,60.7756826171875,-9.303199768066406,-5.201699733734131,-9.637999534606934
1702219829965681200,60.83568115234375,2.9419000148773193,-6.419699668884277,-0.11189999431371689
1702219830025681200,60.89568115234375,-6.77679967880249,0.48009997606277466,3.859999895095825
1702219830085681200,60.95568115234375,-4.272200107574463,3.1875998973846436,1.9960999488830566
1702219830145681200,61.01568115234375,-4.563799858093262,3.2219998836517334,6.03879976272583
1702219830205682700,61.0756826171875,0.0016999999061226845,1.3078999519348145,6.026299953460693
1702219830265682700,61.1356826171875,5.473099708557129,-1.0300999879837036,-11.455899238586426
1702219830325682700,61.1956826171875,-0.10369999706745148,6.183099746704102,-2.36329984664917
1702219830385682700,61.2556826171875,-0.6513999700546265,-7.777899742126465,-3.4001998901367188
1702219830445681200,61.31568115234375,-7.972599983215332,-2.1684999465942383,3.80649995803833
1702219830505681200,61.37568115234375,-5.535699844360352,-4.667500019073486,-1.820599913597107
1702219830565681200,61.43568115234375,-1.5331999063491821,-0.4754999876022339,0.15459999442100525
1702219830625681200,61.49568115234375,7.774299621582031,1.5568000078201294,7.729899883270264
1702219830685681200,61.55568115234375,-2.202199935913086,3.23829984664917,0.08150000125169754
1702219830745681200,61.61568115234375,-1.7799999713897705,1.1563999652862549,-3.339399814605713
1702219830805681200,61.67568115234375,3.2089998722076416,-0.8637999892234802,-8.36299991607666
1702219830865682700,61.7356826171875,3.382699966430664,-1.4399999380111694,-7.876699924468994
1702219830925682700,61.7956826171875,5.147799968719482,-2.042099952697754,-5.162199974060059
1702219830985682700,61.8556826171875,-7.3725996017456055,0.02709999866783619,-1.82669997215271
1702219831045682700,61.9156826171875,2.095399856567383,-7.275599956512451,-2.7070999145507812
1702219831105682700,61.9756826171875,-4.183000087738037,-0.5151999592781067,4.903299808502197
1702219831165682700,62.0356826171875,-1.8686000108718872,1.6741999387741089,2.3690998554229736
1702219831225682700,62.0956826171875,-3.8219997882843018,2.7045998573303223,2.8355000019073486
1702219831285682700,62.1556826171875,-2.9420998096466064,4.222599983215332,7.360099792480469
1702219831345682700,62.2156826171875,6.511399745941162,-3.478600025177002,-16.958900451660156
1702219831405682700,62.2756826171875,-1.7364999055862427,6.527400016784668,-2.243000030517578
1702219831465682700,62.3356826171875,0.3051999807357788,-11.232699394226074,-1.6028000116348267
1702219831525682700,62.3956826171875,-7.9197998046875,2.0181000232696533,4.466399669647217
1702219831585682700,62.4556826171875,-5.473799705505371,-4.728099822998047,-3.1095998287200928
1702219831645682700,62.5156826171875,-3.7761998176574707,1.087399959564209,-1.2899999618530273
1702219831705682700,62.5756826171875,1.9375998973846436,0.44909998774528503,0.676099956035614
1702219831765682700,62.6356826171875,-1.094499945640564,1.2405999898910522,-1.3871999979019165
1702219831825682700,62.6956826171875,2.13100004196167,2.145699977874756,-2.747299909591675
1702219831885681200,62.75568115234375,1.9091999530792236,0.25380000472068787,-5.406199932098389
1702219831945682700,62.8156826171875,0.5342999696731567,-0.8710999488830566,-2.5743000507354736
1702219832005682700,62.8756826171875,5.60290002822876,-1.1870999336242676,-4.351399898529053
1702219832065682700,62.9356826171875,-0.49789997935295105,-0.06480000168085098,-2.1572999954223633
1702219832125682700,62.9956826171875,-3.034799814224243,-4.052099704742432,-3.0576999187469482
1702219832185682700,63.0556826171875,-1.5858999490737915,-2.501499891281128,0.17799998819828033
1702219832245682700,63.1156826171875,-2.4933998584747314,0.42809998989105225,1.8162999153137207
1702219832305681200,63.17568115234375,-2.0592000484466553,1.5851999521255493,1.404599905014038
1702219832365681200,63.23568115234375,-3.6629998683929443,2.4517998695373535,5.313999652862549
1702219832425682700,63.2956826171875,3.6215999126434326,3.2191998958587646,4.978600025177002
1702219832485682700,63.3556826171875,0.14790000021457672,-1.4453999996185303,-13.35890007019043
1702219832545682700,63.4156826171875,-0.8596999645233154,5.317800045013428,9.571800231933594
1702219832605682700,63.4756826171875,0.2928999960422516,-12.651000022888184,-9.910200119018555
1702219832665682700,63.5356826171875,-5.320199966430664,1.9300999641418457,2.626499891281128
1702219832725682700,63.5956826171875,-2.608299970626831,-1.420799970626831,-3.6113998889923096
1702219832785682700,63.6556826171875,-2.0931999683380127,2.0778000354766846,-1.2369999885559082
1702219832845682700,63.7156826171875,-0.014499999582767487,0.4262999892234802,1.3579999208450317
1702219832905682700,63.7756826171875,1.6628999710083008,1.1770999431610107,-0.010799999348819256
1702219832965682700,63.8356826171875,-0.28360000252723694,2.7296998500823975,-1.4747999906539917
1702219833025682700,63.8956826171875,2.4769999980926514,0.1907999962568283,-4.2845001220703125
1702219833085681200,63.95568115234375,3.9945998191833496,-1.9222999811172485,-4.479099750518799
1702219833145682700,64.0156826171875,4.820499897003174,-1.2065999507904053,-8.3371000289917
1702219833205682700,64.0756826171875,-5.651700019836426,-2.391899824142456,-7.294999599456787
1702219833265682700,64.1356826171875,3.335899829864502,-9.851699829101562,-3.0286998748779297
1702219833325682700,64.1956826171875,-5.448999881744385,-0.031300000846385956,4.646500110626221
1702219833385682700,64.2556826171875,-2.062199831008911,3.120499849319458,1.6758999824523926
1702219833445682700,64.3156826171875,-5.147799968719482,2.3135998249053955,3.7921998500823975
1702219833505682700,64.3756826171875,-4.6149001121521,1.5532000064849854,6.933300018310547
1702219833565682700,64.4356826171875,0.8579999804496765,1.788699984550476,2.2746999263763428
1702219833625682700,64.4956826171875,-1.6319999694824219,0.018799999728798866,-11.426300048828125
1702219833685682700,64.5556826171875,8.03499984741211,-6.845900058746338,-4.436999797821045
1702219833745682700,64.6156826171875,-6.055699825286865,-2.2214999198913574,6.067800045013428
1702219833805682700,64.6756826171875,-7.150799751281738,1.4014999866485596,0.6632999777793884
1702219833865682700,64.7356826171875,-6.639699935913086,-2.8982999324798584,-3.6713998317718506
1702219833925682700,64.7956826171875,9.640199661254883,1.9649999141693115,0.5922999978065491
1702219833985682700,64.8556826171875,0.8073999881744385,-0.1890999972820282,-1.0643999576568604
1702219834045682700,64.9156826171875,-2.8962998390197754,1.6174999475479126,-2.90310001373291
1702219834105682700,64.9756826171875,2.5516998767852783,3.1938998699188232,-2.590100049972534
1702219834165682700,65.0356826171875,2.3838000297546387,-0.8593999743461609,-3.347399950027466
1702219834225682700,65.0956826171875,3.1726999282836914,-1.4449999332427979,-1.0835000276565552
1702219834285681200,65.15568115234375,4.589200019836426,-2.615999937057495,-5.102799892425537
1702219834345682700,65.2156826171875,-4.849800109863281,-1.559899926185608,-6.270299911499023
1702219834405682700,65.2756826171875,-1.796799898147583,-2.477299928665161,-4.755499839782715
1702219834465682700,65.3356826171875,-1.1165999174118042,-4.872299671173096,-0.3050999939441681
1702219834525682700,65.3956826171875,-1.8846999406814575,0.7138999700546265,1.2297999858856201
1702219834585682700,65.4556826171875,-4.093899726867676,-0.7290999889373779,-1.3315999507904053
1702219834645682700,65.5156826171875,-5.119699954986572,0.042399998754262924,1.6929999589920044
1702219834705682700,65.5756826171875,-4.015399932861328,0.945099949836731,6.168999671936035
1702219834765682700,65.6356826171875,-2.064199924468994,1.5475000143051147,9.201099395751953
1702219834825682700,65.6956826171875,-3.3483998775482178,2.7039999961853027,4.433499813079834
1702219834885682700,65.7556826171875,-1.2447999715805054,0.946899950504303,-9.64799976348877
1702219834945681200,65.81568115234376,6.101999759674072,1.5983999967575073,-9.030099868774414
1702219835005681200,65.87568115234374,7.779099941253662,-4.293699741363525,-2.0904998779296875
1702219835065681200,65.93568115234375,-5.490799903869629,-0.644599974155426,8.085800170898438
1702219835125681200,65.99568115234375,-2.7184998989105225,-1.6215999126434326,-1.0271999835968018
1702219835185681200,66.05568115234375,0.423799991607666,-1.9660999774932861,-1.980699896812439
1702219835245681200,66.11568115234375,-0.21359999477863312,1.421199917793274,-3.0894999504089355
1702219835305681200,66.17568115234376,-1.7280999422073364,1.3172999620437622,-1.4495999813079834
1702219835365681200,66.23568115234374,0.39489999413490295,1.7531999349594116,-2.2423999309539795
1702219835425682700,66.2956826171875,0.6195999979972839,0.9436999559402466,-2.6425998210906982
1702219835485682700,66.3556826171875,0.4781000018119812,1.5430999994277954,-0.8876999616622925
1702219835545682700,66.4156826171875,-1.1776999235153198,0.6970999836921692,0.5051999688148499
1702219835605682700,66.4756826171875,3.7407000064849854,-2.0318000316619873,-4.885200023651123
1702219835665682700,66.5356826171875,0.4964999854564667,-1.5923999547958374,-2.918299913406372
1702219835725682700,66.5956826171875,6.5665998458862305,-2.088599920272827,-8.873499870300293
1702219835785682700,66.6556826171875,-5.892600059509277,-0.014399999752640724,-2.597100019454956
1702219835845682700,66.7156826171875,6.332099914550781,-4.588399887084961,-0.948199987411499
1702219835905681200,66.77568115234375,-1.4779999256134033,-0.30169999599456787,0.9838999509811401
1702219835965681200,66.83568115234375,-4.045599937438965,-0.2305999994277954,0.8641999959945679
1702219836025681200,66.89568115234376,-2.5800998210906982,2.138200044631958,2.7704999446868896
1702219836085682700,66.9556826171875,-3.7769999504089355,3.052799940109253,5.951299667358398
1702219836145682700,67.0156826171875,0.3587999939918518,2.971299886703491,1.5376999378204346
1702219836205682700,67.0756826171875,3.7229998111724854,2.1257998943328857,-8.653800010681152
1702219836265682700,67.1356826171875,-4.757800102233887,-0.9362999796867371,-7.514199733734131
1702219836325682700,67.1956826171875,-4.320399761199951,-0.9157999753952026,5.287600040435791
1702219836385681200,67.25568115234375,-5.02810001373291,-0.02019999921321869,2.448499917984009
1702219836445681200,67.31568115234376,-1.7451999187469482,-4.812099933624268,-2.7751998901367188
1702219836505681200,67.37568115234374,-0.6502999663352966,1.4443999528884888,1.5113999843597412
1702219836565682700,67.4356826171875,0.5004000067710876,-0.12879998981952667,0.018299998715519905
1702219836625682700,67.4956826171875,-0.7353999614715576,1.5970999002456665,-2.4495999813079834
1702219836685682700,67.5556826171875,-0.27639999985694885,1.698199987411499,-3.061499834060669
1702219836745682700,67.6156826171875,1.7903000116348267,2.123499870300293,-2.5944998264312744
1702219836805682700,67.6756826171875,6.441099643707275,-0.1850000023841858,-7.026899814605713
1702219836865681200,67.73568115234374,0.02459999918937683,-3.45389986038208,-4.339799880981445
1702219836925681200,67.79568115234375,5.730999946594238,-2.095399856567383,-8.878399848937988
1702219836985682700,67.8556826171875,-2.6733999252319336,0.5963999629020691,-5.0578999519348145
1702219837045682700,67.9156826171875,0.262800008058548,-7.597399711608887,-2.3213999271392822
1702219837105682700,67.9756826171875,-1.3675999641418457,0.10779999941587448,3.5827999114990234
1702219837165682700,68.0356826171875,-3.3112998008728027,1.197700023651123,-0.0018999999156221747
1702219837225682700,68.0956826171875,-3.764699935913086,2.500499963760376,1.58079993724823
1702219837285682700,68.1556826171875,-1.9519000053405762,2.562299966812134,6.530099868774414
1702219837345682700,68.2156826171875,5.9096999168396,0.6891999840736389,1.6064999103546143
1702219837405682700,68.2756826171875,2.3313000202178955,2.2986998558044434,-5.013400077819824
1702219837465682700,68.3356826171875,0.9025999903678894,1.2548999786376953,-1.7871999740600586
1702219837525682700,68.3956826171875,-1.5468999147415161,-6.615799903869629,-2.827199935913086
1702219837585682700,68.4556826171875,-4.478499889373779,0.48089998960494995,3.0135998725891113
1702219837645682700,68.5156826171875,-3.0316998958587646,-2.646399974822998,-0.5178999900817871
1702219837705682700,68.5756826171875,-2.1840999126434326,0.5936999917030334,-1.3257999420166016
1702219837765682700,68.6356826171875,3.211199998855591,0.8940999507904053,1.45579993724823
1702219837825682700,68.6956826171875,0.1784999966621399,1.0877000093460083,-1.379599928855896
1702219837885682700,68.7556826171875,-0.8151999711990356,2.870999813079834,-2.0729000568389893
1702219837945681200,68.81568115234376,0.9957000017166138,1.8890999555587769,-3.0660998821258545
1702219838005681200,68.87568115234374,5.13539981842041,-0.35249999165534973,-2.567999839782715
1702219838065681200,68.93568115234375,1.990399956703186,-0.3554999828338623,-2.7050998210906982
1702219838125681200,68.99568115234375,4.588900089263916,-2.302500009536743,-8.365399360656738
1702219838185681200,69.05568115234375,-2.5118000507354736,0.5410000085830688,-4.189799785614014
1702219838245681200,69.11568115234375,0.10949999839067459,-6.559799671173096,-3.7079999446868896
1702219838305681200,69.17568115234376,-3.3524999618530273,-1.462399959564209,4.050300121307373
1702219838365681200,69.23568115234374,-0.8726999759674072,0.8137999773025513,1.0910999774932861
1702219838425682700,69.2956826171875,-3.517699956893921,2.227799892425537,1.083299994468689
1702219838485682700,69.3556826171875,-4.29509973526001,2.287099838256836,5.479499816894531
1702219838545682700,69.4156826171875,-0.8782999515533447,3.1803998947143555,6.803599834442139
1702219838605682700,69.4756826171875,4.236000061035156,-3.626999855041504,-14.433399200439453
1702219838665682700,69.5356826171875,-1.3255999088287354,5.247900009155273,-1.0190999507904053
1702219838725682700,69.5956826171875,-2.446499824523926,-12.448199272155762,-5.919300079345703
1702219838785682700,69.6556826171875,-5.277599811553955,3.2928998470306396,5.904399871826172
1702219838845682700,69.7156826171875,-4.70419979095459,-2.6819000244140625,-1.1145999431610107
1702219838905682700,69.7756826171875,-5.6178998947143555,-0.3831000030040741,-2.1922998428344727
1702219838965682700,69.8356826171875,5.748300075531006,2.4539999961853027,-0.6078000068664551
1702219839025682700,69.8956826171875,0.9426999688148499,1.1902999877929688,-1.6390999555587769
1702219839085682700,69.9556826171875,-1.4601999521255493,1.775999903678894,-1.117799997329712
1702219839145682700,70.0156826171875,2.476799964904785,0.8535999655723572,-4.355000019073486
1702219839205682700,70.0756826171875,2.5952999591827393,-0.1981000006198883,-2.332200050354004
1702219839265682700,70.1356826171875,0.6935999989509583,-0.4619999825954437,-4.030099868774414
1702219839325682700,70.1956826171875,3.5179998874664307,1.2010999917984009,-3.450899839401245
1702219839385682700,70.2556826171875,-3.683499813079834,-3.1545000076293945,-3.8566999435424805
1702219839445682700,70.3156826171875,0.6656999588012695,-6.352999687194824,-0.2514999806880951
1702219839505682700,70.3756826171875,-4.835899829864502,1.2918999195098877,0.6805999875068665
1702219839565709300,70.43570922851562,-2.3343000411987305,1.4778000116348267,-1.2868000268936157
1702219839625682700,70.4956826171875,-3.1425998210906982,1.823599934577942,2.9587998390197754
1702219839685682700,70.5556826171875,-0.95169997215271,0.7705999612808228,6.89139986038208
1702219839745682700,70.6156826171875,8.814099311828613,0.1826999932527542,0.4860999882221222
1702219839805682700,70.6756826171875,-0.5367000102996826,1.4940999746322632,-10.863900184631348
1702219839865682700,70.7356826171875,-7.943299770355225,4.088799953460693,6.906999588012695
1702219839925682700,70.7956826171875,-8.050000190734863,-6.5879998207092285,-2.2279000282287598
1702219839985682700,70.8556826171875,-3.4524998664855957,-0.48479998111724854,-0.046299997717142105
1702219840045682700,70.9156826171875,-5.366199970245361,-0.7999999523162842,-0.43719998002052307
1702219840105682700,70.9756826171875,0.870199978351593,2.5710999965667725,-3.0160000324249268
1702219840165682700,71.0356826171875,0.8716999888420105,1.3514000177383423,-0.1453000009059906
1702219840225681200,71.09568115234374,0.718999981880188,0.357699990272522,-1.6100000143051147
1702219840285681200,71.15568115234375,0.15139999985694885,2.1435999870300293,-3.0706000328063965
1702219840345681200,71.21568115234375,4.335400104522705,0.5248000025749207,-4.408400058746338
1702219840405682700,71.2756826171875,3.477299928665161,2.787799835205078,-2.984799861907959
1702219840465681200,71.33568115234375,-1.1440999507904053,-0.5378999710083008,-7.031299591064453
1702219840525681200,71.39568115234376,-0.02239999920129776,-8.841099739074707,0.14980000257492065
1702219840585681200,71.45568115234374,-3.7154998779296875,-2.8424999713897705,0.021399999037384987
1702219840645681200,71.51568115234375,2.087399959564209,0.8718000054359436,-1.6347999572753906
1702219840705681200,71.57568115234375,-2.647199869155884,1.7906999588012695,3.4958999156951904
1702219840765681200,71.63568115234375,-1.684999942779541,3.5060999393463135,6.4791998863220215
1702219840825681200,71.69568115234375,2.1041998863220215,0.2612999975681305,4.918699741363525
1702219840885681200,71.75568115234375,-2.107800006866455,0.21169999241828918,-10.839200019836426
1702219840945682700,71.8156826171875,-1.0537999868392944,3.961599826812744,-1.5326999425888062
1702219841005681200,71.87568115234374,-1.2480000257492065,-2.596599817276001,-4.296199798583984
1702219841065681200,71.93568115234375,2.6761999130249023,-1.9534999132156372,3.309499979019165
1702219841125682700,71.9956826171875,-4.44320011138916,-0.08289999514818192,2.063999891281128
1702219841185682700,72.0556826171875,-4.273299694061279,-2.991999864578247,-2.859299898147583
1702219841245682700,72.1156826171875,-2.3085999488830566,1.8436999320983887,1.3269000053405762
1702219841305682700,72.1756826171875,5.253599643707275,0.06870000064373016,-0.13899999856948853
1702219841365681200,72.23568115234374,-0.851099967956543,2.0894999504089355,-1.9018999338150024
1702219841425681200,72.29568115234375,-0.0026000000070780516,0.8374999761581421,-3.233299970626831
1702219841485681200,72.35568115234375,6.729899883270264,-1.82260000705719,-3.1054999828338623
1702219841545681200,72.41568115234375,0.20579999685287476,-1.643899917602539,-3.7286999225616455
1702219841605681200,72.47568115234375,5.915899753570557,1.4622999429702759,-5.949599742889404
1702219841665681200,72.53568115234376,-7.948599815368652,-1.3457000255584717,-1.1334999799728394
1702219841725681200,72.59568115234374,1.5611999034881592,-5.400700092315674,-2.7774999141693115
1702219841785681200,72.65568115234375,-4.958199977874756,1.2619999647140503,2.7772998809814453
1702219841845681200,72.71568115234375,-3.2259998321533203,1.7308999300003052,1.159999966621399
1702219841905682700,72.7756826171875,-2.9928998947143555,2.029099941253662,3.99399995803833
1702219841965682700,72.8356826171875,-0.9452999830245972,2.3618998527526855,5.250199794769287
1702219842025682700,72.8956826171875,5.77810001373291,-1.4067999124526978,-10.659500122070312
1702219842085682700,72.9556826171875,-2.598599910736084,5.926199913024902,-3.849799871444702
1702219842145682700,73.0156826171875,0.6789999604225159,-7.27209997177124,-3.3571999073028564
1702219842205682700,73.0756826171875,1.646399974822998,0.9249999523162842,5.257699966430664
1702219842265682700,73.1356826171875,-5.875999927520752,-0.6110000014305115,1.5861999988555908
1702219842325682700,73.1956826171875,-2.189199924468994,-2.5199999809265137,-3.830699920654297
1702219842385682700,73.2556826171875,2.130699872970581,2.2797999382019043,1.9789999723434448
1702219842445682700,73.3156826171875,0.5048999786376953,-0.3385999798774719,0.17979998886585236
1702219842505682700,73.3756826171875,-0.6068999767303467,2.2123000621795654,-0.69159996509552
1702219842565682700,73.4356826171875,0.4245999753475189,1.3471999168395996,-3.3276000022888184
1702219842625682700,73.4956826171875,5.223799705505371,-0.3903999924659729,-5.595799922943115
1702219842685682700,73.5556826171875,2.719899892807007,-1.0855000019073486,-0.9269999861717224
1702219842745682700,73.6156826171875,3.884999990463257,-2.114500045776367,-8.416799545288086
1702219842805682700,73.6756826171875,-5.152699947357178,0.6298999786376953,-2.6806998252868652
1702219842865682700,73.7356826171875,0.003700000001117587,-6.08329963684082,-1.1833999156951904
1702219842925682700,73.7956826171875,-1.955299973487854,0.10659999400377274,2.298799991607666
1702219842985682700,73.8556826171875,-2.848099946975708,2.0107998847961426,-0.12870000302791595
1702219843045682700,73.9156826171875,-3.086699962615967,1.4306999444961548,5.848199844360352
1702219843105682700,73.9756826171875,-3.0223000049591064,3.294099807739258,6.909499645233154
1702219843165682700,74.0356826171875,3.344399929046631,1.4630999565124512,-7.365099906921387
1702219843225682700,74.0956826171875,-0.10909999907016754,4.962399959564209,-5.099699974060059
1702219843285682700,74.1556826171875,-6.576200008392334,-8.764900207519531,0.2255999892950058
1702219843345682700,74.2156826171875,-8.129599571228027,1.740299940109253,4.019400119781494
1702219843405682700,74.2756826171875,-4.563199996948242,-5.939499855041504,-3.558499813079834
1702219843465682700,74.3356826171875,0.29339998960494995,0.3983999788761139,0.2004999965429306
1702219843525682700,74.3956826171875,-0.5317999720573425,-1.4810999631881714,-0.2906000018119812
1702219843585682700,74.4556826171875,-0.6337999701499939,2.363600015640259,-1.46999990940094
1702219843645682700,74.5156826171875,-0.5092999935150146,3.9336998462677,-2.4875998497009277
1702219843705682700,74.5756826171875,0.22269999980926514,1.9962999820709229,-3.0669000148773193
1702219843765682700,74.6356826171875,6.43019962310791,-1.6869999170303345,-4.054999828338623
1702219843825682700,74.6956826171875,2.0767998695373535,-2.025099992752075,-2.2451000213623047
1702219843885682700,74.7556826171875,3.7720999717712402,0.46209999918937683,-7.759599685668945
1702219843945682700,74.8156826171875,-4.27839994430542,1.3056999444961548,-4.078999996185303
1702219844005682700,74.8756826171875,-0.46140000224113464,-7.5488996505737305,-2.40910005569458
1702219844065682700,74.9356826171875,-1.3942999839782715,-0.5189999938011169,2.4532999992370605
1702219844125682700,74.9956826171875,-3.5269999504089355,0.8532999753952026,1.4575999975204468
1702219844185682700,75.0556826171875,-3.9168999195098877,1.9888999462127686,3.404599905014038
1702219844245682700,75.1156826171875,-2.9426000118255615,3.8217999935150146,6.822000026702881
1702219844305682700,75.1756826171875,4.571599960327148,-0.23589999973773956,-10.803899765014648
1702219844365682700,75.2356826171875,2.5759999752044678,4.540299892425537,-3.123699903488159
1702219844425682700,75.2956826171875,-4.093899726867676,-5.965799808502197,1.372499942779541
1702219844485682700,75.3556826171875,-5.97189998626709,-0.057099997997283936,2.5665998458862305
1702219844545682700,75.4156826171875,-3.4113998413085938,-3.692499876022339,-2.709399938583374
1702219844605682700,75.4756826171875,-1.7874999046325684,1.2069000005722046,-0.9514999985694885
1702219844665682700,75.5356826171875,0.45649999380111694,0.8111000061035156,1.0809999704360962
1702219844725682700,75.5956826171875,-0.46219998598098755,1.5900999307632446,-2.4958999156951904
1702219844785682700,75.6556826171875,0.5449999570846558,3.3252999782562256,-1.6577999591827393
1702219844845682700,75.7156826171875,1.868499994277954,-0.20639999210834503,-2.7739999294281006
1702219844905682700,75.7756826171875,4.118599891662598,-1.6412999629974365,-2.305299997329712
1702219844965682700,75.8356826171875,2.2072999477386475,0.5735999941825867,-6.254799842834473
1702219845025682700,75.8956826171875,4.801199913024902,0.5306000113487244,-4.874399662017822
1702219845085682700,75.9556826171875,-8.314599990844727,-2.875,-5.1194000244140625
1702219845145682700,76.0156826171875,2.732499837875366,-6.290599822998047,-2.379699945449829
1702219845205682700,76.0756826171875,-4.489999771118164,-0.05009999871253967,2.759199857711792
1702219845265682700,76.1356826171875,-2.6691999435424805,1.4271999597549438,1.3137999773025513
