time,seconds_elapsed,z,y,x
1702215241684681200,0.06568115234375,-0.8779000043869019,0.42879998683929443,-1.2171000242233276
1702215241744681200,0.12568115234375,-0.08389999717473984,-0.006899999920278788,-0.006399999838322401
1702215241804681200,0.18568115234375,0.05819999799132347,0.007799999788403511,0.10769999772310257
1702215241864681200,0.24568115234375,0.17649999260902405,-0.06379999965429306,-0.16169999539852142
1702215241924681200,0.30568115234375,-0.047199998050928116,0,0.03819999843835831
1702215241984681200,0.36568115234375,-0.12229999899864197,-0.04879999905824661,0.13019999861717224
1702215242044681200,0.42568115234375,-0.006399999838322401,0.0478999987244606,-0.044999998062849045
1702215242104681200,0.48568115234375,0.05269999802112579,-0.039000000804662704,0.017899999395012856
1702215242164681200,0.54568115234375,-0.05469999834895134,0.012799999676644802,0.32819998264312744
1702215242224681200,0.60568115234375,-0.009800000116229057,-0.024799998849630356,-0.009800000116229057
1702215242284682800,0.665682861328125,0.2563000023365021,-0.06969999521970749,-0.2858999967575073
1702215242344681200,0.72568115234375,-0.24279999732971191,0.1639000028371811,0.042899999767541885
1702215242404681200,0.78568115234375,-0.0965999960899353,-0.05689999833703041,0.23579999804496765
1702215242464681200,0.84568115234375,-0.3577999770641327,0.09279999881982803,0.13589999079704285
1702215242524681200,0.90568115234375,0.1622999906539917,-0.18940000236034393,-0.0997999981045723
1702215242584682800,0.965682861328125,0.07699999958276749,0.008899999782443047,-0.02589999884366989
1702215242644682800,1.025682861328125,-0.18400000035762787,0.1021999940276146,0.07360000163316727
1702215242704682800,1.085682861328125,-0.23019999265670776,-0.027899999171495438,0.17309999465942383
1702215242764682800,1.145682861328125,-0.420199990272522,0.00419999985024333,-0.09950000047683716
1702215242824682800,1.205682861328125,0.22039999067783356,-0.20999999344348907,-0.38099998235702515
1702215242884682800,1.265682861328125,0.6441999673843384,0.08999999612569809,-0.08919999748468399
1702215242944682800,1.325682861328125,-0.1947999894618988,0.20719999074935913,-0.15079998970031738
1702215243004682800,1.385682861328125,-0.02459999918937683,0.10520000010728836,-0.17739999294281006
1702215243064682800,1.445682861328125,-0.22419999539852142,0.021299999207258224,-0.15230000019073486
1702215243124682800,1.505682861328125,0.019700000062584877,-0.06109999865293503,0.3538999855518341
1702215243184682800,1.565682861328125,-0.7645999789237976,0.23259998857975006,0.6405999660491943
1702215243244682800,1.625682861328125,-1.4757999181747437,0.22209998965263367,0.15709999203681946
1702215243304682800,1.685682861328125,-0.510699987411499,0.09059999883174896,-0.38099998235702515
1702215243364682800,1.745682861328125,-0.5769999623298645,0.2563999891281128,0.8011999726295471
1702215243424682800,1.805682861328125,-1.2187999486923218,-0.10989999771118164,2.0104000568389893
1702215243484682800,1.865682861328125,-1.5828999280929565,-0.257099986076355,2.6750998497009277
1702215243544682800,1.925682861328125,-1.1725999116897583,-1.2730000019073486,1.205899953842163
1702215243604682800,1.985682861328125,1.9241999387741089,-0.46539998054504395,0.6960999965667725
1702215243664682800,2.045682861328125,-0.6061999797821045,0.8084999918937683,-0.580299973487854
1702215243724682800,2.105682861328125,1.7989999055862427,-1.3808000087738037,-0.07499999552965164
1702215243784682800,2.165682861328125,0.2821999788284302,-0.39069998264312744,2.366799831390381
1702215243844682800,2.225682861328125,-0.6751999855041504,0.2831999957561493,2.024600028991699
1702215243904682800,2.285682861328125,0.588699996471405,-2.561699867248535,0.3750999867916107
1702215243964682800,2.345682861328125,1.654599905014038,-2.0147998332977295,2.7665998935699463
1702215244024682800,2.405682861328125,-1.01419997215271,-1.6198999881744385,-0.35989999771118164
1702215244084682800,2.465682861328125,1.726599931716919,-0.6061999797821045,-0.41749998927116394
1702215244144682800,2.525682861328125,-3.736299991607666,-0.7454999685287476,-2.5397000312805176
1702215244204682800,2.585682861328125,-2.2863998413085938,0.15869998931884766,0.17180000245571136
1702215244264682800,2.645682861328125,-3.751999855041504,-0.3955000042915344,1.4677000045776367
1702215244324682800,2.705682861328125,-4.415599822998047,-2.876699924468994,3.239799976348877
1702215244384682800,2.765682861328125,-5.079099655151367,-6.019899845123291,1.9474999904632568
1702215244444682800,2.825682861328125,-3.407399892807007,-1.7351999282836914,2.5493998527526855
1702215244504682800,2.885682861328125,-1.0784999132156372,-2.333899974822998,3.123800039291382
1702215244564709400,2.94570947265625,0.06039999797940254,-3.311699867248535,0.7746999859809875
1702215244624682800,3.005682861328125,-0.17579999566078186,-2.905099868774414,-3.5555999279022217
1702215244684682800,3.065682861328125,-0.2646999955177307,-2.109299898147583,-2.620299816131592
1702215244744682800,3.125682861328125,-0.5497999787330627,-0.3075999915599823,-4.6433000564575195
1702215244804682800,3.185682861328125,-2.5047998428344727,0.7014999985694885,-8.878199577331543
1702215244864682800,3.245682861328125,-2.7819998264312744,1.3559999465942383,-10.443900108337402
1702215244924682800,3.305682861328125,-2.5585999488830566,0.3310999870300293,-10.767999649047852
1702215244984682800,3.365682861328125,-0.7361999750137329,-0.17739999294281006,-7.292500019073486
1702215245044682800,3.425682861328125,2.5782999992370605,-3.3939998149871826,-5.009200096130371
1702215245104682800,3.485682861328125,1.949199914932251,-5.037300109863281,-2.235599994659424
1702215245164682800,3.545682861328125,0.8242999911308289,-3.833599805831909,-0.47929999232292175
1702215245224682800,3.605682861328125,-1.542699933052063,-3.3100998401641846,3.4973998069763184
1702215245284682800,3.665682861328125,-1.656499981880188,-2.6808998584747314,4.24839973449707
1702215245344682800,3.725682861328125,-1.010599970817566,-2.071899890899658,5.634799957275391
1702215245404682800,3.785682861328125,-0.46369999647140503,-0.8294000029563904,6.346799850463867
1702215245464682800,3.845682861328125,-1.4291999340057373,1.0992000102996826,5.285399913787842
1702215245524682800,3.905682861328125,0.10869999974966049,-0.6274999976158142,6.49429988861084
1702215245584682800,3.965682861328125,-1.063499927520752,-1.2493000030517578,5.404999732971191
1702215245644682800,4.025682861328125,-1.8994998931884766,-3.1092000007629395,4.315199851989746
1702215245704682800,4.085682861328125,-0.03999999910593033,-2.3244998455047607,0.5291000008583069
1702215245764682800,4.145682861328125,0.6451999545097351,-3.0444998741149902,-0.9565999507904053
1702215245824681200,4.20568115234375,0.09759999811649323,-2.277899980545044,-1.7853999137878418
1702215245884681200,4.26568115234375,-0.8872999548912048,-2.1649999618530273,-2.634999990463257
1702215245944681200,4.32568115234375,-0.4576999843120575,-2.4979000091552734,-2.944399833679199
1702215246004682800,4.385682861328125,3.1123998165130615,-2.5607998371124268,-3.1552999019622803
1702215246064682800,4.445682861328125,1.5891999006271362,-1.5723999738693237,0.16009999811649323
1702215246124682800,4.505682861328125,1.2721999883651733,-1.7213000059127808,-2.1434998512268066
1702215246184682800,4.565682861328125,1.857699990272522,-2.0327999591827393,-4.254199981689453
1702215246244681200,4.62568115234375,0.04429999738931656,-0.4804999828338623,-4.620599746704102
1702215246304681200,4.68568115234375,-3.4923999309539795,1.2930999994277954,-4.393099784851074
1702215246364681200,4.74568115234375,-4.302099704742432,2.2914998531341553,-4.733500003814697
1702215246424681200,4.80568115234375,-2.485499858856201,1.2958999872207642,-5.808199882507324
1702215246484682800,4.865682861328125,-0.33879998326301575,0.4657999873161316,-4.9766998291015625
1702215246544682800,4.925682861328125,0.6107999682426453,-0.38199999928474426,-4.942399978637695
1702215246604682800,4.985682861328125,1.0454999208450317,-1.6072999238967896,-3.7958998680114746
1702215246664681200,5.04568115234375,1.0078999996185303,-2.5929999351501465,-0.5321999788284302
1702215246724681200,5.10568115234375,0.5345999598503113,-4.290800094604492,0.7152999639511108
1702215246784681200,5.16568115234375,0.2019999921321869,-3.8519999980926514,-0.8555999994277954
1702215246844681200,5.22568115234375,2.312999963760376,-2.4082000255584717,0.8973000049591064
1702215246904682800,5.285682861328125,0.23309999704360962,-1.5059999227523804,1.0448999404907227
1702215246964682800,5.345682861328125,0.616100013256073,-2.1638998985290527,2.1382999420166016
1702215247024682800,5.405682861328125,1.1753000020980835,-0.7900999784469604,2.779399871826172
1702215247084681200,5.46568115234375,-0.3407000005245209,-0.07459999620914459,3.5501999855041504
1702215247144681200,5.52568115234375,-1.112299919128418,0.2029999941587448,4.65910005569458
1702215247204681200,5.58568115234375,-2.2358999252319336,-0.23739999532699585,5.3867998123168945
1702215247264681200,5.64568115234375,-3.5707998275756836,-2.1085000038146973,5.429299831390381
1702215247324681200,5.70568115234375,-1.5592999458312988,-5.076099872589111,5.812999725341797
1702215247384681200,5.76568115234375,-1.1410999298095703,-5.630899906158447,5.0929999351501465
1702215247444681200,5.82568115234375,-1.7935999631881714,-5.132199764251709,3.260999917984009
1702215247504681200,5.88568115234375,-0.19099999964237213,-4.84119987487793,1.7065999507904053
1702215247564681200,5.94568115234375,1.8705999851226807,-2.5090999603271484,-0.33069998025894165
1702215247624681200,6.00568115234375,2.6078999042510986,-0.3937000036239624,-2.9278998374938965
1702215247684681200,6.06568115234375,-0.24809999763965607,0.3105999827384949,-4.699699878692627
1702215247744681200,6.12568115234375,-1.1898000240325928,-0.29499998688697815,-7.925899982452393
1702215247804681200,6.18568115234375,-0.9095999598503113,-0.026499999687075615,-9.527199745178223
1702215247864682800,6.245682861328125,-0.03439999744296074,-1.0063999891281128,-9.852999687194824
1702215247924682800,6.305682861328125,-0.6071000099182129,-2.6325998306274414,-9.598400115966797
1702215247984682800,6.365682861328125,0.5,-2.2156999111175537,-7.091099739074707
1702215248044682800,6.425682861328125,1.612299919128418,-1.996899962425232,-3.506899833679199
1702215248104682800,6.485682861328125,-1.5769000053405762,-4.292699813842773,-3.277099847793579
1702215248164681200,6.54568115234375,-3.0892999172210693,-7.024600028991699,-3.9987998008728027
1702215248224681200,6.60568115234375,1.5332999229431152,-6.436699867248535,0.014800000004470348
1702215248284681200,6.66568115234375,2.73009991645813,-5.114799976348877,4.329599857330322
1702215248344681200,6.72568115234375,0.5640999674797058,-4.336199760437012,6.500499725341797
1702215248404681200,6.78568115234375,-0.11739999800920486,-3.470399856567383,7.616699695587158
1702215248464681200,6.84568115234375,-1.2828999757766724,-2.6101999282836914,7.620100021362305
1702215248524681200,6.90568115234375,-1.225000023841858,-1.00409996509552,8.436200141906738
1702215248584681200,6.96568115234375,-1.95989990234375,-2.893199920654297,9.181900024414062
1702215248644682800,7.025682861328125,-1.3400999307632446,-5.365200042724609,8.414400100708008
1702215248704682800,7.085682861328125,0.11769999563694,-7.343699932098389,5.643699645996094
1702215248764682800,7.145682861328125,-0.47439998388290405,-8.090399742126465,2.2863998413085938
1702215248824682800,7.205682861328125,-0.34880000352859497,-5.233500003814697,-1.6667999029159546
1702215248884682800,7.265682861328125,0.7409999966621399,-3.3625998497009277,-4.222300052642822
1702215248944681200,7.32568115234375,0.5960999727249146,-2.9261999130249023,-5.295899868011475
1702215249004681200,7.38568115234375,-1.1340999603271484,-0.6527000069618225,-7.902799606323242
1702215249064681200,7.44568115234375,-0.4213999807834625,0.4350000023841858,-9.93239974975586
1702215249124681200,7.50568115234375,-1.500499963760376,0.9872999787330627,-10.381400108337402
1702215249184682800,7.565682861328125,-2.8822999000549316,-1.5429999828338623,-9.887700080871582
1702215249244682800,7.625682861328125,-1.6435999870300293,-3.3615000247955322,-9.711299896240234
1702215249304682800,7.685682861328125,2.0016000270843506,-3.2435998916625977,-4.190299987792969
1702215249364682800,7.745682861328125,0.06709999591112137,-5.6579999923706055,-1.0433999300003052
1702215249424682800,7.805682861328125,-1.517300009727478,-5.314599990844727,-1.792099952697754
1702215249484682800,7.865682861328125,1.3564000129699707,-3.8489999771118164,1.1380000114440918
1702215249544682800,7.925682861328125,1.8773999214172363,-3.0169999599456787,3.8165998458862305
1702215249604682800,7.985682861328125,0.7195999622344971,-2.668099880218506,5.81119966506958
1702215249664682800,8.045682861328125,0.47369998693466187,-2.4226999282836914,7.502999782562256
1702215249724682800,8.105682861328125,-0.31619998812675476,-2.1594998836517334,8.241199493408203
1702215249784682800,8.165682861328126,-0.5259000062942505,-2.8722000122070312,9.091899871826172
1702215249844682800,8.225682861328124,-1.0641999244689941,-4.720999717712402,8.600099563598633
1702215249904682800,8.285682861328125,-3.504499912261963,-5.783400058746338,4.6579999923706055
1702215249964682800,8.345682861328125,-2.9696998596191406,-7.08519983291626,0.8222999572753906
1702215250024682800,8.405682861328126,-1.1067999601364136,-5.062900066375732,-1.9017999172210693
1702215250084682800,8.465682861328125,-0.031300000846385956,-0.630299985408783,-2.9765000343322754
1702215250144682800,8.525682861328125,-1.1268999576568604,0.8471999764442444,-1.761299967765808
1702215250204682800,8.585682861328126,-0.23569999635219574,0.602899968624115,-2.82889986038208
1702215250264682800,8.645682861328124,1.1365000009536743,1.3959999084472656,-5.499599933624268
1702215250324682800,8.705682861328125,0.6328999996185303,0.16979999840259552,-5.672199726104736
1702215250384682800,8.765682861328125,-0.10499999672174454,0.1858000010251999,-8.36359977722168
1702215250444682800,8.825682861328126,0.7027999758720398,-2.89139986038208,-6.313799858093262
1702215250504681200,8.88568115234375,-0.830299973487854,-2.4686999320983887,-9.064000129699707
1702215250564682800,8.945682861328125,0.2263999879360199,-4.918499946594238,-3.882200002670288
1702215250624682800,9.005682861328125,0.9864999651908875,-4.760900020599365,-0.21239998936653137
1702215250684682800,9.065682861328124,1.1687999963760376,-2.9191999435424805,0.7328999638557434
1702215250744682800,9.125682861328125,0.5202999711036682,-2.066999912261963,3.1708998680114746
1702215250804682800,9.185682861328125,0.07959999889135361,-1.3982999324798584,5.077099800109863
1702215250864682800,9.245682861328126,0.12280000001192093,-1.3977999687194824,5.214699745178223
1702215250924682800,9.305682861328124,0.3643999993801117,-1.6852999925613403,5.305999755859375
1702215250984682800,9.365682861328125,0.23849999904632568,-2.7860000133514404,5.7978997230529785
1702215251044682800,9.425682861328125,-0.362199991941452,-2.8005998134613037,6.032599925994873
1702215251104682800,9.485682861328126,-1.699199914932251,-3.760200023651123,6.5894999504089355
1702215251164682800,9.545682861328125,-1.385599970817566,-2.6061999797821045,4.178999900817871
1702215251224682800,9.605682861328125,-1.5357999801635742,-3.784799814224243,1.7620999813079834
1702215251284682800,9.665682861328126,-1.3687999248504639,-4.4079999923706055,-0.534500002861023
1702215251344682800,9.725682861328124,1.9774999618530273,-2.303299903869629,-2.7660999298095703
1702215251404682800,9.785682861328125,2.310499906539917,-0.6900999546051025,-2.075500011444092
1702215251464682800,9.845682861328125,1.2258999347686768,0.08259999752044678,-3.376499891281128
1702215251524682800,9.905682861328126,1.4857999086380005,0.7825999855995178,-4.461199760437012
1702215251584682800,9.965682861328125,1.0121999979019165,1.1060999631881714,-5.263599872589111
1702215251644682800,10.025682861328125,-0.8328999876976013,-0.8517000079154968,-6.675699710845947
1702215251704682800,10.085682861328126,-0.37619999051094055,-2.7024998664855957,-9.532899856567383
1702215251764682800,10.145682861328124,0.5885999798774719,-2.4082000255584717,-9.26669979095459
1702215251824682800,10.205682861328125,0.4170999825000763,-2.0566999912261963,-5.556099891662598
1702215251884682800,10.265682861328125,-0.8948999643325806,-5.533299922943115,-3.120299816131592
1702215251944682800,10.325682861328126,0.16359999775886536,-6.208399772644043,-1.2538999319076538
1702215252004682800,10.385682861328124,2.3496999740600586,-4.8867998123168945,1.9545999765396118
1702215252064682800,10.445682861328125,3.102799892425537,-3.770399808883667,4.107800006866455
1702215252124682800,10.505682861328125,3.1385998725891113,-3.297999858856201,5.4105000495910645
1702215252184682800,10.565682861328124,2.7674999237060547,-3.3685998916625977,5.962199687957764
1702215252244682800,10.625682861328125,1.9886999130249023,-3.4126999378204346,7.209099769592285
1702215252304682800,10.685682861328125,1.1358000040054321,-2.3225998878479004,8.89229965209961
1702215252364682800,10.745682861328126,-3.4619998931884766,-2.213399887084961,7.379199981689453
1702215252424682800,10.805682861328124,-1.0713999271392822,-5.2515997886657715,7.923999786376953
1702215252484682800,10.865682861328125,1.146299958229065,-6.856599807739258,3.8153998851776123
1702215252544682800,10.925682861328125,-0.0885000005364418,-6.363499641418457,1.2272999286651611
1702215252604682800,10.985682861328126,-0.8698999881744385,-4.695699691772461,-3.043599843978882
1702215252664682800,11.045682861328125,1.2558000087738037,-2.929299831390381,-5.078000068664551
1702215252724682800,11.105682861328125,2.547799825668335,-1.243499994277954,-6.264400005340576
1702215252784682800,11.165682861328126,1.830399990081787,0.023899998515844345,-9.013099670410156
1702215252844682800,11.225682861328124,-1.7573999166488647,-2.5302000045776367,-12.30840015411377
1702215252904682800,11.285682861328125,0.8919000029563904,0.49549999833106995,-9.682899475097656
1702215252964682800,11.345682861328125,0.22529999911785126,-1.6294000148773193,-5.029399871826172
1702215253024682800,11.405682861328126,-1.7388999462127686,-5.618399620056152,-7.042699813842773
1702215253084682800,11.465682861328125,-0.32359999418258667,-7.194399833679199,-3.7791998386383057
1702215253144681200,11.52568115234375,1.820099949836731,-5.849699974060059,-1.0256999731063843
1702215253204682800,11.585682861328126,3.1210999488830566,-4.77869987487793,1.684899926185608
1702215253264682800,11.645682861328124,3.2005999088287354,-4.972300052642822,3.875699996948242
1702215253324682800,11.705682861328125,3.8513998985290527,-4.662300109863281,5.213200092315674
1702215253384682800,11.765682861328125,4.718999862670898,-3.2356998920440674,6.012499809265137
1702215253444682800,11.825682861328126,3.610999822616577,-3.1658999919891357,6.415999889373779
1702215253504682800,11.885682861328124,3.0007998943328857,-3.0757999420166016,8.608599662780762
1702215253564682800,11.945682861328125,0.7579999566078186,-3.855599880218506,8.023399353027344
1702215253624682800,12.005682861328125,-1.7038999795913696,-4.762099742889404,5.1407999992370605
1702215253684682800,12.065682861328124,-0.306799978017807,-6.069200038909912,4.098599910736084
1702215253744681200,12.12568115234375,1.5625,-6.3343000411987305,1.490399956703186
1702215253804682800,12.185682861328125,1.030900001525879,-4.466099739074707,-2.5774998664855957
1702215253864682800,12.245682861328126,-0.1695999950170517,-3.353600025177002,-4.963500022888184
1702215253924682800,12.305682861328124,-0.6836999654769897,-2.297600030899048,-6.558499813079834
1702215253984682800,12.365682861328125,0.40469998121261597,0.4059999883174896,-6.856299877166748
1702215254044682800,12.425682861328125,-0.407399982213974,1.0530999898910522,-7.341699600219727
1702215254104682800,12.485682861328126,-5.306299686431885,0.023399999365210533,-9.276599884033203
1702215254164682800,12.545682861328125,-6.004499912261963,-0.5532000064849854,-8.293399810791016
1702215254224682800,12.605682861328125,-2.4707999229431152,-2.036099910736084,-5.769399642944336
1702215254284682800,12.665682861328126,-2.2470998764038086,-5.839999675750732,-4.4141998291015625
1702215254344682800,12.725682861328124,-1.5168999433517456,-7.534299850463867,-2.1198999881744385
1702215254404682800,12.785682861328125,2.6085000038146973,-6.5100998878479,2.3301000595092773
1702215254464682800,12.845682861328125,4.372200012207031,-3.9245998859405518,3.696699857711792
1702215254524682800,12.905682861328126,4.074699878692627,-3.5814998149871826,5.61359977722168
1702215254584682800,12.965682861328125,4.284800052642822,-1.9345999956130981,6.308300018310547
1702215254644682800,13.025682861328125,4.000800132751465,-1.0156999826431274,6.257699966430664
1702215254704682800,13.085682861328126,3.3439998626708984,-0.7518999576568604,5.524899959564209
1702215254764682800,13.145682861328124,2.2263998985290527,-1.49809992313385,4.341399669647217
1702215254824682800,13.205682861328125,0.8288999795913696,-4.011600017547607,3.1006999015808105
1702215254884682800,13.265682861328125,-1.246500015258789,-4.264999866485596,1.0658999681472778
1702215254944682800,13.325682861328126,1.3046000003814697,-6.648900032043457,1.7350999116897583
1702215255004682800,13.385682861328124,0.4682999849319458,-5.778800010681152,-1.149999976158142
1702215255064682800,13.445682861328125,1.168299913406372,-3.737299919128418,-2.484799861907959
1702215255124682800,13.505682861328125,-2.651700019836426,-0.36399999260902405,-1.7441999912261963
1702215255184682800,13.565682861328124,-1.3671000003814697,1.3593000173568726,-2.168799877166748
1702215255244682800,13.625682861328125,0.5363999605178833,1.3806999921798706,-3.686999797821045
1702215255304682800,13.685682861328125,-1.5206999778747559,0.6667999625205994,-6.682399749755859
1702215255364682800,13.745682861328126,-2.075199842453003,1.1467000246047974,-8.481900215148926
1702215255424682800,13.805682861328124,-4.127799987792969,1.5861999988555908,-7.43019962310791
1702215255484682800,13.865682861328125,-5.720900058746338,-0.704800009727478,-7.0625996589660645
1702215255544682800,13.925682861328125,-2.760699987411499,-2.958400011062622,-6.234299659729004
1702215255604682800,13.985682861328126,-1.6288999319076538,-3.710099935531616,-5.669399738311768
1702215255664682800,14.045682861328125,-0.39159998297691345,-3.7243998050689697,-4.4263997077941895
1702215255724682800,14.105682861328125,-1.8646999597549438,-6.571699619293213,-1.6037999391555786
1702215255784682800,14.165682861328126,-0.7190999984741211,-7.253999710083008,-2.18179988861084
1702215255844682800,14.225682861328124,3.116999864578247,-5.80649995803833,0.8934999704360962
1702215255904682800,14.285682861328125,5.440499782562256,-4.458799839019775,3.819899797439575
1702215255964682800,14.345682861328125,5.623799800872803,-4.006999969482422,5.515199661254883
1702215256024682800,14.405682861328126,4.752399921417236,-3.7026000022888184,8.691699981689453
1702215256084682800,14.465682861328125,3.650899887084961,-2.271699905395508,10.358499526977539
1702215256144682800,14.525682861328125,0.5751000046730042,-4.236700057983398,8.705599784851074
1702215256204682800,14.585682861328126,0.779699981212616,-5.869999885559082,6.808899879455566
1702215256264682800,14.645682861328124,1.4984999895095825,-8.567299842834473,3.9564998149871826
1702215256324682800,14.705682861328125,-1.7494999170303345,-8.96150016784668,0.30719998478889465
1702215256384682800,14.765682861328125,1.7726999521255493,-5.910599708557129,-1.445099949836731
1702215256444682800,14.825682861328126,1.4078999757766724,-2.892400026321411,-3.932999849319458
1702215256504682800,14.885682861328124,-0.784500002861023,-1.7879999876022339,-5.565099716186523
1702215256564682800,14.945682861328125,-0.689799964427948,-0.444599986076355,-8.555999755859375
1702215256624682800,15.005682861328125,0.7497999668121338,0.910099983215332,-10.985099792480469
1702215256684682800,15.065682861328124,-2.0444998741149902,1.406999945640564,-11.247300148010254
1702215256744682800,15.125682861328125,-2.8008999824523926,1.17739999294281,-7.002699851989746
1702215256804682800,15.185682861328125,-1.7352999448776245,-4.0264997482299805,-8.626999855041504
1702215256864682800,15.245682861328126,-0.9485999941825867,-6.282199859619141,-9.0802001953125
1702215256924682800,15.305682861328124,0.75,-8.495999336242676,-1.8601999282836914
1702215256984682800,15.365682861328125,0.23919999599456787,-7.099999904632568,-0.7567999958992004
1702215257044682800,15.425682861328125,2.4509999752044678,-5.339600086212158,1.5855000019073486
1702215257104682800,15.485682861328126,2.644899845123291,-4.717299938201904,4.630000114440918
1702215257164682800,15.545682861328125,1.865799903869629,-4.223400115966797,6.235599994659424
1702215257224682800,15.605682861328125,2.035599946975708,-3.725299835205078,7.7816996574401855
1702215257284682800,15.665682861328126,2.037299871444702,-2.444399833679199,9.999099731445312
1702215257344682800,15.725682861328124,0.7080000042915344,-3.0571999549865723,9.752799987792969
1702215257404682800,15.785682861328125,-0.015099999494850636,-5.462399959564209,9.290900230407715
1702215257464682800,15.845682861328125,2.1466000080108643,-7.97629976272583,5.1651997566223145
1702215257524682800,15.905682861328126,-0.847000002861023,-9.56719970703125,2.6382999420166016
1702215257584682800,15.965682861328125,-1.0654000043869019,-7.376099586486816,-1.8193999528884888
1702215257644682800,16.025682861328125,-0.5746999979019165,-4.656099796295166,-5.467199802398682
1702215257704682800,16.085682861328124,0.8626999855041504,-2.618499994277954,-5.058000087738037
1702215257764682800,16.145682861328126,1.2623999118804932,-0.9429000020027161,-5.228899955749512
1702215257824682800,16.205682861328125,2.592399835586548,0.3904999792575836,-7.712299823760986
1702215257884682800,16.265682861328123,1.4169999361038208,-0.359499990940094,-12.416500091552734
1702215257944682800,16.325682861328126,-4.2153000831604,-1.2721999883651733,-14.258899688720703
1702215258004682800,16.385682861328124,-2.975600004196167,-3.5434999465942383,-10.150599479675293
1702215258064682800,16.445682861328127,0.7530999779701233,-3.6031999588012695,-6.956999778747559
1702215258124682800,16.505682861328125,0.4089999794960022,-6.519899845123291,-3.447499990463257
1702215258184682800,16.565682861328124,-2.604099988937378,-8.002399444580078,-2.136899948120117
1702215258244682800,16.625682861328126,1.2551000118255615,-7.4350996017456055,0.18859998881816864
1702215258304682800,16.685682861328125,3.7032999992370605,-6.709099769592285,3.475399971008301
1702215258364682800,16.745682861328124,4.793799877166748,-5.730299949645996,5.1697998046875
1702215258424682800,16.805682861328126,4.631700038909912,-5.092799663543701,6.874699592590332
1702215258484682800,16.865682861328125,3.902400016784668,-3.8583998680114746,9.08389949798584
1702215258544682800,16.925682861328124,2.6521999835968018,-3.783399820327759,8.675700187683105
1702215258604682800,16.985682861328126,2.4096999168395996,-5.756099700927734,9.591499328613281
1702215258664682800,17.045682861328125,-0.44209998846054077,-6.232100009918213,5.087899684906006
1702215258724682800,17.105682861328123,-0.6743999719619751,-6.55049991607666,3.6115000247955322
1702215258784682800,17.165682861328126,0.17289999127388,-6.544899940490723,1.70169997215271
1702215258844682800,17.225682861328124,0.46769997477531433,-4.536299705505371,-2.3587000370025635
1702215258904682800,17.285682861328127,-1.6420999765396118,-3.1547999382019043,-5.24370002746582
1702215258964682800,17.345682861328125,-2.6401000022888184,-1.1057000160217285,-6.356799602508545
1702215259024682800,17.405682861328124,-2.399600028991699,1.3284000158309937,-7.868000030517578
1702215259084682800,17.465682861328126,-2.865799903869629,1.5965999364852905,-8.82409954071045
1702215259144682800,17.525682861328125,-4.146599769592285,2.366799831390381,-9.253199577331543
1702215259204682800,17.585682861328124,-2.5111000537872314,-1.7910999059677124,-8.004899978637695
1702215259264682800,17.645682861328126,-1.3917999267578125,-4.565999984741211,-6.862199783325195
1702215259324682800,17.705682861328125,-1.0406999588012695,-5.7876996994018555,-2.640899896621704
1702215259384682800,17.765682861328123,0.23309999704360962,-6.583399772644043,0.6550999879837036
1702215259444682800,17.825682861328126,1.5195000171661377,-5.315899848937988,1.2079999446868896
1702215259504682800,17.885682861328124,2.5764000415802,-3.1022000312805176,2.9176998138427734
1702215259564709400,17.94570947265625,1.712399959564209,-2.253000020980835,5.166800022125244
1702215259624682800,18.005682861328125,1.403499960899353,-1.3112999200820923,6.614599704742432
1702215259684682800,18.065682861328124,0.9210999608039856,-0.670199990272522,7.279399871826172
1702215259744682800,18.125682861328126,0.03659999743103981,-0.6929999589920044,8.063499450683594
1702215259804682800,18.185682861328125,-0.19539999961853027,-1.4632999897003174,5.0590996742248535
1702215259864682800,18.245682861328124,-2.514899969100952,-6.664499759674072,5.822999954223633
1702215259924682800,18.305682861328126,0.47529998421669006,-7.222599983215332,4.218499660491943
1702215259984682800,18.365682861328125,-0.2595999836921692,-5.900699615478516,-1.1744999885559082
1702215260044682800,18.425682861328124,-0.49539998173713684,-3.990499973297119,-2.614300012588501
1702215260104682800,18.485682861328126,0.4544000029563904,-0.11050000041723251,-3.3508999347686768
1702215260164682800,18.545682861328125,-0.8746999502182007,0.6348999738693237,-4.711400032043457
1702215260224682800,18.605682861328123,0.47279998660087585,0.4684000015258789,-5.912899971008301
1702215260284682800,18.665682861328126,2.2676000595092773,1.9220999479293823,-5.946899890899658
1702215260344682800,18.725682861328124,1.3007999658584595,2.682299852371216,-4.374199867248535
1702215260404682800,18.785682861328127,-2.4968998432159424,-0.03889999911189079,-4.765999794006348
1702215260464682800,18.845682861328125,-3.2209999561309814,-1.4190999269485474,-5.330199718475342
1702215260524682800,18.905682861328124,-0.7662999629974365,-3.1821999549865723,-3.9714999198913574
1702215260584682800,18.965682861328126,-0.12289999425411224,-1.931999921798706,-5.721099853515625
1702215260644682800,19.025682861328125,-1.452299952507019,-2.283099889755249,-1.980799913406372
1702215260704682800,19.085682861328124,-4.803899765014648,-4.014599800109863,-1.2767000198364258
1702215260764682800,19.145682861328126,0.26649999618530273,-4.465199947357178,-0.7815999984741211
1702215260824682800,19.205682861328125,3.7142999172210693,-4.746200084686279,3.0986998081207275
1702215260884682800,19.265682861328123,5.270099639892578,-3.4636998176574707,4.320099830627441
1702215260944682800,19.325682861328126,2.911799907684326,-2.8197999000549316,5.391599655151367
1702215261004682800,19.385682861328124,1.051900029182434,-2.302299976348877,6.791100025177002
1702215261064682800,19.445682861328127,0.8904999494552612,-1.4900999069213867,9.318999290466309
1702215261124682800,19.505682861328125,2.333199977874756,-3.0116000175476074,8.646499633789062
1702215261184682800,19.565682861328124,3.167799949645996,-6.725899696350098,4.609099864959717
1702215261244682800,19.625682861328126,-1.3248999118804932,-5.435999870300293,3.4816999435424805
1702215261304682800,19.685682861328125,-2.7304999828338623,-5.370800018310547,0.6323999762535095
1702215261364682800,19.745682861328124,0.04319999739527702,-3.341899871826172,0.2847000062465668
1702215261424682800,19.805682861328126,1.1502000093460083,-1.8882999420166016,-2.411900043487549
1702215261484682800,19.865682861328125,0.5979999899864197,-1.282099962234497,-5.238699913024902
1702215261544682800,19.925682861328124,0.10499999672174454,-0.45749998092651367,-8.788199424743652
1702215261604682800,19.985682861328126,0.37209999561309814,0.8173999786376953,-8.49959945678711
1702215261664682800,20.045682861328125,-1.2231999635696411,-1.020300030708313,-8.723199844360352
1702215261724682800,20.105682861328123,-1.4962999820709229,-0.25519999861717224,-6.798299789428711
1702215261784682800,20.165682861328126,-1.0378999710083008,2.041800022125244,-3.626199960708618
1702215261844682800,20.225682861328124,-0.9869999885559082,-2.0625998973846436,-1.7623999118804932
1702215261904682800,20.285682861328127,-5.009500026702881,-3.2558000087738037,-10.482999801635742
1702215261964682800,20.345682861328125,-4.202099800109863,-7.168399810791016,-5.668799877166748
1702215262024682800,20.405682861328124,1.8246999979019165,-6.102499961853027,-0.7197999954223633
1702215262084682800,20.465682861328126,3.938699960708618,-5.973799705505371,2.682999849319458
1702215262144682800,20.525682861328125,4.354399681091309,-5.600399971008301,4.051700115203857
1702215262204682800,20.585682861328124,4.306600093841553,-3.847399950027466,4.921899795532227
1702215262264682800,20.645682861328126,2.8464999198913574,-4.247399806976318,9.04379940032959
1702215262324682800,20.705682861328125,0.4026999771595001,-4.702600002288818,10.705599784851074
1702215262384682800,20.765682861328123,-0.6353999972343445,-5.427999973297119,8.245399475097656
1702215262444682800,20.825682861328126,-3.1058998107910156,-5.817699909210205,4.276099681854248
1702215262504682800,20.885682861328124,-1.2010999917984009,-4.088399887084961,6.053899765014648
1702215262564682800,20.945682861328127,0.9708999991416931,-3.679499864578247,4.510900020599365
1702215262624682800,21.005682861328125,1.2209999561309814,-5.0177998542785645,0.8855999708175659
1702215262684681200,21.06568115234375,-0.0015999999595806003,-5.154999732971191,-6.585299968719482
1702215262744682800,21.125682861328126,2.2132999897003174,-1.527899980545044,-8.736000061035156
1702215262804682800,21.185682861328125,1.0394999980926514,0.16699999570846558,-5.891900062561035
1702215262864682800,21.245682861328124,1.0109000205993652,0.22499999403953552,-11.479199409484863
1702215262924682800,21.305682861328126,1.9594999551773071,-2.0832998752593994,-11.755399703979492
1702215262984682800,21.365682861328125,1.1230000257492065,-4.052000045776367,-12.4891996383667
1702215263044682800,21.425682861328124,-1.0276999473571777,-6.403599739074707,-6.2581000328063965
1702215263104682800,21.485682861328126,-0.6676999926567078,-8.925399780273438,-2.8329999446868896
1702215263164681200,21.54568115234375,2.448699951171875,-6.161999702453613,0.42669999599456787
1702215263224681200,21.60568115234375,1.674799919128418,-5.62339973449707,4.199899673461914
1702215263284682800,21.665682861328126,0.03590000048279762,-6.017199993133545,5.740799903869629
1702215263344682800,21.725682861328124,0.5709999799728394,-4.9842000007629395,6.699899673461914
1702215263404681200,21.78568115234375,1.7502999305725098,-3.420799970626831,10.594099998474121
1702215263464681200,21.84568115234375,0.8324999809265137,-1.5942999124526978,12.781599998474121
1702215263524682800,21.905682861328124,-1.0073999166488647,-1.9797999858856201,8.934700012207031
1702215263584682800,21.965682861328126,-4.841599941253662,-8.39900016784668,8.801899909973145
1702215263644682800,22.025682861328125,1.6094999313354492,-10.952399253845215,4.5559000968933105
1702215263704682800,22.085682861328124,0.05159999802708626,-9.15939998626709,0.5662999749183655
1702215263764682800,22.145682861328126,-2.0154998302459717,-4.6356000900268555,-2.9312000274658203
1702215263824682800,22.205682861328125,-0.816100001335144,-2.292799949645996,-5.195799827575684
1702215263884682800,22.265682861328123,1.2394999265670776,-0.45509999990463257,-4.9492998123168945
1702215263944682800,22.325682861328126,0.774899959564209,-0.04859999939799309,-9.723499298095703
1702215264004682800,22.385682861328124,-0.013199999928474426,-1.2865999937057495,-14.924999237060547
1702215264064681200,22.44568115234375,1.1308000087738037,-0.1281999945640564,-9.644299507141113
1702215264124681200,22.50568115234375,0.7876999974250793,-0.647599995136261,-7.088699817657471
1702215264184681200,22.56568115234375,-0.8710999488830566,-1.661199927330017,-8.05739974975586
1702215264244682800,22.625682861328126,-5.006799697875977,-5.469699859619141,-4.545799732208252
1702215264304682800,22.685682861328125,-1.2252999544143677,-6.484999656677246,-4.3907999992370605
1702215264364682800,22.745682861328124,3.7844998836517334,-6.55019998550415,-0.12799999117851257
1702215264424682800,22.805682861328126,5.489999771118164,-6.253200054168701,2.554800033569336
1702215264484682800,22.865682861328125,4.5655999183654785,-7.44249963760376,4.510799884796143
1702215264544682800,22.925682861328124,3.281100034713745,-6.511699676513672,6.02869987487793
1702215264604682800,22.985682861328126,3.1880998611450195,-2.9911999702453613,11.071999549865723
1702215264664682800,23.045682861328125,-2.5665998458862305,-4.010799884796143,14.256799697875977
1702215264724682800,23.105682861328123,-0.7900999784469604,-9.754599571228027,2.1009998321533203
1702215264784682800,23.165682861328126,-6.4604997634887695,-7.182499885559082,3.073899984359741
1702215264844682800,23.225682861328124,-3.3902997970581055,-4.0731000900268555,3.061699867248535
1702215264904682800,23.285682861328127,-0.7256999611854553,-3.1691999435424805,3.9300999641418457
1702215264964681200,23.34568115234375,1.4155999422073364,-4.00600004196167,1.4352999925613403
1702215265024681200,23.40568115234375,2.115999937057495,-4.2393999099731445,-3.2042999267578125
1702215265084681200,23.46568115234375,2.5809998512268066,-2.5543999671936035,-7.768299579620361
1702215265144681200,23.52568115234375,3.180500030517578,0.6818000078201294,-6.682299613952637
1702215265204681200,23.58568115234375,2.744799852371216,0.23969998955726624,-6.452699661254883
1702215265264681200,23.64568115234375,3.349599838256836,-2.107100009918213,-10.724599838256836
1702215265324681200,23.70568115234375,5.362099647521973,-1.6282999515533447,-11.92609977722168
1702215265384681200,23.76568115234375,3.8798999786376953,-2.361799955368042,-6.208699703216553
1702215265444681200,23.82568115234375,-0.8343999981880188,-4.989199638366699,-4.646899700164795
1702215265504682800,23.885682861328124,0.4908999800682068,-4.255499839782715,-1.812399983406067
1702215265564682800,23.945682861328127,1.7085999250411987,-4.293699741363525,0.9835999608039856
1702215265624682800,24.005682861328125,1.7187999486923218,-5.171899795532227,2.4654998779296875
1702215265684682800,24.065682861328124,1.451799988746643,-5.656599998474121,3.216399908065796
1702215265744681200,24.12568115234375,1.023800015449524,-6.859699726104736,4.946599960327148
1702215265804681200,24.18568115234375,2.379999876022339,-5.3445000648498535,10.088600158691406
1702215265864681200,24.24568115234375,2.4622998237609863,-5.245100021362305,10.67770004272461
1702215265924681200,24.30568115234375,-0.37529999017715454,-5.9375996589660645,6.037999629974365
1702215265984681200,24.36568115234375,-2.3726999759674072,-6.257499694824219,5.908299922943115
1702215266044681200,24.42568115234375,-0.7299000024795532,-4.632999897003174,4.382499694824219
1702215266104681200,24.48568115234375,0.18389999866485596,-2.8155999183654785,2.978600025177002
1702215266164681200,24.54568115234375,-0.13509999215602875,-2.980599880218506,-0.3854999840259552
1702215266224681200,24.60568115234375,-1.236199975013733,-2.5815999507904053,-5.345399856567383
1702215266284681200,24.66568115234375,-0.850600004196167,-1.6994999647140503,-10.642199516296387
1702215266344681200,24.72568115234375,-0.2687000036239624,0.4268999993801117,-8.95319938659668
1702215266404681200,24.78568115234375,-0.8346999883651733,2.6980998516082764,-8.201499938964844
1702215266464681200,24.84568115234375,0.47279998660087585,-2.0473999977111816,-9.586099624633789
1702215266524681200,24.90568115234375,-3.4796998500823975,-4.664999961853027,-13.350199699401855
1702215266584681200,24.96568115234375,-1.604699969291687,-7.810799598693848,-4.582900047302246
1702215266644681200,25.02568115234375,1.2889000177383423,-5.6454997062683105,-0.9163999557495117
1702215266704681200,25.08568115234375,2.189499855041504,-4.269099712371826,1.726099967956543
1702215266764681200,25.14568115234375,1.1150000095367432,-4.93589973449707,3.5623998641967773
1702215266824681200,25.20568115234375,0.7760999798774719,-6.756499767303467,4.521299839019775
1702215266884681200,25.26568115234375,2.3106000423431396,-6.1153998374938965,9.260099411010742
1702215266944681200,25.32568115234375,-0.17569999396800995,-3.4004998207092285,10.618199348449707
1702215267004681200,25.38568115234375,-0.8983999490737915,-5.882599830627441,11.198199272155762
1702215267064682800,25.445682861328127,-0.04179999977350235,-8.079400062561035,5.994999885559082
1702215267124681200,25.50568115234375,-2.031399965286255,-6.302000045776367,6.042900085449219
1702215267184681200,25.56568115234375,-1.1080999374389648,-5.349999904632568,3.679799795150757
1702215267244681200,25.62568115234375,1.0342999696731567,-6.351999759674072,0.568399965763092
1702215267304682800,25.685682861328125,1.761799931526184,-6.3815999031066895,-7.427399635314941
1702215267364681200,25.74568115234375,3.383999824523926,-2.881899833679199,-7.209699630737305
1702215267424681200,25.80568115234375,1.57260000705719,1.8252999782562256,-4.346499919891357
1702215267484681200,25.86568115234375,0.568399965763092,2.646199941635132,-5.377599716186523
1702215267544681200,25.92568115234375,-0.6241999864578247,1.973099946975708,-12.831399917602539
1702215267604681200,25.98568115234375,-0.08089999854564667,5.077600002288818,-7.013000011444092
1702215267664682800,26.045682861328125,-2.694399833679199,-4.492599964141846,-16.859399795532227
1702215267724682800,26.105682861328123,-0.460999995470047,-7.678899765014648,-5.867099761962891
1702215267784681200,26.16568115234375,0.3983999788761139,-12.331399917602539,-3.705699920654297
1702215267844681200,26.22568115234375,1.9883999824523926,-10.382999420166016,-1.744499921798706
1702215267904681200,26.28568115234375,2.1777000427246094,-7.4091997146606445,2.5444998741149902
1702215267964681200,26.34568115234375,0.8443999886512756,-6.857100009918213,5.160899639129639
1702215268024681200,26.40568115234375,1.0270999670028687,-5.378200054168701,7.711599826812744
1702215268084681200,26.46568115234375,1.2412999868392944,-2.3195998668670654,12.248799324035645
1702215268144681200,26.52568115234375,-0.7635999917984009,0.3750999867916107,15.10569953918457
1702215268204681200,26.58568115234375,-2.0909998416900635,-3.3080999851226807,9.497499465942383
1702215268264681200,26.64568115234375,-1.573199987411499,-6.837199687957764,6.869699954986572
1702215268324681200,26.70568115234375,-4.319699764251709,-12.402099609375,3.8471999168395996
1702215268384682800,26.765682861328123,-3.467899799346924,-14.264100074768066,-1.4198999404907227
1702215268444682800,26.825682861328126,-0.856499969959259,-8.294699668884277,-1.2329999208450317
1702215268504682800,26.885682861328124,2.4595999717712402,-6.243000030517578,1.886699914932251
1702215268564682800,26.945682861328127,4.131400108337402,-3.6765999794006348,-1.9471999406814575
1702215268624682800,27.005682861328125,2.746799945831299,-2.40910005569458,-8.34469985961914
1702215268684682800,27.065682861328124,4.427499771118164,-0.45729997754096985,-11.217000007629395
1702215268744682800,27.125682861328126,7.784899711608887,2.972299814224243,-6.903299808502197
1702215268804682800,27.185682861328125,8.76140022277832,2.2202999591827393,-7.322099685668945
1702215268864682800,27.245682861328124,6.047800064086914,-2.990299940109253,-11.522899627685547
1702215268924682800,27.305682861328126,4.117700099945068,-4.932799816131592,-8.09119987487793
1702215268984682800,27.365682861328125,1.538699984550476,-6.410599708557129,-5.919099807739258
1702215269044682800,27.425682861328124,-1.0002000331878662,-9.713299751281738,-2.9582998752593994
1702215269104682800,27.485682861328126,-3.747299909591675,-12.88379955291748,-4.052199840545654
1702215269164682800,27.545682861328125,-0.21159999072551727,-9.511499404907227,1.5140999555587769
1702215269224681200,27.60568115234375,1.3039000034332275,-8.478099822998047,5.4589996337890625
1702215269284681200,27.66568115234375,1.0231999158859253,-8.213600158691406,8.107699394226074
1702215269344681200,27.72568115234375,0.8985999822616577,-6.054599761962891,10.67140007019043
1702215269404681200,27.78568115234375,0.08749999850988388,-4.009900093078613,13.206999778747559
1702215269464681200,27.84568115234375,1.2180999517440796,-4.261499881744385,11.66919994354248
1702215269524681200,27.90568115234375,-0.7185999751091003,-6.297800064086914,10.105999946594238
1702215269584681200,27.96568115234375,-0.43199998140335083,-9.910999298095703,6.734899997711182
1702215269644681200,28.02568115234375,-4.817800045013428,-14.949899673461914,2.7421000003814697
1702215269704681200,28.08568115234375,-3.9702999591827393,-14.166299819946289,-4.2967000007629395
1702215269764681200,28.14568115234375,1.9395999908447266,-7.207299709320068,-3.22409987449646
1702215269824682800,28.205682861328125,1.277999997138977,-2.613499879837036,-1.82069993019104
1702215269884682800,28.265682861328123,0.7881999611854553,-1.7810999155044556,-4.2581000328063965
1702215269944682800,28.325682861328126,2.283799886703491,-1.910099983215332,-9.071599960327148
1702215270004681200,28.38568115234375,6.693699836730957,0.5730999708175659,-10.064399719238281
1702215270064681200,28.44568115234375,7.155099868774414,1.6552999019622803,-9.260499954223633
1702215270124681200,28.50568115234375,3.885499954223633,-4.503799915313721,-14.458199501037598
1702215270184681200,28.56568115234375,3.081199884414673,-5.2947998046875,-10.736299514770508
1702215270244681200,28.62568115234375,3.1584999561309814,-3.598099946975708,-2.453399896621704
1702215270304681200,28.68568115234375,-1.6420999765396118,-10.880999565124512,-4.524399757385254
1702215270364681200,28.74568115234375,-5.333099842071533,-10.781399726867676,-2.9515998363494873
1702215270424682800,28.805682861328126,1.301800012588501,-8.754400253295898,1.896299958229065
1702215270484682800,28.865682861328125,3.1019999980926514,-8.057600021362305,5.138099670410156
1702215270544681200,28.92568115234375,3.9507999420166016,-6.482199668884277,10.427199363708496
1702215270604681200,28.98568115234375,4.828499794006348,-4.627799987792969,10.769899368286133
1702215270664682800,29.045682861328125,2.593899965286255,-5.903199672698975,10.631799697875977
1702215270724682800,29.105682861328123,3.639699935913086,-4.837100028991699,10.02769947052002
1702215270784682800,29.165682861328126,0.46869999170303345,-9.223599433898926,7.392199993133545
1702215270844682800,29.225682861328124,-1.8346999883651733,-9.104999542236328,3.775399923324585
1702215270904681200,29.28568115234375,-3.2411999702453613,-11.07289981842041,2.421799898147583
1702215270964681200,29.34568115234375,-1.753600001335144,-9.836099624633789,1.1137999296188354
1702215271024682800,29.405682861328124,1.2877999544143677,-7.349599838256836,-0.1516999900341034
1702215271084682800,29.465682861328126,1.1927999258041382,-5.15179967880249,-4.20989990234375
1702215271144682800,29.525682861328125,1.0680999755859375,-2.784799814224243,-8.513999938964844
1702215271204682800,29.585682861328124,2.792799949645996,-0.19999998807907104,-8.31719970703125
1702215271264682800,29.645682861328126,3.966899871826172,2.637199878692627,-8.756999969482422
1702215271324682800,29.705682861328125,2.6407999992370605,1.0476999282836914,-9.755799293518066
1702215271384681200,29.76568115234375,1.4965999126434326,-0.724399983882904,-9.300600051879883
1702215271444682800,29.825682861328126,2.262199878692627,-3.372299909591675,-7.452999591827393
1702215271504682800,29.885682861328124,0.07829999923706055,-1.5184999704360962,-8.977099418640137
1702215271564682800,29.945682861328127,-0.3012999892234802,-3.559799909591675,-3.650099992752075
1702215271624682800,30.005682861328125,-0.25279998779296875,-6.349499702453613,-2.0771000385284424
1702215271684682800,30.065682861328124,0.6168000102043152,-6.802199840545654,-1.4361000061035156
1702215271744682800,30.125682861328126,1.7286999225616455,-6.102099895477295,1.215399980545044
1702215271804682800,30.185682861328125,1.7969999313354492,-6.913399696350098,3.8501999378204346
1702215271864682800,30.245682861328124,1.713499903678894,-6.967399597167969,6.720699787139893
1702215271924682800,30.305682861328126,1.330899953842163,-5.298500061035156,11.360499382019043
1702215271984682800,30.365682861328125,-1.1822999715805054,-7.213899612426758,13.639199256896973
1702215272044682800,30.425682861328124,0.4307999908924103,-8.274499893188477,6.180599689483643
1702215272104682800,30.485682861328126,-0.24210000038146973,-8.684999465942383,5.857699871063232
1702215272164682800,30.545682861328125,0.17710000276565552,-7.213099956512451,4.194699764251709
1702215272224682800,30.605682861328123,0.647599995136261,-5.160099983215332,2.1180999279022217
1702215272284682800,30.665682861328126,0.5566999912261963,-4.01200008392334,-2.1399998664855957
1702215272344682800,30.725682861328124,-0.376800000667572,-2.666599988937378,-7.326900005340576
1702215272404682800,30.785682861328127,1.5259000062942505,-0.25669997930526733,-6.0441999435424805
1702215272464682800,30.845682861328125,1.5815999507904053,0.9965999722480774,-6.793399810791016
1702215272524682800,30.905682861328124,0.31139999628067017,0.9479999542236328,-8.456099510192871
1702215272584682800,30.965682861328126,-0.11620000004768372,-2.8160998821258545,-12.407599449157715
1702215272644682800,31.025682861328125,0.6873999834060669,-2.3143999576568604,-9.8503999710083
1702215272704682800,31.085682861328124,0.5026000142097473,-2.628000020980835,-3.9614999294281006
1702215272764682800,31.145682861328126,-1.32069993019104,-4.871200084686279,-2.513700008392334
1702215272824682800,31.205682861328125,0.08419999480247498,-3.5934998989105225,0.17759999632835388
1702215272884682800,31.265682861328123,0.7989999651908875,-3.169600009918213,2.7812998294830322
1702215272944682800,31.325682861328126,-0.8137999773025513,-3.325500011444092,4.293799877166748
1702215273004682800,31.385682861328124,1.8507999181747437,-5.118499755859375,4.595999717712402
1702215273064682800,31.445682861328127,2.820499897003174,-5.240900039672852,5.0903000831604
1702215273124682800,31.505682861328125,2.4147000312805176,-4.65779972076416,6.6143999099731445
1702215273184682800,31.565682861328124,1.7496999502182007,-3.9878997802734375,7.400599956512451
1702215273244682800,31.625682861328126,1.958899974822998,-4.082200050354004,7.116199970245361
1702215273304682800,31.685682861328125,-0.39800000190734863,-5.398200035095215,5.468199729919434
1702215273364682800,31.745682861328124,0.25779998302459717,-6.644099712371826,4.465399742126465
1702215273424681200,31.80568115234375,2.193699836730957,-5.7139997482299805,1.2742999792099
1702215273484682800,31.865682861328125,1.805299997329712,-4.75600004196167,-1.9138998985290527
1702215273544682800,31.925682861328124,-1.0318999290466309,-3.077399969100952,-8.515799522399902
1702215273604682800,31.985682861328126,-1.973699927330017,0.5281000137329102,-10.228399276733398
1702215273664682800,32.045682861328125,-2.4998998641967773,3.091399908065796,-7.052299976348877
1702215273724682800,32.10568286132813,-4.40369987487793,0.26909998059272766,-9.661799430847168
1702215273784682800,32.16568286132812,-4.825599670410156,-1.8514999151229858,-10.079500198364258
1702215273844681200,32.22568115234375,-2.921299934387207,-3.542099952697754,-8.848299980163574
1702215273904681200,32.28568115234375,-1.9266999959945679,-2.6796000003814697,-4.472399711608887
1702215273964681200,32.34568115234375,0.7357999682426453,-5.161200046539307,-1.3142999410629272
1702215274024681200,32.40568115234375,0.18719999492168427,-5.684000015258789,-2.646199941635132
1702215274084682800,32.465682861328126,2.1663999557495117,-5.708199977874756,-1.632699966430664
1702215274144682800,32.52568286132812,4.121200084686279,-6.208899974822998,1.2631999254226685
1702215274204682800,32.585682861328124,5.655299663543701,-5.689799785614014,2.548099994659424
1702215274264682800,32.645682861328126,6.588799953460693,-5.995800018310547,5.122499942779541
1702215274324682800,32.70568286132813,6.803899765014648,-3.6297998428344727,11.09999942779541
1702215274384682800,32.76568286132812,2.8770999908447266,-6.710599899291992,10.714099884033203
1702215274444682800,32.825682861328126,1.5650999546051025,-8.869099617004395,5.467199802398682
1702215274504682800,32.88568286132813,-3.462899923324585,-8.751199722290039,2.5590999126434326
1702215274564709400,32.94570947265625,-0.1679999977350235,-6.687299728393555,3.443199872970581
1702215274624682800,33.005682861328125,2.1566998958587646,-3.836599826812744,2.5837998390197754
1702215274684682800,33.06568286132813,1.8994998931884766,-2.874799966812134,-0.48639997839927673
1702215274744682800,33.12568286132812,0.03179999813437462,-3.4955999851226807,-5.470200061798096
1702215274804682800,33.185682861328125,-1.0370999574661255,-2.4250998497009277,-9.463099479675293
1702215274864682800,33.24568286132813,-0.35929998755455017,1.3782999515533447,-6.775699615478516
1702215274924682800,33.30568286132812,-2.3046998977661133,-0.6987000107765198,-7.6118998527526855
1702215274984682800,33.365682861328125,-2.9845998287200928,-1.357100009918213,-10.206399917602539
1702215275044682800,33.42568286132813,-1.4532999992370605,0.6985999941825867,-6.3582000732421875
1702215275104682800,33.48568286132812,-2.015899896621704,-0.750499963760376,-4.417099952697754
1702215275164682800,33.545682861328125,-5.608999729156494,-4.11929988861084,-6.105899810791016
1702215275224681200,33.60568115234375,-0.5931999683380127,-3.2186999320983887,-3.2814998626708984
1702215275284681200,33.66568115234375,3.1110999584198,-2.503999948501587,-0.7272999882698059
1702215275344682800,33.725682861328124,3.2428998947143555,-3.8227999210357666,0.17019999027252197
1702215275404682800,33.78568286132813,3.1885998249053955,-5.244100093841553,0.10799999535083771
1702215275464682800,33.84568286132812,4.3225998878479,-5.520400047302246,1.0051000118255615
1702215275524682800,33.905682861328124,5.288300037384033,-4.293499946594238,4.8531999588012695
1702215275584682800,33.965682861328126,4.209499835968018,-7.738799571990967,10.542299270629883
1702215275644682800,34.02568286132812,3.538100004196167,-7.739899635314941,9.085999488830566
1702215275704682800,34.085682861328124,2.178499937057495,-7.927099704742432,6.503499984741211
1702215275764682800,34.145682861328126,0.4189999997615814,-4.273499965667725,4.6149001121521
1702215275824682800,34.20568286132813,-0.44269999861717224,-2.3661999702453613,2.6917998790740967
1702215275884682800,34.26568286132812,1.1358000040054321,-3.731299877166748,-0.7544999718666077
1702215275944682800,34.325682861328126,0.5194999575614929,-4.429299831390381,-7.961899757385254
1702215276004682800,34.38568286132813,-2.5779998302459717,-2.7510998249053955,-10.290499687194824
1702215276064682800,34.44568286132812,-5.332599639892578,-0.5049999952316284,-8.329500198364258
1702215276124682800,34.505682861328125,-5.602399826049805,3.474799871444702,-6.0752997398376465
1702215276184682800,34.56568286132813,-6.519199848175049,-2.5648999214172363,-9.60159969329834
1702215276244682800,34.62568286132812,-9.316899299621582,-6.444699764251709,-9.82289981842041
1702215276304682800,34.685682861328125,-3.316699981689453,-10.152599334716797,-4.7170000076293945
1702215276364682800,34.74568286132813,3.010699987411499,-6.293699741363525,-1.0533000230789185
1702215276424682800,34.80568286132812,4.813699722290039,-4.296599864959717,1.8686000108718872
1702215276484682800,34.865682861328125,4.246200084686279,-4.818399906158447,3.907899856567383
1702215276544682800,34.92568286132813,3.8890998363494873,-5.654099941253662,2.286099910736084
1702215276604682800,34.98568286132812,4.9228997230529785,-4.781199932098389,3.545599937438965
1702215276664682800,35.045682861328125,7.3237996101379395,-4.77839994430542,9.40530014038086
1702215276724682800,35.10568286132813,4.161299705505371,-4.991799831390381,10.023599624633789
1702215276784682800,35.16568286132812,4.562399864196777,-8.419400215148926,7.645099639892578
1702215276844682800,35.225682861328124,1.761299967765808,-11.163599967956543,1.8295999765396118
1702215276904682800,35.28568286132813,-1.2168999910354614,-6.3815999031066895,-0.13599999248981476
1702215276964682800,35.34568286132812,-0.558899998664856,-2.099799871444702,-1.1198999881744385
1702215277024682800,35.405682861328124,-1.6383999586105347,-1.4644999504089355,-2.424799919128418
1702215277084682800,35.465682861328126,-2.0653998851776123,-1.8519999980926514,-5.696599960327148
1702215277144682800,35.52568286132812,-1.9357999563217163,2.122499942779541,-7.734699726104736
1702215277204682800,35.585682861328124,-2.8636999130249023,0.9289000034332275,-6.727599620819092
1702215277264682800,35.645682861328126,-8.018699645996094,-2.605599880218506,-11.840399742126465
1702215277324682800,35.70568286132813,-4.844599723815918,-3.012399911880493,-8.662799835205078
1702215277384682800,35.76568286132812,-1.535599946975708,-0.20189999043941498,-4.39739990234375
1702215277444682800,35.825682861328126,-1.3767999410629272,-4.875,-3.0018999576568604
1702215277504682800,35.88568286132813,-3.0404000282287598,-6.892099857330322,-4.654699802398682
1702215277564682800,35.94568286132812,0.8068000078201294,-5.321700096130371,-1.5475000143051147
1702215277624682800,36.005682861328125,3.959699869155884,-5.01069974899292,1.8068000078201294
1702215277684682800,36.06568286132813,5.49459981918335,-5.51669979095459,4.056299686431885
1702215277744682800,36.12568286132812,6.152599811553955,-4.598499774932861,5.557199954986572
1702215277804682800,36.185682861328125,7.489899635314941,-5.190700054168701,9.230299949645996
1702215277864682800,36.24568286132813,4.785399913787842,-4.940799713134766,8.421299934387207
1702215277924682800,36.30568286132812,2.577899932861328,-8.111700057983398,6.8202996253967285
1702215277984682800,36.365682861328125,3.5010998249053955,-11.38129997253418,1.573799967765808
1702215278044682800,36.42568286132813,1.4686999320983887,-7.2769999504089355,0.7164999842643738
1702215278104682800,36.48568286132812,1.3874999284744263,-2.886199951171875,-0.2655999958515167
1702215278164682800,36.545682861328125,-0.824999988079071,-2.041100025177002,-1.7888000011444092
1702215278224682800,36.60568286132813,-2.5585999488830566,-2.839599847793579,-5.650000095367432
1702215278284682800,36.66568286132812,-2.0232999324798584,-1.8756999969482422,-9.639900207519531
1702215278344682800,36.725682861328124,-1.7354999780654907,1.6444000005722046,-8.13070011138916
1702215278404682800,36.78568286132813,-6.614899635314941,0.17099998891353607,-9.410999298095703
1702215278464682800,36.84568286132812,-7.843199729919434,-3.5080997943878174,-11.503299713134766
1702215278524682800,36.905682861328124,-3.608599901199341,-1.9124000072479248,-7.462800025939941
1702215278584682800,36.965682861328126,-0.39100000262260437,-3.920799970626831,-2.0170998573303223
1702215278644682800,37.02568286132812,2.5167999267578125,-8.527299880981445,-2.2244999408721924
1702215278704682800,37.085682861328124,-1.709999918937683,-4.476200103759766,-1.399399995803833
1702215278764682800,37.145682861328126,2.7187998294830322,-2.597399950027466,0.5317999720573425
1702215278824682800,37.20568286132813,4.211400032043457,-1.784999966621399,1.8887999057769775
1702215278884682800,37.26568286132812,4.613500118255615,-3.319999933242798,1.9685999155044556
1702215278944682800,37.325682861328126,5.640999794006348,-4.865499973297119,2.36929988861084
1702215279004682800,37.38568286132813,8.251199722290039,-5.752999782562256,5.714699745178223
1702215279064682800,37.44568286132812,8.911700248718262,-6.996199607849121,7.934499740600586
1702215279124682800,37.505682861328125,5.384099960327148,-9.961099624633789,4.242499828338623
1702215279184682800,37.56568286132813,-2.842900037765503,-8.1181001663208,3.045099973678589
1702215279244682800,37.62568286132812,-3.046599864959717,-4.553400039672852,0.40849998593330383
1702215279304682800,37.685682861328125,-0.4068000018596649,-1.9198999404907227,0.60589998960495
1702215279364682800,37.74568286132813,0.05719999969005585,-0.44020000100135803,-0.25759997963905334
1702215279424682800,37.80568286132812,-0.4830999970436096,-0.35510000586509705,-1.8765000104904175
1702215279484682800,37.865682861328125,-0.31200000643730164,-0.08639999479055405,-3.6194000244140625
1702215279544682800,37.92568286132813,-2.1141998767852783,-0.03449999913573265,-7.0355000495910645
1702215279604682800,37.98568286132812,-5.330899715423584,-0.030299998819828033,-7.832699775695801
1702215279664682800,38.045682861328125,-5.5493998527526855,0.37779998779296875,-7.412299633026123
1702215279724682800,38.10568286132813,-4.952199935913086,0.36169999837875366,-6.751699924468994
1702215279784682800,38.16568286132812,-5.333199977874756,-6.151299953460693,-7.019499778747559
1702215279844682800,38.225682861328124,-2.3989999294281006,-8.314199447631836,-5.741299629211426
1702215279904682800,38.28568286132813,2.754699945449829,-4.877299785614014,-0.7312999963760376
1702215279964682800,38.34568286132812,4.04449987411499,-3.6487998962402344,2.306999921798706
1702215280024682800,38.405682861328124,3.5209999084472656,-4.122099876403809,4.130899906158447
1702215280084682800,38.465682861328126,2.789599895477295,-5.077399730682373,6.269499778747559
1702215280144682800,38.52568286132812,4.06279993057251,-3.513899803161621,11.808899879455566
1702215280204682800,38.585682861328124,4.579599857330322,-4.4604997634887695,10.38659954071045
1702215280264682800,38.645682861328126,3.491799831390381,-9.31029987335205,6.134999752044678
1702215280324682800,38.70568286132813,2.509199857711792,-9.440400123596191,1.8743999004364014
1702215280384682800,38.76568286132812,2.1401000022888184,-7.29509973526001,1.56659996509552
1702215280444682800,38.825682861328126,1.934899926185608,-4.332600116729736,-0.0031999999191612005
1702215280504682800,38.88568286132813,-0.010699999518692493,-3.2455999851226807,-3.3720998764038086
1702215280564682800,38.94568286132812,-1.5709999799728394,-2.2246999740600586,-7.366299629211426
1702215280624682800,39.005682861328125,0.6053999662399292,-1.0957999229431152,-8.460800170898438
1702215280684682800,39.06568286132813,-6.940199851989746,-2.879699945449829,-10.955399513244629
1702215280744682800,39.12568286132812,-15.15939998626709,-0.895799994468689,-13.49739933013916
1702215280804682800,39.185682861328125,-11.811100006103516,-2.415799856185913,-10.281099319458008
1702215280864682800,39.24568286132813,-3.6068999767303467,-9.218500137329102,-7.658699989318848
1702215280924682800,39.30568286132812,1.1065999269485474,-7.8177995681762695,-5.919899940490723
1702215280984682800,39.365682861328125,2.8976998329162598,-6.240200042724609,-2.033099889755249
1702215281044682800,39.42568286132813,2.2583999633789062,-6.622099876403809,-0.06669999659061432
1702215281104682800,39.48568286132812,4.5578999519348145,-8.477999687194824,1.2609000205993652
1702215281164682800,39.545682861328125,6.7963995933532715,-9.277299880981445,4.399099826812744
1702215281224682800,39.60568286132813,9.885600090026855,-7.45229959487915,8.400199890136719
1702215281284682800,39.66568286132812,6.383800029754639,-7.875499725341797,9.543499946594238
1702215281344682800,39.725682861328124,5.681299686431885,-9.552899360656738,5.556600093841553
1702215281404682800,39.78568286132813,3.2448999881744385,-7.813799858093262,3.005699872970581
1702215281464682800,39.84568286132812,3.026099920272827,-5.945799827575684,2.4763998985290527
1702215281524682800,39.905682861328124,1.1485999822616577,-6.03909969329834,0.8980000019073486
1702215281584682800,39.965682861328126,-2.645400047302246,-7.308399677276611,-6.09559965133667
1702215281644682800,40.02568286132812,-5.175899982452393,-4.377799987792969,-11.275300025939941
1702215281704682800,40.085682861328124,-5.989799976348877,0.2671999931335449,-7.86329984664917
1702215281764682800,40.145682861328126,-8.727899551391602,1.2486000061035156,-11.466499328613281
1702215281824682800,40.20568286132813,-7.762599945068359,-1.0539000034332275,-10.567299842834473
1702215281884682800,40.26568286132812,-7.190899848937988,-1.968400001525879,-10.355999946594238
1702215281944682800,40.325682861328126,-5.061299800872803,-6.832699775695801,-6.900599956512451
1702215282004682800,40.38568286132813,0.041600000113248825,-7.152599811553955,-4.636300086975098
1702215282064682800,40.44568286132812,3.1698999404907227,-7.094599723815918,-1.1434999704360962
1702215282124682800,40.505682861328125,2.9830000400543213,-7.947299957275391,0.873699963092804
1702215282184682800,40.56568286132813,3.0142998695373535,-8.387199401855469,1.5677999258041382
1702215282244682800,40.62568286132812,6.160399913787842,-5.442800045013428,7.143699645996094
1702215282304682800,40.685682861328125,7.180799961090088,-4.3206000328063965,12.394599914550781
1702215282364682800,40.74568286132813,4.857100009918213,-4.539799690246582,11.383899688720703
1702215282424682800,40.80568286132812,1.0658999681472778,-8.432999610900879,9.04539966583252
1702215282484682800,40.865682861328125,0.4722999930381775,-11.248799324035645,4.670199871063232
1702215282544682800,40.92568286132813,-0.3212999999523163,-8.347000122070312,3.1926000118255615
1702215282604682800,40.98568286132812,1.2049000263214111,-5.467499732971191,1.920799970626831
1702215282664682800,41.045682861328125,0.3105999827384949,-4.570099830627441,-1.6793999671936035
1702215282724682800,41.10568286132813,-0.7664999961853027,-4.817500114440918,-7.023099899291992
1702215282784682800,41.16568286132812,-0.8068000078201294,-2.2707998752593994,-8.813199996948242
1702215282844682800,41.225682861328124,-1.7472000122070312,-0.5704999566078186,-11.106199264526367
1702215282904682800,41.28568286132813,-2.0095999240875244,-0.2945999801158905,-13.051300048828125
1702215282964682800,41.34568286132812,-0.012199999764561653,-0.9855999946594238,-10.75979995727539
1702215283024682800,41.405682861328124,-2.929499864578247,-1.4483000040054321,-9.483699798583984
1702215283084682800,41.465682861328126,-4.93120002746582,-9.08449935913086,-7.830399990081787
1702215283144682800,41.52568286132812,-0.897599995136261,-8.987799644470215,-3.772899866104126
1702215283204682800,41.585682861328124,3.3613998889923096,-7.394499778747559,1.0819000005722046
1702215283264682800,41.645682861328126,3.5642998218536377,-6.579699993133545,4.243199825286865
1702215283324682800,41.70568286132813,3.2142999172210693,-6.711099624633789,5.221499919891357
1702215283384682800,41.76568286132812,4.231499671936035,-5.018199920654297,6.695099830627441
1702215283444682800,41.825682861328126,5.546999931335449,-4.905699729919434,11.748299598693848
1702215283504682800,41.88568286132813,2.090100049972534,-5.896399974822998,9.427199363708496
1702215283564682800,41.94568286132812,3.64139986038208,-9.011499404907227,7.808399677276611
1702215283624681200,42.00568115234375,0.6403999924659729,-7.660599708557129,3.5302999019622803
1702215283684682800,42.06568286132813,1.243299961090088,-9.025300025939941,2.271199941635132
1702215283744682800,42.12568286132812,-0.3146999776363373,-7.129199981689453,-2.1658999919891357
1702215283804682800,42.185682861328125,-0.7507999539375305,-3.084199905395508,-6.246500015258789
1702215283864682800,42.24568286132813,-1.5277999639511108,0.27399998903274536,-3.6450998783111572
1702215283924682800,42.30568286132812,-1.9438999891281128,0.8136999607086182,-3.9258999824523926
1702215283984682800,42.365682861328125,-1.5613999366760254,1.3431999683380127,-6.6468000411987305
1702215284044682800,42.42568286132813,-2.61080002784729,-0.025999998673796654,-8.626599311828613
1702215284104682800,42.48568286132812,-5.8628997802734375,-0.30329999327659607,-8.026100158691406
1702215284164682800,42.545682861328125,-4.211599826812744,-2.9519999027252197,-6.910799980163574
1702215284224682800,42.60568286132813,-2.8959999084472656,-2.1427998542785645,-6.648299694061279
1702215284284682800,42.66568286132812,-0.8021000027656555,-4.009399890899658,-1.663599967956543
1702215284344682800,42.725682861328124,-0.628600001335144,-5.337199687957764,-0.30979999899864197
1702215284404682800,42.78568286132813,0.3253999948501587,-3.813499927520752,-0.8264999985694885
1702215284464682800,42.84568286132812,1.6456999778747559,-3.8107998371124268,0.981499969959259
1702215284524682800,42.905682861328124,2.6569998264312744,-4.952399730682373,3.254999876022339
1702215284584682800,42.965682861328126,4.592499732971191,-4.871999740600586,4.942899703979492
1702215284644682800,43.02568286132812,5.503999710083008,-4.283299922943115,7.520599842071533
1702215284704682800,43.085682861328124,5.749499797821045,-3.7967000007629395,10.467100143432617
1702215284764682800,43.145682861328126,3.5040998458862305,-8.160300254821777,7.7042999267578125
1702215284824682800,43.20568286132813,3.926299810409546,-7.605000019073486,2.9870998859405518
1702215284884682800,43.26568286132812,1.5616999864578247,-6.476500034332275,1.6775999069213867
1702215284944682800,43.325682861328126,1.0120999813079834,-5.452399730682373,1.0425999164581299
1702215285004682800,43.38568286132813,0.8150999546051025,-3.6671998500823975,-2.166800022125244
1702215285064682800,43.44568286132812,-0.48989999294281006,-3.6902999877929688,-6.918999671936035
1702215285124682800,43.505682861328125,-0.976099967956543,-1.6983000040054321,-8.848099708557129
1702215285184682800,43.56568286132813,-1.1253999471664429,1.587399959564209,-6.429299831390381
1702215285244682800,43.62568286132812,-3.707899808883667,-0.2676999866962433,-7.6113996505737305
1702215285304682800,43.685682861328125,-7.081599712371826,-2.678299903869629,-12.038199424743652
1702215285364682800,43.74568286132813,-4.5401997566223145,-2.0406999588012695,-7.919299602508545
1702215285424682800,43.80568286132812,-6.353999614715576,-1.472000002861023,-5.235599994659424
1702215285484682800,43.865682861328125,-4.8130998611450195,-6.986000061035156,-4.889699935913086
1702215285544682800,43.92568286132813,0.46889999508857727,-7.678400039672852,-1.5370999574661255
1702215285604682800,43.98568286132812,3.3945999145507812,-6.547699928283691,2.7269999980926514
1702215285664682800,44.045682861328125,0.9975000023841858,-6.609999656677246,5.12999963760376
1702215285724682800,44.10568286132813,0.8917999863624573,-5.495599746704102,6.1078996658325195
1702215285784682800,44.16568286132812,3.1308000087738037,-3.3852999210357666,9.317599296569824
1702215285844682800,44.225682861328124,-0.31779998540878296,-2.341599941253662,11.68489933013916
1702215285904682800,44.28568286132813,-1.7556999921798706,-6.241199970245361,9.760600090026855
1702215285964682800,44.34568286132812,-1.993399977684021,-7.739299774169922,6.147899627685547
1702215286024682800,44.405682861328124,-2.071199893951416,-9.328700065612793,4.139999866485596
1702215286084682800,44.465682861328126,-1.4043999910354614,-7.538699626922607,1.9027999639511108
1702215286144682800,44.52568286132812,-1.164199948310852,-3.941200017929077,-1.6718000173568726
1702215286204682800,44.585682861328124,-2.167799949645996,-1.237299919128418,-2.2032999992370605
1702215286264682800,44.645682861328126,1.2692999839782715,-2.391899824142456,-4.363500118255615
1702215286324682800,44.70568286132813,4.611000061035156,-1.9847999811172485,-7.322999954223633
1702215286384682800,44.76568286132812,6.645199775695801,0.37950000166893005,-9.177199363708496
1702215286444682800,44.825682861328126,4.172999858856201,-0.6693999767303467,-9.539899826049805
1702215286504682800,44.88568286132813,4.651599884033203,-0.11180000007152557,-6.533299922943115
1702215286564682800,44.94568286132812,4.135499954223633,-1.8738999366760254,-7.151599884033203
1702215286624682800,45.005682861328125,0.597599983215332,-7.204099655151367,-7.610199928283691
1702215286684682800,45.06568286132813,-0.21609999239444733,-10.090700149536133,-3.3912999629974365
1702215286744682800,45.12568286132812,0.2726999819278717,-6.9253997802734375,0.9607999920845032
1702215286804682800,45.185682861328125,-1.8161998987197876,-5.382699966430664,4.469299793243408
1702215286864682800,45.24568286132813,-2.568199872970581,-4.779299736022949,5.851099967956543
1702215286924682800,45.30568286132812,-1.6631999015808105,-5.058000087738037,7.751499652862549
1702215286984682800,45.365682861328125,-0.8506999611854553,-3.6487998962402344,11.192099571228027
1702215287044682800,45.42568286132813,-0.8955000042915344,-2.5744998455047607,11.325699806213379
1702215287104682800,45.48568286132812,-2.659099817276001,-4.929699897766113,9.134599685668945
1702215287164682800,45.545682861328125,-3.3046000003814697,-6.569799900054932,6.941799640655518
1702215287224682800,45.60568286132813,-1.3679999113082886,-10.467999458312988,4.685800075531006
1702215287284682800,45.66568286132812,0.5295000076293945,-10.898699760437012,1.9027999639511108
1702215287344682800,45.725682861328124,1.621899962425232,-6.9268999099731445,-1.1775000095367432
1702215287404682800,45.78568286132813,-0.2920999825000763,-4.700099945068359,-1.0210000276565552
1702215287464682800,45.84568286132812,2.419800043106079,-3.6201999187469482,0.7567999958992004
1702215287524682800,45.905682861328124,7.1793999671936035,-5.162600040435791,-2.0880000591278076
1702215287584682800,45.965682861328126,12.124899864196777,-9.224100112915039,-14.520699501037598
1702215287644682800,46.02568286132812,10.908599853515625,-5.916100025177002,-13.912300109863281
1702215287704682800,46.085682861328124,1.2781000137329102,-1.309000015258789,-11.332900047302246
1702215287764682800,46.145682861328126,-0.19599999487400055,-2.381500005722046,-9.69159984588623
1702215287824682800,46.20568286132813,-1.0160000324249268,-11.388099670410156,-9.00629997253418
1702215287884682800,46.26568286132812,0.7015999555587769,-12.206099510192871,-3.546999931335449
1702215287944682800,46.325682861328126,-1.7014999389648438,-9.270299911499023,3.2170000076293945
1702215288004682800,46.38568286132813,-0.7752999663352966,-7.268599987030029,5.526599884033203
1702215288064682800,46.44568286132812,0.461899995803833,-6.956899642944336,6.9492998123168945
1702215288124682800,46.505682861328125,1.7531999349594116,-5.853099822998047,8.448800086975098
1702215288184682800,46.56568286132813,3.359799861907959,-2.8351998329162598,13.603300094604492
1702215288244682800,46.62568286132812,1.8183999061584473,-3.337100028991699,11.471699714660645
1702215288304682800,46.685682861328125,-3.182999849319458,-6.507899761199951,9.34019947052002
1702215288364682800,46.74568286132813,-1.2214000225067139,-7.932499885559082,7.822499752044678
1702215288424682800,46.80568286132812,-2.543099880218506,-9.060400009155273,3.163599967956543
1702215288484682800,46.865682861328125,-2.469099998474121,-8.73289966583252,2.521699905395508
1702215288544682800,46.92568286132813,-0.5205999612808228,-6.583499908447266,0.7374999523162842
1702215288604682800,46.98568286132812,-3.2560999393463135,-5.286299705505371,-4.738399982452393
1702215288664682800,47.045682861328125,0.5263000130653381,-3.733799934387207,-8.628899574279785
1702215288724682800,47.10568286132813,3.9445998668670654,-1.0770000219345093,-8.455399513244629
1702215288784681200,47.16568115234375,4.090399742126465,-1.7032999992370605,-13.352399826049805
1702215288844682800,47.225682861328124,6.111499786376953,-1.0170999765396118,-14.31619930267334
1702215288904682800,47.28568286132813,4.384599685668945,-3.8413000106811523,-11.919499397277832
1702215288964682800,47.34568286132812,1.8572999238967896,-6.507199764251709,-10.723499298095703
1702215289024682800,47.405682861328124,-0.8096999526023865,-12.928299903869629,-5.310299873352051
1702215289084682800,47.465682861328126,-0.7555999755859375,-10.132699966430664,-1.897499918937683
1702215289144682800,47.52568286132812,1.3429999351501465,-7.818899631500244,3.1566998958587646
1702215289204682800,47.585682861328124,-0.38179999589920044,-7.644799709320068,5.603699684143066
1702215289264682800,47.645682861328126,-1.0810999870300293,-8.108099937438965,6.3592000007629395
1702215289324682800,47.70568286132813,1.4523999691009521,-6.79040002822876,9.473599433898926
1702215289384682800,47.76568286132812,2.023900032043457,-4.670000076293945,12.601799964904785
1702215289444682800,47.825682861328126,-1.0384999513626099,-5.051599979400635,11.835100173950195
1702215289504682800,47.88568286132813,-1.4327999353408813,-7.820799827575684,8.333999633789062
1702215289564709400,47.94570947265625,-5.103499889373779,-8.70669937133789,5.639499664306641
1702215289624682800,48.005682861328125,-1.205399990081787,-7.813499927520752,5.195499897003174
1702215289684682800,48.06568286132813,-0.24009999632835388,-6.319399833679199,2.9772000312805176
1702215289744682800,48.12568286132812,-0.08729999512434006,-6.1753997802734375,-1.7167999744415283
1702215289804682800,48.185682861328125,-1.34089994430542,-5.147900104522705,-8.322699546813965
1702215289864682800,48.24568286132813,0.8689999580383301,-2.036099910736084,-8.914599418640137
1702215289924682800,48.30568286132812,1.31659996509552,1.327799916267395,-8.754499435424805
1702215289984682800,48.365682861328125,0.1445000022649765,-0.7788999676704407,-14.564199447631836
1702215290044682800,48.42568286132813,2.0434000492095947,-1.673200011253357,-11.641399383544922
1702215290104682800,48.48568286132812,2.361299991607666,-1.9855999946594238,-10.282699584960938
1702215290164682800,48.545682861328125,0.5335000157356262,-5.384799957275391,-6.945499897003174
1702215290224682800,48.60568286132813,-2.261699914932251,-10.975799560546875,-4.82349967956543
1702215290284682800,48.66568286132812,-0.7620999813079834,-7.544899940490723,-0.08159999549388885
1702215290344682800,48.725682861328124,2.0223000049591064,-5.842099666595459,3.4068000316619873
1702215290404682800,48.78568286132813,1.6032999753952026,-5.289400100708008,6.141599655151367
1702215290464682800,48.84568286132812,0.847599983215332,-5.213399887084961,7.091799736022949
1702215290524682800,48.905682861328124,2.034600019454956,-4.105899810791016,10.245999336242676
1702215290584682800,48.965682861328126,0.6505999565124512,-4.183000087738037,12.550600051879883
1702215290644682800,49.02568286132812,-2.850399971008301,-7.306099891662598,11.16879940032959
1702215290704682800,49.085682861328124,0.05509999766945839,-9.748700141906738,7.542299747467041
1702215290764682800,49.145682861328126,-1.343400001525879,-11.259299278259277,2.8777999877929688
1702215290824682800,49.20568286132813,-1.539099931716919,-6.492499828338623,0.35259997844696045
1702215290884682800,49.26568286132812,-1.055999994277954,-3.3847999572753906,-2.699199914932251
1702215290944751400,49.32575146484375,-0.8536999821662903,-2.518699884414673,-4.365900039672852
1702215291004682800,49.38568286132813,0.5439000129699707,-2.1194000244140625,-6.591599941253662
1702215291064682800,49.44568286132812,2.868799924850464,0.21639999747276306,-7.6743998527526855
1702215291124682800,49.505682861328125,2.437700033187866,-1.3882999420166016,-12.710099220275879
1702215291184682800,49.56568286132813,-0.7031999826431274,-1.1541999578475952,-11.737699508666992
1702215291244682800,49.62568286132812,-1.597599983215332,-2.3058998584747314,-12.041799545288086
1702215291304682800,49.685682861328125,-0.7455999851226807,-1.622999906539917,-5.938199996948242
1702215291364682800,49.74568286132813,-2.455699920654297,-9.228599548339844,-2.1389000415802
1702215291424682800,49.80568286132812,-2.1287999153137207,-8.464399337768555,-4.446399688720703
1702215291484682800,49.865682861328125,2.5083999633789062,-6.894899845123291,1.2585999965667725
1702215291544682800,49.92568286132813,3.1947999000549316,-5.688799858093262,4.766200065612793
1702215291604682800,49.98568286132812,2.09060001373291,-6.000999927520752,7.086299896240234
1702215291664682800,50.045682861328125,1.4462999105453491,-5.911499977111816,10.303099632263184
1702215291724682800,50.10568286132813,0.7390999794006348,-3.0409998893737793,12.862799644470215
1702215291784682800,50.16568286132812,1.789599895477295,-5.785899639129639,13.028299331665039
1702215291844682800,50.225682861328124,0.7696999907493591,-9.26039981842041,4.342400074005127
1702215291904682800,50.28568286132813,-1.5145999193191528,-9.023300170898438,2.2161998748779297
1702215291964682800,50.34568286132812,-0.635699987411499,-5.048099994659424,-0.5310999751091003
1702215292024682800,50.405682861328124,-0.36089998483657837,-1.8128999471664429,-1.6801999807357788
1702215292084682800,50.465682861328126,-1.473699927330017,-0.9467999935150146,-2.661799907684326
1702215292144682800,50.52568286132812,0.09609999507665634,-0.9388999938964844,-5.203099727630615
1702215292204682800,50.585682861328124,0.607699990272522,-0.5254999995231628,-10.712699890136719
1702215292264682800,50.645682861328126,-2.233099937438965,-0.4253000020980835,-11.134900093078613
1702215292324682800,50.70568286132813,-4.143099784851074,0.02369999885559082,-9.528399467468262
1702215292384682800,50.76568286132812,-3.507999897003174,0.7534999847412109,-8.406599998474121
1702215292444682800,50.825682861328126,-1.5583000183105469,-3.846099853515625,-3.09309983253479
1702215292504682800,50.88568286132813,-0.9688999652862549,-5.83929967880249,-3.09909987449646
1702215292564682800,50.94568286132812,1.704699993133545,-4.785799980163574,-2.508999824523926
1702215292624682800,51.005682861328125,2.89139986038208,-3.8232998847961426,0.7576999664306641
1702215292684682800,51.06568286132813,3.000699996948242,-3.941200017929077,3.5673999786376953
1702215292744682800,51.12568286132812,2.526700019836426,-3.862499952316284,5.056299686431885
1702215292804682800,51.185682861328125,2.3051998615264893,-4.136300086975098,5.750999927520752
1702215292864681200,51.24568115234375,3.081699848175049,-3.4731998443603516,10.287199974060059
1702215292924681200,51.30568115234375,-2.053999900817871,-7.091300010681152,9.548600196838379
1702215292984681200,51.36568115234375,2.140399932861328,-6.918299674987793,9.38070011138916
1702215293044682800,51.42568286132813,0.1394999921321869,-6.344299793243408,7.389199733734131
1702215293104682800,51.48568286132812,-1.2796999216079712,-10.568699836730957,4.67609977722168
1702215293164682800,51.545682861328125,-1.2857999801635742,-11.216899871826172,-4.948899745941162
1702215293224682800,51.60568286132813,-1.768899917602539,-5.897799968719482,-17.228899002075195
1702215293284682800,51.66568286132812,-1.8391999006271362,2.113499879837036,-5.811899662017822
1702215293344682800,51.725682861328124,-1.413599967956543,3.4136998653411865,-6.588599681854248
1702215293404682800,51.78568286132813,-2.8715999126434326,-0.5841000080108643,-13.907499313354492
1702215293464682800,51.84568286132812,-1.581299901008606,-2.3915998935699463,-12.715899467468262
1702215293524682800,51.905682861328124,0.2369999885559082,0.5109999775886536,-6.671899795532227
1702215293584682800,51.965682861328126,-1.0045000314712524,-5.997600078582764,-4.647900104522705
1702215293644682800,52.02568286132812,-5.4868998527526855,-9.733599662780762,-8.129899978637695
1702215293704682800,52.085682861328124,1.1517999172210693,-6.458499908447266,-1.7888000011444092
1702215293764682800,52.145682861328126,4.222899913787842,-5.2191996574401855,2.5469000339508057
1702215293824682800,52.20568286132813,3.847299814224243,-6.046199798583984,4.618199825286865
1702215293884682800,52.26568286132812,3.324399948120117,-7.899199962615967,4.68779993057251
1702215293944682800,52.325682861328126,5.247799873352051,-5.228300094604492,6.7932000160217285
1702215294004682800,52.38568286132813,6.000499725341797,-5.730199813842773,12.361899375915527
1702215294064682800,52.44568286132812,3.0501999855041504,-8.201199531555176,8.981399536132812
1702215294124682800,52.505682861328125,-0.3937000036239624,-10.069899559020996,4.586100101470947
1702215294184682800,52.56568286132813,-1.1898000240325928,-5.543299674987793,4.609600067138672
1702215294244682800,52.62568286132812,1.2876999378204346,-2.958699941635132,3.7010998725891113
1702215294304682800,52.685682861328125,1.8224999904632568,-4.227999687194824,2.1596999168395996
1702215294364682800,52.74568286132813,0.6779999732971191,-5.857100009918213,-4.06850004196167
1702215294424682800,52.80568286132812,-0.2962000072002411,-4.263799667358398,-12.572599411010742
1702215294484682800,52.865682861328125,-0.9373999834060669,0.5310999751091003,-9.800000190734863
1702215294544682800,52.92568286132813,-2.83489990234375,1.8910999298095703,-9.968500137329102
1702215294604682800,52.98568286132812,-2.7867000102996826,-1.7984999418258667,-13.091699600219727
1702215294664682800,53.045682861328125,-2.539299964904785,-2.134999990463257,-8.424399375915527
1702215294724682800,53.10568286132813,-2.2888998985290527,-9.172499656677246,-7.964699745178223
1702215294784682800,53.16568286132812,0.564799964427948,-7.016899585723877,-3.3364999294281006
1702215294844682800,53.225682861328124,2.4164998531341553,-5.638999938964844,1.6696999073028564
1702215294904681200,53.28568115234375,2.0600998401641846,-4.908199787139893,5.263299942016602
1702215294964682800,53.34568286132812,2.017899990081787,-4.203099727630615,5.938499927520752
1702215295024682800,53.405682861328124,2.822999954223633,-3.9529998302459717,6.828499794006348
1702215295084682800,53.465682861328126,3.613999843597412,-4.33489990234375,9.141900062561035
1702215295144682800,53.52568286132812,3.1927998065948486,-3.593599796295166,8.678799629211426
1702215295204682800,53.585682861328124,2.1312999725341797,-6.388499736785889,7.368799686431885
1702215295264682800,53.645682861328126,-0.41909998655319214,-9.900799751281738,4.10890007019043
1702215295324682800,53.70568286132813,-0.9301999807357788,-7.2129998207092285,2.1259000301361084
1702215295384682800,53.76568286132812,0.07149999588727951,-2.6352999210357666,2.0478999614715576
1702215295444682800,53.825682861328126,0.1419999897480011,-1.4262999296188354,0.6521999835968018
1702215295504682800,53.88568286132813,0.47279998660087585,-2.6524999141693115,-2.160099983215332
1702215295564682800,53.94568286132812,1.059000015258789,-3.299799919128418,-6.839399814605713
1702215295624682800,54.005682861328125,2.8652000427246094,-0.2938999831676483,-8.188499450683594
1702215295684682800,54.06568286132813,0.9429999589920044,0.3783999979496002,-10.083799362182617
1702215295744682800,54.12568286132812,-2.02810001373291,-2.9535999298095703,-11.066999435424805
1702215295804682800,54.185682861328125,0.148499995470047,-0.6926999688148499,-7.918299674987793
1702215295864682800,54.24568286132813,0.2401999980211258,-3.3671000003814697,-5.076099872589111
1702215295924682800,54.30568286132812,-1.5769999027252197,-6.263299942016602,-4.9544997215271
1702215295984682800,54.365682861328125,-0.09699999541044235,-3.7762999534606934,-1.4301999807357788
1702215296044682800,54.42568286132813,-0.5317000150680542,-2.083099842071533,3.402599811553955
1702215296104682800,54.48568286132812,1.657599925994873,-3.8299999237060547,4.31089973449707
1702215296164682800,54.545682861328125,2.11899995803833,-5.448699951171875,3.879999876022339
1702215296224682800,54.60568286132813,2.2690999507904053,-6.376800060272217,4.076600074768066
1702215296284682800,54.66568286132812,3.934299945831299,-4.200200080871582,5.578499794006348
1702215296344682800,54.725682861328124,2.5254998207092285,-4.442800045013428,8.384599685668945
1702215296404682800,54.78568286132813,2.860299825668335,-4.8024001121521,8.058699607849121
1702215296464682800,54.84568286132812,2.801299810409546,-6.081899642944336,7.347599983215332
1702215296524682800,54.905682861328124,0.7525999546051025,-5.5829997062683105,4.868899822235107
1702215296584682800,54.965682861328126,-0.9370999932289124,-4.228099822998047,1.5475999116897583
1702215296644682800,55.02568286132812,-1.7479000091552734,-4.28849983215332,-2.677799940109253
1702215296704682800,55.085682861328124,-0.9558999538421631,-4.292200088500977,-9.803299903869629
1702215296764682800,55.145682861328126,-0.3814999759197235,0.49619999527931213,-7.3964996337890625
1702215296824682800,55.20568286132813,-1.942599892616272,2.952199935913086,-4.724899768829346
1702215296884682800,55.26568286132812,-2.92579984664917,1.2785999774932861,-6.587699890136719
1702215296944682800,55.325682861328126,-1.0044000148773193,-3.198699951171875,-10.978899955749512
1702215297004682800,55.38568286132813,0.7768999934196472,-2.7035999298095703,-8.989999771118164
1702215297064682800,55.44568286132812,0.09619999676942825,-2.8778998851776123,-3.0023999214172363
1702215297124682800,55.505682861328125,-4.676700115203857,-4.439799785614014,-3.0922000408172607
1702215297184682800,55.56568286132813,-0.7889999747276306,-3.393199920654297,-2.1226999759674072
1702215297244682800,55.62568286132812,2.3631999492645264,-2.724400043487549,1.197700023651123
1702215297304682800,55.685682861328125,3.415299892425537,-3.6735999584198,3.531599998474121
1702215297364682800,55.74568286132813,3.8367998600006104,-4.408400058746338,4.326699733734131
1702215297424682800,55.80568286132812,4.272900104522705,-3.836399793624878,5.417900085449219
1702215297484682800,55.865682861328125,4.994800090789795,-2.6438000202178955,6.656599998474121
1702215297544682800,55.92568286132813,4.5488996505737305,-7.930799961090088,6.598299980163574
1702215297604682800,55.98568286132812,2.199699878692627,-8.450200080871582,5.4544997215271
1702215297664682800,56.045682861328125,-2.605299949645996,-6.715099811553955,4.505899906158447
1702215297724682800,56.10568286132813,-2.01639986038208,-2.6501998901367188,4.927999973297119
1702215297784682800,56.16568286132812,0.7930999994277954,-1.4763000011444092,2.037799835205078
1702215297844682800,56.225682861328124,1.5374999046325684,-2.1484999656677246,0.5934000015258789
1702215297904682800,56.28568286132813,1.5678999423980713,-3.670799970626831,-4.307600021362305
1702215297964682800,56.34568286132812,0.9705999493598938,-3.044999837875366,-9.75059986114502
1702215298024682800,56.405682861328124,0.34049999713897705,-0.9749999642372131,-9.967499732971191
1702215298084682800,56.465682861328126,-2.8220999240875244,1.8568999767303467,-9.899099349975586
1702215298144682800,56.52568286132812,-1.6897999048233032,0.026499999687075615,-9.677800178527832
1702215298204682800,56.585682861328124,-3.0469000339508057,-3.2784998416900635,-9.116899490356445
1702215298264682800,56.645682861328126,-4.274600028991699,-6.750499725341797,-6.730000019073486
1702215298324682800,56.70568286132813,-0.6711999773979187,-3.9888999462127686,-2.0220999717712402
1702215298384682800,56.76568286132812,1.5733000040054321,-3.8205997943878174,1.683899998664856
1702215298444682800,56.825682861328126,2.494799852371216,-4.644999980926514,3.436199903488159
1702215298504682800,56.88568286132813,2.1552999019622803,-4.502099990844727,2.8241000175476074
1702215298564682800,56.94568286132812,4.001100063323975,-5.412899971008301,4.395699977874756
1702215298624682800,57.005682861328125,6.072399616241455,-4.042599678039551,8.536499977111816
1702215298684681200,57.06568115234375,3.484499931335449,-5.664000034332275,10.711099624633789
1702215298744682800,57.12568286132812,2.821499824523926,-9.438899993896484,7.558799743652344
1702215298804682800,57.185682861328125,1.5317999124526978,-9.537099838256836,4.358299732208252
1702215298864682800,57.24568286132813,2.135999917984009,-5.166599750518799,3.024600028991699
1702215298924682800,57.30568286132812,1.0928000211715698,-3.7027997970581055,0.9328999519348145
1702215298984681200,57.36568115234375,0.18039999902248383,-5.833899974822998,-3.5267999172210693
1702215299044682800,57.42568286132813,-3.333699941635132,-6.277099609375,-18.99449920654297
1702215299104682800,57.48568286132812,-0.2377999871969223,0.20069999992847443,-9.419400215148926
1702215299164682800,57.545682861328125,-3.2821998596191406,2.871799945831299,-6.067599773406982
1702215299224682800,57.60568286132813,-6.337800025939941,2.7767999172210693,-6.503399848937988
1702215299284681200,57.66568115234375,-9.211400032043457,-2.574899911880493,-11.817099571228027
1702215299344682800,57.725682861328124,-6.3862996101379395,-10.85569953918457,-9.31659984588623
1702215299404682800,57.78568286132813,1.57260000705719,-11.366000175476074,-2.9526000022888184
1702215299464682800,57.84568286132812,4.209399700164795,-6.056099891662598,0.14790000021457672
1702215299524682800,57.905682861328124,3.97979998588562,-3.686800003051758,3.927999973297119
1702215299584682800,57.965682861328126,2.7093000411987305,-3.8090999126434326,4.59559965133667
1702215299644682800,58.02568286132812,3.47409987449646,-4.811299800872803,3.6123998165130615
1702215299704682800,58.085682861328124,4.915800094604492,-5.513299942016602,4.3013997077941895
1702215299764682800,58.145682861328126,6.000799655914307,-4.723299980163574,6.482800006866455
1702215299824682800,58.20568286132813,5.730000019073486,-5.908199787139893,6.051699638366699
1702215299884682800,58.26568286132812,3.7909998893737793,-5.997699737548828,8.298699378967285
1702215299944682800,58.325682861328126,2.789799928665161,-7.2967000007629395,5.362099647521973
1702215300004682800,58.38568286132813,-2.774199962615967,-7.821099758148193,3.1123998165130615
1702215300064682800,58.44568286132812,-6.491399765014648,-3.878499984741211,-1.9093999862670898
1702215300124682800,58.505682861328125,-2.1404998302459717,-2.3132998943328857,-5.201299667358398
1702215300184682800,58.56568286132813,0.35420000553131104,-1.2372000217437744,-3.338599920272827
1702215300244682800,58.62568286132812,0.5144999623298645,-0.21969999372959137,-3.4839999675750732
1702215300304682800,58.685682861328125,0.3920999765396118,-0.4113999903202057,-6.2428998947143555
1702215300364682800,58.74568286132813,0.3910999894142151,0.22339999675750732,-7.614999771118164
1702215300424682800,58.80568286132812,-0.23009999096393585,-0.6115999817848206,-8.45009994506836
1702215300484682800,58.865682861328125,0.6204999685287476,-3.1835999488830566,-6.44849967956543
1702215300544682800,58.92568286132813,1.7619999647140503,-3.0498998165130615,-9.987299919128418
1702215300604682800,58.98568286132812,-0.8281999826431274,-8.510099411010742,-6.055699825286865
1702215300664682800,59.045682861328125,1.6560999155044556,-7.485899925231934,-1.7421000003814697
1702215300724682800,59.10568286132813,0.4989999830722809,-5.011499881744385,2.8372998237609863
1702215300784682800,59.16568286132812,-0.8926999568939209,-3.6185998916625977,5.0316996574401855
1702215300844682800,59.225682861328124,-0.5845000147819519,-2.4582998752593994,6.672399997711182
1702215300904682800,59.28568286132813,0.08980000019073486,-2.702199935913086,8.204099655151367
1702215300964682800,59.34568286132812,1.2303999662399292,-2.6784000396728516,10.178699493408203
1702215301024682800,59.405682861328124,1.0650999546051025,-4.34060001373291,9.41349983215332
1702215301084682800,59.465682861328126,-0.34779998660087585,-8.069099426269531,9.478599548339844
1702215301144682800,59.52568286132812,-0.7699999809265137,-7.436299800872803,5.587699890136719
1702215301204682800,59.585682861328124,-3.47379994392395,-5.81220006942749,1.7653999328613281
1702215301264682800,59.645682861328126,-4.036600112915039,-3.3332998752593994,0.013499999418854713
1702215301324682800,59.70568286132813,-1.8482999801635742,-2.1140999794006348,-3.625199794769287
1702215301384682800,59.76568286132812,1.785499930381775,-1.643799901008606,-3.4438998699188232
1702215301444682800,59.825682861328126,1.9541999101638794,0.2069000005722046,-3.5421998500823975
1702215301504682800,59.88568286132813,0.8859999775886536,0.8216999769210815,-5.667299747467041
1702215301564682800,59.94568286132812,0.777899980545044,0.4487999975681305,-7.621199607849121
1702215301624682800,60.005682861328125,0.9228999614715576,-2.1547999382019043,-7.993799686431885
1702215301684682800,60.06568286132813,-0.9036999940872192,-1.6906999349594116,-12.101099967956543
1702215301744682800,60.12568286132812,-2.8001999855041504,-8.113399505615234,-4.95389986038208
1702215301804682800,60.185682861328125,-0.6140999794006348,-5.6545000076293945,-3.210399866104126
1702215301864682800,60.24568286132813,2.612299919128418,-2.23829984664917,0.9251999855041504
1702215301924682800,60.30568286132812,2.095399856567383,-2.075700044631958,4.233599662780762
1702215301984682800,60.365682861328125,1.1211999654769897,-2.9437999725341797,6.5183000564575195
1702215302044682800,60.42568286132813,0.1678999960422516,-2.416599988937378,5.328700065612793
1702215302104682800,60.48568286132812,2.055000066757202,-2.9208998680114746,5.469099998474121
1702215302164682800,60.545682861328125,2.1218998432159424,-4.47029972076416,7.196699619293213
1702215302224682800,60.60568286132813,2.079200029373169,-5.9105000495910645,8.440199851989746
1702215302284682800,60.66568286132812,-0.04319999739527702,-6.750799655914307,4.779699802398682
1702215302344682800,60.725682861328124,-1.7905999422073364,-5.043900012969971,2.2683000564575195
1702215302404682800,60.78568286132813,-1.2214999198913574,-1.680799961090088,2.4315998554229736
1702215302464682800,60.84568286132812,0.0471000000834465,0.7508999705314636,-0.30869999527931213
1702215302524682800,60.905682861328124,-0.14869999885559082,1.2451999187469482,-2.46560001373291
1702215302584682800,60.965682861328126,0.2854999899864197,0.33390000462532043,-3.9467999935150146
1702215302644682800,61.02568286132812,1.712499976158142,-0.8783999681472778,-5.672499656677246
1702215302704682800,61.085682861328124,0.8172999620437622,-0.03480000048875809,-6.1778998374938965
1702215302764682800,61.145682861328126,-1.364799976348877,-0.43309998512268066,-6.543099880218506
1702215302824682800,61.20568286132813,-0.6961999535560608,-0.47039997577667236,-5.799099922180176
1702215302884682800,61.26568286132812,-2.2774999141693115,-0.5644999742507935,-7.759199619293213
1702215302944682800,61.325682861328126,-4.722799777984619,-5.093699932098389,-6.26099967956543
1702215303004682800,61.38568286132813,-1.5917999744415283,-6.5706000328063965,-4.2002997398376465
1702215303064682800,61.44568286132812,2.979099988937378,-4.161200046539307,0.8980000019073486
1702215303124682800,61.505682861328125,1.9882999658584595,-3.2523000240325928,4.242499828338623
1702215303184682800,61.56568286132813,0.2733999788761139,-2.687999963760376,6.749399662017822
1702215303244682800,61.62568286132812,-0.1931999921798706,-2.4024999141693115,6.830399990081787
1702215303304681200,61.68568115234375,0.2622999846935272,-3.2107999324798584,7.039700031280518
1702215303364682800,61.74568286132813,0.3520999848842621,-2.9733998775482178,7.629299640655518
1702215303424682800,61.80568286132812,-2.496000051498413,-4.308099746704102,7.815999984741211
1702215303484682800,61.865682861328125,0.79749995470047,-4.124499797821045,5.896299839019775
1702215303544682800,61.92568286132813,-0.06480000168085098,-6.114299774169922,3.5996999740600586
1702215303604682800,61.98568286132812,1.0376999378204346,-4.4375996589660645,1.1747000217437744
1702215303664682800,62.045682861328125,1.7041000127792358,-1.9142999649047852,-0.7069000005722046
1702215303724682800,62.10568286132813,0.5425999760627747,-1.9428999423980713,-3.1908998489379883
1702215303784682800,62.16568286132812,1.014699935913086,-1.1347999572753906,-5.0142998695373535
1702215303844682800,62.225682861328124,0.8925999999046326,0.46799999475479126,-5.567999839782715
1702215303904682800,62.28568286132813,-1.8162999153137207,-0.7712999582290649,-10.291299819946289
1702215303964682800,62.34568286132812,-3.312299966812134,-1.523800015449524,-10.12339973449707
1702215304024682800,62.405682861328124,-3.0889999866485596,-1.5932999849319458,-9.950399398803711
1702215304084682800,62.465682861328126,-3.8352999687194824,-6.355999946594238,-6.821899890899658
1702215304144681200,62.52568115234375,-0.6180999875068665,-5.601999759674072,-4.74970006942749
1702215304204682800,62.585682861328124,3.0135998725891113,-3.3046000003814697,0.3971000015735626
1702215304264682800,62.645682861328126,2.912099838256836,-3.4976999759674072,3.393699884414673
1702215304324682800,62.70568286132813,2.218600034713745,-4.884099960327148,4.244199752807617
1702215304384682800,62.76568286132812,2.259700059890747,-5.209799766540527,3.8183000087738037
1702215304444682800,62.825682861328126,4.157899856567383,-4.8856000900268555,12.351799964904785
1702215304504682800,62.88568286132813,2.583099842071533,-2.3461999893188477,11.594399452209473
1702215304564709400,62.94570947265625,0.8629999756813049,-8.438899993896484,4.429699897766113
1702215304624682800,63.005682861328125,1.1273999214172363,-8.209699630737305,3.5383999347686768
1702215304684682800,63.06568286132813,2.579900026321411,-4.503200054168701,3.187999963760376
1702215304744682800,63.12568286132812,1.656999945640564,-1.7371999025344849,2.378999948501587
1702215304804682800,63.185682861328125,0.10669999569654465,-1.7537999153137207,-0.085999995470047
1702215304864682800,63.24568286132813,-1.1916999816894531,-2.196699857711792,-4.212699890136719
1702215304924682800,63.30568286132812,0.5516999959945679,-2.4343998432159424,-9.328499794006348
1702215304984682800,63.365682861328125,1.2064999341964722,-0.8544999957084656,-10.199299812316895
1702215305044682800,63.42568286132813,0.0058999997563660145,0.2759999930858612,-11.735300064086914
1702215305104682800,63.48568286132812,-2.562299966812134,-2.563699960708618,-12.729799270629883
1702215305164682800,63.545682861328125,-1.6628999710083008,-1.8956999778747559,-8.036099433898926
1702215305224682800,63.60568286132813,-1.5322999954223633,-6.430999755859375,-5.292099952697754
1702215305284682800,63.66568286132812,-1.464900016784668,-5.674799919128418,-3.967599868774414
1702215305344681200,63.72568115234375,1.5511999130249023,-3.8320000171661377,0.8248999714851379
1702215305404681200,63.78568115234375,2.261699914932251,-4.018499851226807,3.68179988861084
1702215305464681200,63.84568115234375,2.657099962234497,-4.239099979400635,4.246099948883057
1702215305524681200,63.90568115234375,3.553999900817871,-5.171799659729004,5.571599960327148
1702215305584681200,63.96568115234375,5.07480001449585,-4.407299995422363,6.734799861907959
1702215305644682800,64.02568286132812,3.4111998081207275,-5.559799671173096,9.786799430847168
1702215305704682800,64.08568286132812,1.3636999130249023,-6.937099933624268,7.843699932098389
1702215305764682800,64.14568286132813,0.1639000028371811,-6.63730001449585,5.269899845123291
1702215305824682800,64.20568286132813,1.6039999723434448,-3.9845998287200928,5.146699905395508
1702215305884682800,64.26568286132813,0.9537999629974365,-3.3130998611450195,2.8276000022888184
1702215305944711000,64.3257109375,-1.2206000089645386,-4.320399761199951,-1.365399956703186
1702215306004682800,64.38568286132812,-0.7963999509811401,-4.538099765777588,-7.582899570465088
1702215306064682800,64.44568286132812,1.30649995803833,-4.068900108337402,-12.725899696350098
1702215306124682800,64.50568286132813,-0.875499963760376,-2.1571998596191406,-13.028999328613281
1702215306184682800,64.56568286132813,-5.629499912261963,-0.29989999532699585,-10.200200080871582
1702215306244682800,64.62568286132813,-6.68179988861084,-0.5586999654769897,-9.486000061035156
1702215306304682800,64.68568286132812,-6.795599937438965,-5.108500003814697,-7.68619966506958
1702215306364681200,64.74568115234375,-3.8564000129699707,-8.578499794006348,-5.8618998527526855
1702215306424681200,64.80568115234375,1.9430999755859375,-6.5630998611450195,-1.6596999168395996
1702215306484682800,64.86568286132812,3.694999933242798,-5.55019998550415,1.7043999433517456
1702215306544682800,64.92568286132813,3.509199857711792,-6.131799697875977,3.872499942779541
1702215306604682800,64.98568286132813,4.251299858093262,-5.864500045776367,4.6514997482299805
1702215306664682800,65.04568286132813,6.034899711608887,-6.267199993133545,11.060099601745605
1702215306724682800,65.10568286132812,3.984799861907959,-4.358399868011475,15.098299980163574
1702215306784682800,65.16568286132812,0.9753999710083008,-7.660099983215332,10.135699272155762
1702215306844682800,65.22568286132812,1.0793999433517456,-11.18429946899414,4.169600009918213
1702215306904682800,65.28568286132813,1.0389999151229858,-6.42009973526001,2.7293999195098877
1702215306964682800,65.34568286132813,1.6901999711990356,-3.174499988555908,1.9534999132156372
1702215307024682800,65.40568286132813,1.1275999546051025,-3.7122998237609863,-0.6254000067710876
1702215307084682800,65.46568286132812,0.8933999538421631,-5.667900085449219,-6.107999801635742
1702215307144682800,65.52568286132812,2.552299976348877,-4.905999660491943,-11.733999252319336
1702215307204682800,65.58568286132812,-1.0532000064849854,-3.5393998622894287,-11.858999252319336
1702215307264682800,65.64568286132813,-8.975799560546875,-0.9716999530792236,-11.264599800109863
1702215307324682800,65.70568286132813,-7.297099590301514,0.12619999051094055,-10.125999450683594
1702215307384682800,65.76568286132813,-3.049499988555908,-1.8459999561309814,-5.136699676513672
1702215307444682800,65.82568286132812,-2.6849000453948975,-7.905699729919434,-7.791800022125244
1702215307504682800,65.88568286132812,-0.9156000018119812,-6.458799839019775,-4.249000072479248
1702215307564682800,65.94568286132812,2.497299909591675,-4.255000114440918,0.2044999897480011
1702215307624682800,66.00568286132813,3.6238999366760254,-3.6865999698638916,3.2416000366210938
1702215307684682800,66.06568286132813,3.8915998935699463,-4.175899982452393,4.246399879455566
1702215307744682800,66.12568286132813,5.082900047302246,-4.691800117492676,5.774199962615967
1702215307804682800,66.18568286132812,6.736000061035156,-5.16949987411499,7.561800003051758
1702215307864682800,66.24568286132812,5.867199897766113,-6.86299991607666,8.694000244140625
1702215307924682800,66.30568286132812,3.144399881362915,-8.9266996383667,3.110100030899048
1702215307984682800,66.36568286132812,0.10159999877214432,-5.326399803161621,5.166500091552734
1702215308044682800,66.42568286132813,1.6657999753952026,-3.563199996948242,2.9045000076293945
1702215308104682800,66.48568286132813,0.5351999998092651,-1.8497999906539917,1.3111000061035156
1702215308164682800,66.54568286132813,-0.804099977016449,-1.7840999364852905,-1.6977999210357666
1702215308224682800,66.60568286132812,-1.9713999032974243,-2.421299934387207,-5.910699844360352
1702215308284682800,66.66568286132812,0.8996999859809875,-1.7393999099731445,-8.762899398803711
1702215308344682800,66.72568286132812,0.9666999578475952,0.10049999505281448,-9.582499504089355
1702215308404682800,66.78568286132813,-1.3841999769210815,-0.10979999601840973,-11.678099632263184
1702215308464682800,66.84568286132813,0.007999999448657036,-2.4351999759674072,-10.097199440002441
1702215308524682800,66.90568286132813,-0.40829998254776,-3.0851998329162598,-9.301899909973145
1702215308584682800,66.96568286132812,-1.4781999588012695,-8.948599815368652,-5.69249963760376
1702215308644682800,67.02568286132812,1.1941999197006226,-6.1031999588012695,-1.1281999349594116
1702215308704682800,67.08568286132812,1.6337999105453491,-3.423099994659424,3.4470999240875244
1702215308764682800,67.14568286132813,1.1373000144958496,-2.892699956893921,6.622900009155273
1702215308824682800,67.20568286132813,-3.0825998783111572,-1.819700002670288,7.914299964904785
1702215308884682800,67.26568286132813,0.09789999574422836,-3.305299997329712,8.27750015258789
1702215308944682800,67.32568286132812,0.9431999921798706,-3.2971999645233154,10.119599342346191
1702215309004682800,67.38568286132812,-2.317999839782715,-4.270999908447266,11.531599998474121
1702215309064682800,67.44568286132812,-1.6258999109268188,-6.582499980926514,6.45829963684082
1702215309124682800,67.50568286132813,-1.4042999744415283,-5.6464996337890625,3.2911999225616455
1702215309184682800,67.56568286132813,0.15850000083446503,-2.64520001411438,3.051499843597412
1702215309244682800,67.62568286132813,0.10659999400377274,-1.3539999723434448,1.3446999788284302
1702215309304682800,67.68568286132812,0.5475999712944031,-2.724299907684326,-1.1450999975204468
1702215309364682800,67.74568286132812,0.4737999737262726,-4.54449987411499,-5.698899745941162
1702215309424682800,67.80568286132812,1.746399998664856,-3.0814998149871826,-11.757899284362793
1702215309484682800,67.86568286132812,-0.046699997037649155,-1.739799976348877,-12.868599891662598
1702215309544682800,67.92568286132813,-3.8939998149871826,-1.7929999828338623,-11.73740005493164
1702215309604682800,67.98568286132813,0.024299999698996544,-2.5762999057769775,-7.737499713897705
1702215309664682800,68.04568286132813,1.2674999237060547,-4.992599964141846,-5.744699954986572
1702215309724682800,68.10568286132812,-3.430999994277954,-8.855999946594238,-5.481299877166748
1702215309784682800,68.16568286132812,-1.1378999948501587,-7.951299667358398,-1.6207000017166138
1702215309844682800,68.22568286132812,2.768199920654297,-5.5680999755859375,3.108599901199341
1702215309904682800,68.28568286132813,2.2370998859405518,-4.763400077819824,6.3090996742248535
1702215309964682800,68.34568286132813,1.2405999898910522,-4.4182000160217285,7.867099761962891
1702215310024682800,68.40568286132813,1.732100009918213,-3.1917998790740967,9.036399841308594
1702215310084682800,68.46568286132812,0.3174999952316284,-2.7617998123168945,13.16569995880127
1702215310144682800,68.52568286132812,-1.7637999057769775,-5.02079963684082,11.338799476623535
1702215310204682800,68.58568286132812,-0.6233999729156494,-5.881399631500244,7.928799629211426
1702215310264682800,68.64568286132813,-3.224299907684326,-7.612399578094482,3.5920000076293945
1702215310324682800,68.70568286132813,-1.1588000059127808,-5.447199821472168,3.8070998191833496
1702215310384682800,68.76568286132813,0.10539999604225159,-3.7819998264312744,0.41429999470710754
1702215310444682800,68.82568286132812,-0.4894999861717224,-3.598599910736084,-2.346400022506714
1702215310504682800,68.88568286132812,0.26429998874664307,-4.160599708557129,-7.215799808502197
1702215310564682800,68.94568286132812,2.4738998413085938,-2.3583998680114746,-9.640999794006348
1702215310624682800,69.00568286132813,0.49969998002052307,-1.4642999172210693,-12.865900039672852
1702215310684682800,69.06568286132813,-0.7167999744415283,-4.343299865722656,-12.5625
1702215310744682800,69.12568286132813,3.0795998573303223,-4.514400005340576,-8.040399551391602
1702215310804682800,69.18568286132812,2.9744999408721924,-3.2458999156951904,-5.152299880981445
1702215310864682800,69.24568286132812,-1.831299901008606,-6.1865997314453125,-2.0627999305725098
1702215310924682800,69.30568286132812,-1.8720999956130981,-4.1331000328063965,0.026599999517202377
1702215310984682800,69.36568286132812,1.8019999265670776,-3.5862998962402344,2.2806999683380127
1702215311044682800,69.42568286132813,2.282599925994873,-3.3018999099731445,4.570899963378906
1702215311104682800,69.48568286132813,2.2279000282287598,-4.144700050354004,5.530600070953369
1702215311164682800,69.54568286132813,1.2788000106811523,-5.187099933624268,7.59529972076416
1702215311224682800,69.60568286132812,0.36319997906684875,-3.4118998050689697,12.34119987487793
1702215311284682800,69.66568286132812,0.8331999778747559,-4.48859977722168,11.688399314880371
1702215311344682800,69.72568286132812,-1.5971999168395996,-6.830399990081787,6.0792999267578125
1702215311404682800,69.78568286132813,0.7631999850273132,-5.351799964904785,5.095200061798096
1702215311464682800,69.84568286132813,0.6441999673843384,-3.353299856185913,2.0114998817443848
1702215311524682800,69.90568286132813,-0.34759998321533203,-2.1666998863220215,-0.6176999807357788
1702215311584682800,69.96568286132812,0.08489999920129776,-3.494499921798706,-3.6098999977111816
1702215311644682800,70.02568286132812,1.3889999389648438,-3.1034998893737793,-6.380399703979492
1702215311704682800,70.08568286132812,2.7632999420166016,-0.2705000042915344,-7.7453999519348145
1702215311764682800,70.14568286132813,-0.5778999924659729,-1.170199990272522,-9.792900085449219
1702215311824682800,70.20568286132813,-1.3565999269485474,-3.322000026702881,-11.75979995727539
1702215311884682800,70.26568286132813,0.8563999533653259,-1.8739999532699585,-9.771599769592285
1702215311944682800,70.32568286132812,0.5392000079154968,-4.553899765014648,-4.9923996925354
1702215312004682800,70.38568286132812,-2.291599988937378,-7.6703996658325195,-5.5727996826171875
1702215312064682800,70.44568286132812,0.3750999867916107,-5.198999881744385,-0.4188999831676483
1702215312124682800,70.50568286132813,1.7321999073028564,-3.670599937438965,3.2191998958587646
1702215312184682800,70.56568286132813,1.8808999061584473,-3.5152997970581055,6.054199695587158
1702215312244682800,70.62568286132813,2.6375999450683594,-3.5124998092651367,6.366699695587158
1702215312304682800,70.68568286132812,2.895900011062622,-3.507200002670288,7.096399784088135
1702215312364682800,70.74568286132812,3.1691999435424805,-3.7689998149871826,8.45829963684082
1702215312424682800,70.80568286132812,1.687600016593933,-4.796499729156494,10.30210018157959
1702215312484682800,70.86568286132812,-0.37929999828338623,-5.613199710845947,6.623199939727783
1702215312544682800,70.92568286132813,-2.936300039291382,-4.941799640655518,2.5737998485565186
1702215312604682800,70.98568286132813,-1.0401999950408936,-4.086299896240234,4.332499980926514
1702215312664682800,71.04568286132813,0.5415999889373779,-2.7774999141693115,2.024399995803833
1702215312724682800,71.10568286132812,0.46219998598098755,-1.8743999004364014,-1.3288999795913696
1702215312784682800,71.16568286132812,-0.10249999910593033,-1.4383999109268188,-4.708199977874756
1702215312844682800,71.22568286132812,0.020499998703598976,-0.7366999983787537,-6.83519983291626
1702215312904682800,71.28568286132813,-0.6632999777793884,-1.2964999675750732,-8.741299629211426
1702215312964682800,71.34568286132813,-0.615399956703186,-2.472399950027466,-11.399099349975586
1702215313024682800,71.40568286132813,2.265699863433838,-4.245500087738037,-7.851099967956543
1702215313084682800,71.46568286132812,0.4650999903678894,-1.1049000024795532,-8.434800148010254
1702215313144682800,71.52568286132812,-2.079400062561035,-5.989099979400635,-4.633699893951416
1702215313204682800,71.58568286132812,-0.621399998664856,-4.948699951171875,-3.5593998432159424
1702215313264682800,71.64568286132813,1.7821999788284302,-3.1571998596191406,0.5339999794960022
1702215313324682800,71.70568286132813,1.9155999422073364,-3.2649998664855957,3.428299903869629
1702215313384682800,71.76568286132813,1.6500999927520752,-3.7379000186920166,4.957499980926514
1702215313444682800,71.82568286132812,2.356299877166748,-4.18619966506958,5.461899757385254
1702215313504682800,71.88568286132812,3.3932998180389404,-3.3431999683380127,7.321599960327148
1702215313564682800,71.94568286132812,2.448499917984009,-4.69189977645874,10.362299919128418
1702215313624682800,72.00568286132813,0.7452999949455261,-6.310299873352051,7.882299900054932
1702215313684682800,72.06568286132813,-1.1234999895095825,-6.018099784851074,5.05049991607666
1702215313744681200,72.12568115234374,0.18679998815059662,-3.432999849319458,5.061999797821045
1702215313804682800,72.18568286132812,0.6912999749183655,-1.2278000116348267,2.0523998737335205
1702215313864682800,72.24568286132812,0.1436000019311905,-1.4585999250411987,0.19370000064373016
1702215313924682800,72.30568286132812,0.22139999270439148,-3.54259991645813,-3.563199996948242
1702215313984681200,72.36568115234375,1.9214999675750732,-4.342799663543701,-8.060199737548828
1702215314044681200,72.42568115234376,2.7117998600006104,-3.382699966430664,-9.7593994140625
1702215314104682800,72.48568286132813,0.8027999997138977,-1.0006999969482422,-9.800399780273438
1702215314164682800,72.54568286132813,0.23589999973773956,-2.357599973678589,-9.616000175476074
1702215314224682800,72.60568286132812,-0.5145999789237976,-2.1417999267578125,-9.076199531555176
1702215314284682800,72.66568286132812,-1.9612998962402344,-6.8105998039245605,-4.59499979019165
1702215314344682800,72.72568286132812,-0.046699997037649155,-4.274799823760986,-1.073199987411499
1702215314404682800,72.78568286132813,0.5672000050544739,-2.4902000427246094,1.4006999731063843
1702215314464682800,72.84568286132813,0.3929999768733978,-2.4285998344421387,4.059799671173096
1702215314524682800,72.90568286132813,0.9041999578475952,-3.754999876022339,4.5914998054504395
1702215314584682800,72.96568286132812,0.6448000073432922,-5.982800006866455,6.1819000244140625
1702215314644682800,73.02568286132812,2.6754000186920166,-4.0590996742248535,7.868199825286865
1702215314704682800,73.08568286132812,0.9289000034332275,-3.129199981689453,11.298599243164062
1702215314764682800,73.14568286132813,-2.8314998149871826,-7.1738996505737305,4.07859992980957
1702215314824682800,73.20568286132813,-2.45389986038208,-4.964999675750732,7.7423996925354
1702215314884682800,73.26568286132813,-0.6003999710083008,-2.6888999938964844,5.011199951171875
1702215314944682800,73.32568286132812,-1.2874000072479248,-1.1871999502182007,3.2776999473571777
1702215315004682800,73.38568286132812,-0.7500999569892883,-2.575000047683716,-0.48499998450279236
1702215315064682800,73.44568286132812,1.138700008392334,-4.258899688720703,-3.114300012588501
1702215315124682800,73.50568286132813,2.759999990463257,-4.166199684143066,-7.718400001525879
1702215315184682800,73.56568286132813,-0.9451999664306641,-3.1096999645233154,-11.316800117492676
1702215315244682800,73.62568286132813,-2.012399911880493,-2.942999839782715,-12.01349925994873
1702215315304682800,73.68568286132812,-1.934399962425232,-0.535099983215332,-13.684999465942383
1702215315364682800,73.74568286132812,-1.1066999435424805,-4.363699913024902,-7.7988996505737305
1702215315424682800,73.80568286132812,-2.1982998847961426,-7.279899597167969,-5.9477996826171875
1702215315484682800,73.86568286132812,1.4163999557495117,-4.840099811553955,-1.3158999681472778
1702215315544682800,73.92568286132813,1.913699984550476,-4.624599933624268,2.871999979019165
1702215315604682800,73.98568286132813,1.0981999635696411,-5.09660005569458,4.170599937438965
1702215315664682800,74.04568286132813,1.974199891090393,-5.946300029754639,4.627699851989746
1702215315724682800,74.10568286132812,4.091700077056885,-5.298699855804443,7.913399696350098
1702215315784682800,74.16568286132812,4.615499973297119,-3.6907999515533447,9.508600234985352
1702215315844682800,74.22568286132812,3.322000026702881,-6.463199615478516,8.069799423217773
1702215315904682800,74.28568286132813,1.4046999216079712,-4.655900001525879,9.719599723815918
1702215315964682800,74.34568286132813,-3.2600998878479004,-5.604300022125244,6.945399761199951
1702215316024682800,74.40568286132813,-1.8489999771118164,-5.433199882507324,4.329599857330322
1702215316084682800,74.46568286132812,0.3084999918937683,-5.214200019836426,1.6057000160217285
1702215316144682800,74.52568286132812,0.5392999649047852,-4.708600044250488,-3.9554998874664307
1702215316204682800,74.58568286132812,-0.0005999999702908099,-3.046099901199341,-8.697099685668945
1702215316264682800,74.64568286132813,-3.430500030517578,-0.3260999917984009,-7.967099666595459
1702215316324682800,74.70568286132813,-6.402899742126465,-0.6656999588012695,-9.829899787902832
1702215316384682800,74.76568286132813,-4.99869966506958,-2.719399929046631,-11.087599754333496
1702215316444682800,74.82568286132812,-3.4744999408721924,-0.015199999324977398,-10.970499992370605
1702215316504682800,74.88568286132812,-5.786900043487549,-6.795499801635742,-6.271199703216553
1702215316564682800,74.94568286132812,-3.6110999584198,-8.93649959564209,-6.389899730682373
1702215316624682800,75.00568286132813,1.1812000274658203,-7.379899978637695,-1.9702999591827393
1702215316684682800,75.06568286132813,3.7578999996185303,-5.6697998046875,1.5231999158859253
1702215316744682800,75.12568286132813,3.1694998741149902,-5.808799743652344,4.264999866485596
1702215316804682800,75.18568286132812,3.6684999465942383,-5.399099826812744,7.603899955749512
