time,seconds_elapsed,z,y,x
1702689316128155600,0.06315576171875,-0.707099974155426,-0.550599992275238,-0.09019999951124191
1702689316188154000,0.123154052734375,-0.028099998831748962,-0.028999999165534973,0.003499999875202775
1702689316248154000,0.183154052734375,0.004100000020116568,0.011699999682605267,-0.004799999762326479
1702689316308154000,0.243154052734375,-0.06729999929666519,-0.026499999687075615,-0.01979999989271164
1702689316368154000,0.303154052734375,-0.04769999906420708,-0.042399998754262924,-0.08760000020265579
1702689316428154000,0.363154052734375,-0.0357000008225441,-0.05719999969005585,0.06289999932050705
1702689316488154000,0.423154052734375,-0.15489999949932098,0.11050000041723251,-0.1574999988079071
1702689316548154000,0.483154052734375,-0.0044999998062849045,0.07039999961853027,-0.042500000447034836
1702689316608154000,0.543154052734375,0.03610000014305115,0.09879999607801437,-0.02369999885559082
1702689316668154000,0.603154052734375,-0.006399999838322401,0.03989999741315842,0.02159999869763851
1702689316728177400,0.663177490234375,-0.0689999982714653,-0.027799999341368675,0.1298999935388565
1702689316788154000,0.723154052734375,-0.09730000048875809,-0.08859999477863312,0.10359999537467957
1702689316848154000,0.783154052734375,-0.0030999998562037945,-0.14729999005794525,0.04939999803900719
1702689316908154000,0.843154052734375,0.322299987077713,-0.12469999492168427,-0.053599998354911804
1702689316968154000,0.903154052734375,0.019999999552965164,0.13189999759197235,-0.001999999862164259
1702689317028154000,0.963154052734375,0.16599999368190765,0.004399999976158142,-0.07970000058412552
1702689317088154000,1.023154052734375,-0.37199997901916504,-0.11580000072717667,0.10949999839067459
1702689317148154000,1.083154052734375,-0.46050000190734863,0.16929998993873596,-0.21069999039173126
1702689317208154000,1.143154052734375,-1.0530999898910522,0.15519998967647552,0.1233999952673912
1702689317268154000,1.203154052734375,0.11659999936819077,0.16290000081062317,0.3294999897480011
1702689317328154000,1.263154052734375,-0.39980000257492065,-0.10409999638795853,0.2870999872684479
1702689317388154000,1.323154052734375,0.38989999890327454,0.10929999500513077,0.30550000071525574
1702689317448154000,1.383154052734375,0.10480000078678131,0.07329999655485153,-0.34610000252723694
1702689317508154000,1.443154052734375,-0.24529999494552612,-0.009999999776482582,-0.37129998207092285
1702689317568154000,1.503154052734375,-0.27320000529289246,-0.006099999882280827,-0.15389999747276306
1702689317628154000,1.563154052734375,0.2019999921321869,0.0949999988079071,0.6075999736785889
1702689317688154000,1.623154052734375,0.2513999938964844,-0.2955999970436096,-0.15039999783039093
1702689317748154000,1.683154052734375,0.30799999833106995,-0.22379998862743378,-0.11549999564886093
1702689317808154000,1.743154052734375,-0.38839998841285706,-0.24789999425411224,-0.08410000056028366
1702689317868154000,1.803154052734375,0.21279999613761902,0.1266999989748001,-0.046299997717142105
1702689317928154000,1.863154052734375,-0.4113999903202057,0.10769999772310257,0.17679999768733978
1702689317988154000,1.923154052734375,0.08320000022649765,0.15699999034404755,0.23469999432563782
1702689318048154000,1.983154052734375,-0.10809999704360962,0.14229999482631683,0.018799999728798866
1702689318108154000,2.043154052734375,0.09519999474287033,0.11899999529123306,0.08190000057220459
1702689318168154000,2.103154052734375,0.05179999768733978,0.27549999952316284,0.3068999946117401
1702689318228154000,2.163154052734375,-0.07279999554157257,-0.1662999987602234,0.02459999918937683
1702689318288154000,2.223154052734375,-0.6276999711990356,-0.07050000131130219,-0.32099997997283936
1702689318348154000,2.283154052734375,-0.12349999696016312,-0.051500000059604645,-0.22529999911785126
1702689318408154000,2.343154052734375,0.25200000405311584,0.11599999666213989,0.13679999113082886
1702689318468154000,2.403154052734375,-0.09679999947547913,-0.0030999998562037945,-0.31200000643730164
1702689318528154000,2.463154052734375,-0.34369999170303345,-0.030700000002980232,-0.15629999339580536
1702689318588154000,2.523154052734375,-0.1453000009059906,-0.5756999850273132,0.3637000024318695
1702689318648154000,2.583154052734375,-0.2913999855518341,-0.11449999362230301,0.1445000022649765
1702689318708154000,2.643154052734375,0.19529999792575836,0.0026000000070780516,0.4075999855995178
1702689318768154000,2.703154052734375,-0.04559999704360962,0.04169999808073044,-0.03539999946951866
1702689318828177400,2.763177490234375,0.10499999672174454,0.07329999655485153,0.10830000042915344
1702689318888154000,2.823154052734375,0.6044999957084656,0.10979999601840973,0.5307999849319458
1702689318948154000,2.883154052734375,-0.019600000232458115,0.01979999989271164,0.0568000003695488
1702689319008154000,2.943154052734375,-0.482699990272522,0.019700000062584877,-0.5221999883651733
1702689319068154000,3.003154052734375,-0.5875999927520752,-0.13319998979568481,-0.5292999744415283
1702689319128154000,3.063154052734375,0.02149999886751175,-0.04600000008940697,-0.07660000026226044
1702689319188154000,3.123154052734375,0.008200000040233135,0.020399998873472214,0.31349998712539673
1702689319248154000,3.183154052734375,-0.20099999010562897,-0.03759999945759773,-0.38349997997283936
1702689319308154000,3.243154052734375,-0.5358999967575073,-0.08659999817609787,-0.08739999681711197
1702689319368154000,3.303154052734375,-0.20749999582767487,0.07919999957084656,-0.07919999957084656
1702689319428154000,3.363154052734375,0.017099998891353607,0.22259999811649323,0.30889999866485596
1702689319488154000,3.423154052734375,-0.15889999270439148,-0.15330000221729279,0.6796999573707581
1702689319548154000,3.483154052734375,-0.1704999953508377,0.1889999955892563,0.21869999170303345
1702689319608154000,3.543154052734375,-0.005499999970197678,0.14549998939037323,-0.4008999764919281
1702689319668154000,3.603154052734375,-0.4643999934196472,0.05920000001788139,-0.04999999701976776
1702689319728154000,3.663154052734375,0.05649999901652336,-0.11409999430179596,0.20520000159740448
1702689319788154000,3.723154052734375,-0.015399999916553497,-0.0052999998442828655,0.0794999971985817
1702689319848154000,3.783154052734375,-0.1607999950647354,-0.2028999924659729,-0.031599998474121094
1702689319908154000,3.843154052734375,-0.03830000013113022,-0.16740000247955322,0.09939999878406525
1702689319968154000,3.903154052734375,0.08789999783039093,-0.05700000002980232,-0.1347000002861023
1702689320028154000,3.963154052734375,0.3264999985694885,-0.09959999471902847,-0.1517999917268753
1702689320088154000,4.023154052734375,-0.5177000164985657,0.21729999780654907,-0.26579999923706055
1702689320148154000,4.083154052734375,0.08619999885559082,0.19460000097751617,0.12319999933242798
1702689320208154000,4.143154052734375,-0.5123000144958496,-0.28279998898506165,0.2897000014781952
1702689320268154000,4.203154052734375,-0.17889998853206635,-0.10029999911785126,-0.13619999587535858
1702689320328154000,4.263154052734375,-0.07899999618530273,-0.2870999872684479,0.406499981880188
1702689320388154000,4.323154052734375,-0.32339999079704285,-0.05949999764561653,0.4664999842643738
1702689320448154000,4.383154052734375,0.4558999836444855,0.06889999657869339,0.6187999844551086
1702689320508154000,4.443154052734375,0.19949999451637268,0.012999999336898327,-0.12209999561309814
1702689320568154000,4.503154052734375,0.11479999870061874,0.06689999997615814,-0.1890999972820282
1702689320628154000,4.563154052734375,-0.1824999898672104,0.11449999362230301,0.1485999971628189
1702689320688154000,4.623154052734375,-0.4415999948978424,-0.1582999974489212,-0.1508999913930893
1702689320748154000,4.683154052734375,-0.44509997963905334,-0.1533999890089035,-0.3093999922275543
1702689320808154000,4.743154052734375,0.003399999812245369,-0.04829999804496765,-0.07409999519586563
1702689320868154000,4.803154052734375,0.03370000049471855,0.18299999833106995,0.032600000500679016
1702689320928177400,4.863177490234375,-0.635699987411499,0.22119998931884766,-0.4919999837875366
1702689320988154000,4.923154052734375,0.09489999711513519,0.09779999405145645,0.5297999978065491
1702689321048154000,4.983154052734375,0.057999998331069946,-0.11789999902248383,0.1923999935388565
1702689321108154000,5.043154052734375,-0.08079999685287476,-0.39319998025894165,0.05920000001788139
1702689321168154000,5.103154052734375,-0.26819998025894165,-0.13459999859333038,0.023899998515844345
1702689321228154000,5.163154052734375,-0.10759999603033066,-0.04699999839067459,0.11979999393224716
1702689321288154000,5.223154052734375,-0.3700999915599823,-0.033900000154972076,0.273499995470047
1702689321348154000,5.283154052734375,-0.4400999844074249,0.12019999325275421,0.24729999899864197
1702689321408154000,5.343154052734375,-0.05159999802708626,-0.06019999831914902,0.14499999582767487
1702689321468154000,5.403154052734375,0.3563999831676483,0.08089999854564667,0.1014999970793724
1702689321528154000,5.463154052734375,-0.09299999475479126,0.1251000016927719,-0.027300000190734863
1702689321588154000,5.523154052734375,-0.3425000011920929,-0.10419999808073044,-0.2978000044822693
1702689321648154000,5.583154052734375,-0.2897999882698059,-0.211899995803833,-0.2701999843120575
1702689321708154000,5.643154052734375,0.1454000025987625,-0.15289999544620514,-0.04989999905228615
1702689321768154000,5.703154052734375,-0.05480000004172325,0.19999998807907104,-0.3179999887943268
1702689321828154000,5.763154052734375,-0.31119999289512634,0.1314999908208847,-0.3033999800682068
1702689321888154000,5.823154052734375,-0.4339999854564667,0.27129998803138733,-0.281499981880188
1702689321948154000,5.883154052734375,-0.34279999136924744,0.05700000002980232,0.44689998030662537
1702689322008154000,5.943154052734375,0.5480999946594238,-0.29659998416900635,0.33869999647140503
1702689322068154000,6.003154052734375,-0.08879999816417694,-0.31279999017715454,0.11369999498128891
1702689322128154000,6.063154052734375,-0.07229999452829361,-0.2572000026702881,0.4333999752998352
1702689322188154000,6.123154052734375,0.15189999341964722,0.09160000085830688,0.048899997025728226
1702689322248154000,6.183154052734375,0.30149999260902405,0.05429999902844429,-0.11429999768733978
1702689322308154000,6.243154052734375,-0.21529999375343323,0.02709999866783619,-0.07199999690055847
1702689322368154000,6.303154052734375,0.1656000018119812,0.13769999146461487,0.3000999987125397
1702689322428154000,6.363154052734375,-0.11289999634027481,-0.04769999906420708,0.3057999908924103
1702689322488154000,6.423154052734375,-0.5645999908447266,-0.0746999979019165,-0.13030000030994415
1702689322548154000,6.483154052734375,-0.17960000038146973,-0.01209999993443489,-0.2037999927997589
1702689322608154000,6.543154052734375,-0.013799999840557575,-0.04569999873638153,-0.29580000042915344
1702689322668154000,6.603154052734375,0.17090000212192535,0.0892999991774559,-0.3333999812602997
1702689322728154000,6.663154052734375,-0.37389999628067017,-0.3003999888896942,-0.022599998861551285
1702689322788154000,6.723154052734375,0.04910000041127205,0.04809999838471413,0.015699999406933784
1702689322848154000,6.783154052734375,0.3986999988555908,0.016699999570846558,0.0810999944806099
1702689322908154000,6.843154052734375,-0.6717000007629395,-0.311599999666214,-0.1517999917268753
1702689322968154000,6.903154052734375,-0.1923999935388565,0.19209998846054077,0.6342999935150146
1702689323028177400,6.963177490234375,-0.2287999987602234,-0.01889999955892563,0.012299999594688416
1702689323088154000,7.023154052734375,-0.14959999918937683,0.026099998503923416,0.22010000050067902
1702689323148154000,7.083154052734375,-0.7710999846458435,0.15320000052452087,0.14959999918937683
1702689323208154000,7.143154052734375,-0.0989999994635582,0.015399999916553497,0.01899999938905239
1702689323268154000,7.203154052734375,-0.16929998993873596,-0.0142000000923872,-0.038100000470876694
1702689323328154000,7.263154052734375,0.07909999787807465,-0.12639999389648438,-0.022099999710917473
1702689323388154000,7.323154052734375,0.0142000000923872,-0.15139999985694885,0.08799999952316284
1702689323448154000,7.383154052734375,0.03969999775290489,-0.04479999840259552,-0.10379999876022339
1702689323508154000,7.443154052734375,1.0824999809265137,-1.7649999856948853,-1.8813999891281128
1702689323568154000,7.503154052734375,0.7264999747276306,0.42260000109672546,-0.3114999830722809
1702689323628154000,7.563154052734375,0.19589999318122864,-0.1735999882221222,1.3049999475479126
1702689323688154000,7.623154052734375,-0.5073999762535095,0.23330000042915344,-0.6337999701499939
1702689323748154000,7.683154052734375,-0.07800000160932541,-0.16129998862743378,-0.22419999539852142
1702689323808154000,7.743154052734375,-0.05739999935030937,-0.03229999914765358,0.17989999055862427
1702689323868154000,7.803154052734375,-0.014699999243021011,-0.21949999034404755,-0.0982000008225441
1702689323928154000,7.863154052734375,0.021800000220537186,-0.002199999988079071,-0.19219999015331268
1702689323988154000,7.923154052734375,-0.053199999034404755,-0.045899998396635056,0.0405999980866909
1702689324048154000,7.983154052734375,-0.11239999532699585,0.1428000032901764,-0.2685000002384186
1702689324108154000,8.043154052734375,-0.09510000050067902,0.02719999849796295,0.15879999101161957
1702689324168154000,8.103154052734375,-0.18699999153614044,0.047599997371435165,-0.2703000009059906
1702689324228154000,8.163154052734376,-0.07099999487400055,-0.11699999868869781,-0.15629999339580536
1702689324288154000,8.223154052734374,0.1005999967455864,-0.29429998993873596,-0.060999996960163116
1702689324348154000,8.283154052734375,-0.22280000150203705,0.17080000042915344,0.0851999968290329
1702689324408154000,8.343154052734375,-0.4820999801158905,0.3328999876976013,-0.30559998750686646
1702689324468154000,8.403154052734376,-0.08020000159740448,0.3983999788761139,0.07079999893903732
1702689324528154000,8.463154052734374,-0.031099999323487282,-0.037699997425079346,0.045399997383356094
1702689324588154000,8.523154052734375,-0.23579999804496765,-0.04179999977350235,-0.08049999922513962
1702689324648154000,8.583154052734375,-0.027300000190734863,-0.1136000007390976,-0.012000000104308128
1702689324708154000,8.643154052734374,-0.1753999888896942,-0.06039999797940254,-0.0997999981045723
1702689324768154000,8.703154052734375,-0.35249999165534973,-0.44020000100135803,-0.14149999618530273
1702689324828154000,8.763154052734375,-0.11180000007152557,-0.5476999878883362,-0.16429999470710754
1702689324888154000,8.823154052734376,0.16830000281333923,-0.6570999622344971,-0.3358999788761139
1702689324948154000,8.883154052734374,0.016899999231100082,-0.14790000021457672,-0.25209999084472656
1702689325008154000,8.943154052734375,0.012899999506771564,0.19609999656677246,-0.014800000004470348
1702689325068154000,9.003154052734375,0.011899999342858791,0.13529999554157257,0.37219998240470886
1702689325128177400,9.063177490234375,-0.13499999046325684,-0.013899999670684338,0.40789997577667236
1702689325188154000,9.123154052734375,-0.17759999632835388,-0.17569999396800995,0.241799995303154
1702689325248154000,9.183154052734375,-0.17219999432563782,-0.2092999964952469,0.10319999605417252
1702689325308154000,9.243154052734376,-0.0279999990016222,-0.031099999323487282,-0.30949997901916504
1702689325368154000,9.303154052734374,-1.5204999446868896,-0.29189997911453247,-0.19769999384880066
1702689325428154000,9.363154052734375,0.7682999968528748,0.0754999965429306,-0.46719998121261597
