time,seconds_elapsed,z,y,x
1705062671509419500,0.07441943359375,0.19826900299778208,0.06842503202243241,0.059859544149087736
1705062671638276400,0.2032763671875,-0.2735277854638174,-0.017511813449062174,0.1087921822228469
1705062671688694500,0.253694580078125,-0.009068225218358565,0.02134454745426774,0.3325535730693489
1705062671739133400,0.304133544921875,-0.2814487511888146,0.18033556089494376,0.6447361929569393
1705062671789548300,0.35454833984375,-0.23387685267478225,0.05364543257432524,0.892905117291212
1705062671839977500,0.4049775390625,-0.7023330802705139,0.5182459848223254,0.6135296652451158
1705062671890395400,0.4553955078125,2.904192332732677,-0.48789136123210186,-0.11115136736854911
1705062671940846300,0.505846435546875,-2.138429202015698,0.11398182328781112,1.0213753567945212
1705062671991256600,0.556256591796875,-4.282779903034865,1.751411267504841,1.3655327122874557
1705062672041700400,0.606700439453125,-0.041522485114843584,-0.7780953004803508,1.2627132660649716
1705062672092115500,0.657115478515625,1.9914454737655818,1.3991532423384487,1.3389669230535626
1705062672142532400,0.707532470703125,2.4292894862808287,-0.5959708103420213,0.8285277760572731
1705062672192977400,0.757977294921875,2.6651421690732238,0.3792723253527656,0.0969905665390659
1705062672243384300,0.80838427734375,-0.5301974847050384,0.6233106161557138,-2.007066821267456
1705062672293838600,0.858838623046875,-4.769534369191527,0.5442575742395594,-1.556649596774578
1705062672344253400,0.90925341796875,-0.8079377002321183,-0.4120726981272921,-0.7259063366249203
1705062672394668300,0.959668212890625,2.5636551404982804,-0.2166377129790373,0.07790033735022879
1705062672445107500,1.010107421875,3.9130835440725087,2.1634001232735813,1.659050379193574
1705062672495541200,1.060541259765625,1.139790066229552,-1.2186896346170455,1.1792998735148459
1705062672545948400,1.110948486328125,-2.54189105245769,0.3307606617705896,2.5444956819981335
1705062672596388400,1.161388427734375,0.49272130213920023,-2.0822798831619322,3.982610084763169
1705062672646804200,1.21180419921875,2.3100519892208276,0.7776316284913569,0.4041786934744566
1705062672697249500,1.26224951171875,-0.8407432606384158,1.9121596094742417,0.63007368054986
1705062672747664400,1.312664306640625,-3.8094291083306073,1.091003969620168,1.6933325880236922
1705062672798080500,1.36308056640625,1.1618406430613248,-1.8022712477788327,0.5875779162563384
1705062672848524300,1.413524169921875,2.02074331831187,-1.104825866484642,0.8460924396466464
1705062672898939400,1.463939453125,2.951278785817325,-0.47481871183235197,-0.21991532814390957
1705062672949385500,1.514385498046875,-0.9922516267061233,-0.33943156908005473,1.5646302202649414
1705062672999800300,1.56480029296875,-2.36176946310699,-1.3558726112775503,4.274366002693772
1705062673050215400,1.61521533203125,-4.637396766287088,-0.3453452501032501,2.4066794489353893
1705062673100655600,1.665655517578125,-6.165037126198411,0.869603736680746,-0.31369773715827615
1705062673151076600,1.71607666015625,-3.17055749655813,0.7103968519996852,-2.305453117123246
1705062673201502500,1.76650244140625,-1.457892285424471,-0.28362134598754346,-1.0230961892377584
1705062673251920400,1.81692041015625,-0.7245262073781341,-0.6305109759885817,5.506400198987126
1705062673302365400,1.867365478515625,5.76382013207376,4.826797932897508,-0.6335861456502229
1705062673352796700,1.917796630859375,3.3385444114789364,2.0886340744942427,2.3585699364133177
1705062673403211300,1.968211181640625,-0.4307381990980357,-0.2652009058190509,2.962339401274919
1705062673453628400,2.01862841796875,0.3424825541485101,1.7630688259422778,-0.0040610320439678615
1705062673504072400,2.069072509765625,-0.23391479179868474,-1.9944332574047148,-1.5517941195674239
1705062673554488300,2.11948828125,0.8219286700531839,-0.45664574361890553,-4.373921770945191
1705062673604933400,2.169933349609375,1.6582221116758882,0.1063182572568301,-1.6999075824998318
1705062673655348500,2.220348388671875,3.2742747684031723,0.9271732975959778,-2.639322960422933
1705062673705764600,2.2707646484375,-2.582280053730309,-0.016046677366521905,1.2952370869204402
1705062673756204300,2.321204345703125,-0.30327041463553905,-0.01952804978394415,1.1413768239643425
1705062673806635300,2.37163525390625,0.6187723151389509,1.286968586399406,2.9572005770817396
1705062673857053400,2.422053466796875,-1.4492413614571094,4.219312223991752,-1.9428209974586963
1705062673907469600,2.472469482421875,1.2418566482581197,0.2998899236180819,-0.36957331710457797
1705062673957899300,2.522899169921875,-1.3318351714774965,-2.00812246780023,2.743838396908343
1705062674008329500,2.57332958984375,0.5874099758109077,-0.11875527563416398,-0.3075415160834789
1705062674058756400,2.62375634765625,0.40871732328478244,2.2293802235290405,-0.5757498235575854
1705062674109189600,2.674189697265625,-1.0035018464516847,-0.14780310007529332,0.80126954757981
1705062674159605500,2.72460546875,0.3459324754066765,-0.9275702610243112,1.0540851286761461
1705062674210044400,2.77504443359375,0.6461751397188753,-2.3704746014796196,0.911104936978966
1705062674260481300,2.825481201171875,0.9688809071864932,1.3016637589670716,0.8833842786215245
1705062674310891300,2.875891357421875,0.5941932062102482,1.3060770453646777,0.11707432767674326
1705062674361325600,2.92632568359375,-1.6891966572627424,0.4664206666475162,0.02364864141186699
1705062674411758300,2.97675830078125,-2.2741588380627333,1.0697265691179783,1.4982934155263006
1705062674462173400,3.02717333984375,-0.2610621985791251,1.0769188917748629,3.151713095356524
1705062674512587500,3.07758740234375,0.9174027219489216,0.42183980317562814,1.5760580615997313
1705062674563033300,3.128033447265625,0.6715375445123761,-0.42561340343020854,1.8292587695561349
1705062674613448400,3.178448486328125,3.6973812305137512,-0.673486632753536,0.6248228473495692
1705062674663893500,3.2288935546875,-0.09480056394780985,-0.8261210802417248,-0.2859286365492269
1705062674714311400,3.2793115234375,1.2970299616865812,-1.8970640394121407,-0.9267219736319035
1705062674764737300,3.3297373046875,-2.05890090727061,-2.6338711247578264,-0.7469951557524502
1705062674815152400,3.38015234375,0.7787908815290778,-2.5393013282254335,-1.3395333247646688
1705062674865599500,3.430599609375,-0.12304384880671276,-1.1493719874367117,-0.8988779811557381
1705062674916021200,3.481021240234375,0.5654033111860975,1.0800857583079486,-0.9848200884658843
1705062674966459400,3.53145947265625,0.4549167278692126,0.7024206854887306,-1.3849258334130048
1705062675016860400,3.5818603515625,0.7294874830473214,-0.5611837207296863,-1.237597383378446
1705062675067306500,3.632306396484375,0.8355170504227281,-1.4814809585437179,-0.4558544836433604
1705062675117720300,3.68272021484375,0.21903381433533503,-1.3289198685526846,-0.6456918862465769
1705062675168166400,3.73316650390625,-0.191394039194379,-0.4891198801137507,-1.291125706078857
1705062675218570500,3.783570556640625,1.836563101220131,-0.49858694276958704,-1.2839930777199566
1705062675268996400,3.833996337890625,1.0602683473557233,-0.5396933715965598,-0.9715231653235852
1705062675319442400,3.8844423828125,0.4240173298778012,-0.8266258148934692,-0.9572682108040899
1705062675369894000,3.934893798828125,0.08576940849120729,-0.648951107238233,-1.206153612844646
1705062675420308700,3.985308837890625,0.7680427660867571,-0.154413494658377,-1.251781099292636
1705062675470737000,4.03573681640625,1.3089777352422476,-0.3877143558098003,-0.7775615589298307
1705062675521182700,4.0861826171875,0.614784341481328,-0.15922489526178688,-0.15159942361833526
1705062675571616000,4.136615966796875,0.3171801359139383,0.29561458438644184,0.2680406227570027
1705062675622028800,4.18702880859375,0.4097344644380733,0.1685339908769354,1.122617762958631
1705062675672445000,4.23744482421875,1.8958955801546573,0.07547052095399703,2.7174302824541923
1705062675722890800,4.287890869140625,1.3191973698310553,0.6050262234570458,4.084768436728417
1705062675773304800,4.338304931640625,-1.3676713317513465,-0.3340970031190663,4.533688262270391
1705062675823736800,4.38873681640625,-0.06807403576083015,0.07016596653878222,2.5915271900251504
1705062675874164700,4.439164794921875,-0.0887165221932344,-0.0375865658714436,1.1438601652126759
1705062675924579800,4.489579833984375,1.1673097221221773,0.36054080994110554,-1.3094729714132844
1705062675975027000,4.54002685546875,-2.2572836911074816,-1.6099686606384813,-3.565844223850965
1705062676025441800,4.59044189453125,-2.448897273070365,-1.8428079869590699,-2.0270482636749745
1705062676075857000,4.64085693359375,1.1950953354746103,-0.6292596607532351,-0.5494863417385145
1705062676126304800,4.6913046875,2.0638301803663373,1.2475854011684655,0.5271973165083677
1705062676176732000,4.74173193359375,0.5164037179565056,1.4123662135243416,0.7029135835722088
1705062676227136000,4.792135986328125,-3.6825273602530357,0.3069196213254705,0.4601048345642164
1705062676277592000,4.842592041015625,-1.4646876446530221,0.08849155433094129,-0.04859458349212072
1705062676328006000,4.893005859375,0.42993568707611407,-1.2650360099241136,-0.24395927074998616
1705062676378437600,4.943437744140625,0.5516987205583602,-0.6725086545668542,-0.7466302679628133
1705062676428860000,4.99385986328125,0.4709587484685704,-0.11857104164105839,-0.7116019169405102
1705062676479268900,5.044268798828125,-0.6638866644330322,0.6143579327628016,0.11641165338377468
1705062676529715000,5.09471484375,1.6596721643537282,-0.12114160451511852,-0.5602885619882494
1705062676580129800,5.1451298828125,-1.9065350475907326,-1.5778922912895679,-0.1815821268899366
1705062676630574800,5.195574951171875,0.10384386649993248,0.708797015587613,1.07175120681338
1705062676680988700,5.24598876953125,1.2341646324507891,2.0674040933303535,0.4168591286862269
1705062676731404800,5.29640478515625,3.066263886129856,1.9710497514687477,-1.0516621393129229
1705062676781851000,5.346850830078125,4.517890973679721,2.9495176213636993,-0.4204110855467617
1705062676832265000,5.397264892578125,4.3235380298808215,-3.2955463967517016,0.17701967781260608
1705062676882710000,5.4477099609375,-0.9311470965977757,-2.883185492800176,2.020299081675708
1705062676933128000,5.4981279296875,0.260151038550958,2.1752210555791853,4.766103517960012
1705062676983563000,5.54856298828125,-3.1112694412872193,0.8319641802467406,0.8106673443917185
1705062677033970000,5.598969970703125,-4.9872822171032425,-3.8671877620771524,-3.5572239872828124
1705062677084416800,5.649416748046875,0.09973671430889516,0.825102916175127,0.5573253282684832
1705062677134829800,5.699829833984375,-0.18444412872493265,-0.6342775619804859,1.1510611095674335
1705062677185257000,5.750257080078125,-0.004102892716095084,2.423135201434791,1.0592535442899913
1705062677235676700,5.8006767578125,0.4747176626106724,0.0416820002252236,-1.669125490745157
1705062677286122800,5.851122802734375,-0.10910255421311595,1.0661316864311694,-0.8570981831118464
1705062677336536800,5.901536865234375,-1.291613343465328,3.155201521994173,-0.3271972336679697
1705062677386953000,5.951952880859375,-1.5402940897792576,-7.223993221911788,0.7690595419138669
1705062677437398000,6.00239794921875,-1.1057390358068049,-7.1231357234120365,1.275588237468153
1705062677487814000,6.05281396484375,-1.8908331821985542,-0.27312428269684313,1.7958362462952733
1705062677538258700,6.1032587890625,-1.285680007893592,1.2970907519631087,1.0915477941732854
1705062677588673800,6.153673828125,0.28223884212058037,2.418331746675819,-0.600171513434872
1705062677639103000,6.20410302734375,-1.8166389419578015,2.631450911873579,-1.1643575943183153
1705062677689536800,6.254536865234375,1.3878363140322267,0.13604194426606409,-0.48353550411015744
1705062677739963000,6.304962890625,-1.3185859599344432,3.127818717288971,0.35551929198466237
1705062677790377700,6.355377685546875,-1.7682630335845053,4.534273953203857,0.9700755968637764
1705062677840792800,6.405792724609375,2.470770812834799,1.5724696817189454,0.7752088583238422
1705062677891231700,6.456231689453125,3.4322400555253028,-6.047680328318476,-2.3218426725186405
1705062677941659000,6.506658935546875,-1.897094288419932,-6.57554451123774,0.9352951561879366
1705062677992098800,6.557098876953125,0.306911474551633,-1.0995939571805298,0.9606749505076557
1705062678042499800,6.607499755859375,-0.8242297866024076,0.7355108349900692,0.2698659750206396
1705062678092946700,6.65794677734375,-0.12133436887455172,-0.539634846342355,0.1060430753109511
1705062678143360800,6.70836083984375,0.014093664152204291,0.6957770096905529,0.8839609094657004
1705062678193808000,6.758807861328125,-1.8077305360980331,2.8683617254167793,-1.8819193695113061
1705062678244228900,6.809228759765625,-2.1741044726394114,7.913871090561151,-1.2933913129232824
1705062678294637800,6.859637939453125,-1.9416702199883757,1.0565241193260997,1.4958957067348062
1705062678345083000,6.910082763671875,0.4655442126065492,-10.884234808337688,0.8604368260152637
1705062678395497700,6.960497802734375,-1.4408277533769607,-3.2297511515438555,-0.4014070368040353
1705062678445922800,7.0109228515625,2.9529119399771093,-2.7813699629232285,-0.0650226670998847
1705062678496340700,7.0613408203125,2.3773881802603603,-0.8121705154962837,3.720073539315164
1705062678546788000,7.1117880859375,2.4889026818528768,2.0061402079418302,2.015517692618072
1705062678597202000,7.162201904296875,-0.7780886515438556,1.904163350023329,-1.2998704458095132
1705062678647633000,7.2126328125,-0.418706400520727,3.2759751425802706,-0.6805142663680016
1705062678698048000,7.263048095703125,0.0727295425496297,0.6391467754520476,0.6393086880154907
1705062678748494800,7.313494873046875,-0.4879380864506587,-0.22274640511767937,-0.495245304191485
1705062678798910000,7.363909912109375,-2.3279785449251533,-2.4481650132730604,2.811245168966055
1705062678849326800,7.414326904296875,-1.0961496619455515,1.046798771060258,1.5907396440334618
1705062678899771000,7.46477099609375,-1.1035497090689836,1.6126131837978959,0.34110651655495167
1705062678950184700,7.515184814453125,-2.831116282866895,0.15275603717439806,-0.21659301532078534
1705062679000630800,7.565630859375,-2.6221730881795287,-1.6626899047397077,0.6517903492521494
1705062679051046000,7.6160458984375,-3.088119744107127,-0.040974925101525145,0.005643848251758027
1705062679101460000,7.6664599609375,3.0898204105451703,-0.7873958474628627,1.657428038688749
1705062679151888000,7.716887939453125,3.9036359167695043,-1.4932497222706675,2.4250252529650926
1705062679202338000,7.767338134765625,2.1477201774522663,-2.9548753490045665,0.20402700026892123
1705062679252750800,7.817750732421875,1.114340348478779,-1.342481653176248,0.6671607176676392
1705062679303196000,7.86819580078125,0.6084497316323221,2.0649486630022524,1.203603563035652
1705062679353610800,7.91861083984375,-0.07363568390938453,4.7006163157880305,1.7144158541932701
1705062679404038000,7.969037841796875,-0.6991938323967158,3.9088723561182617,0.28430828707208855
1705062679454472000,8.019471923828124,0.48530360976122316,2.7438629468277096,-0.8074224441863596
1705062679504903700,8.069903564453124,-1.56384929902032,1.0554022756893187,-0.29209996386161075
1705062679555318800,8.12031884765625,0.5140284767251462,1.9555952849663794,-0.21179737854208797
1705062679605732900,8.17073291015625,-1.6112817890636622,-2.9539173176273703,0.2636255645274184
1705062679656179000,8.221178955078125,-1.9509908599108456,-5.4602907742410896,3.092214904466271
1705062679706592800,8.2715927734375,-0.06565503758613485,0.16714671950330956,0.15683759826645255
1705062679757022000,8.32202197265625,4.477451703524589,0.22311364926118402,1.211055194215849
1705062679807454700,8.372454833984374,1.5692713240690528,-3.632932723739743,-0.3383659126099199
1705062679857869800,8.422869873046874,0.5771668507486581,-3.731466455467045,2.263825513966381
1705062679908316000,8.47331591796875,1.8750996064938603,0.25452786490693685,0.43634529839009045
1705062679958743800,8.523743896484374,0.8427395490221679,6.309346228411793,-1.252096887243539
1705062680009159000,8.574158935546874,-1.5624159052163362,3.523529807473719,-1.1556898653466254
1705062680059574800,8.62457470703125,-2.038520382542908,-1.0656401765871792,0.5072617590691894
1705062680110019800,8.675019775390625,-2.061155554329604,1.5129672530449927,1.592126714477688
1705062680160451800,8.725451904296875,-0.1717154704572633,-0.3802977959429845,-0.689476009850204
1705062680210867000,8.775866943359375,-2.010368054769933,-2.1427365438207984,0.7097611113794148
1705062680261282000,8.826281982421875,-3.1045082765892147,3.599286474725604,0.1176652062419802
1705062680311726800,8.876726806640624,0.3598326251391321,-3.145082571300864,0.5449139192564413
1705062680362187300,8.927187255859375,7.744934912091493,-10.565610757225752,6.6681561594396825
1705062680412607500,8.977607421875,5.642312059733271,-0.8160192268136889,-2.7717019708678126
1705062680463053600,9.028053466796875,-0.9020319151420145,-4.377058315405249,0.17179147656923158
1705062680513467600,9.078467529296875,1.3898838942117988,2.5928832808092235,-0.4796018179230392
1705062680563913500,9.12891357421875,-1.5598659284725784,4.5574949620544905,1.6788272389397023
1705062680614328300,9.179328369140626,-0.29858265867810696,5.398294629055261,1.7314353780552745
1705062680664758500,9.229758544921875,-3.2897914864867923,2.934486348709464,1.3830179539650678
1705062680715172600,9.280172607421875,-0.7959134273741394,-2.2907445005521176,-0.30597353611439465
1705062680765617400,9.330617431640626,-0.7764354044441133,-4.092387387299538,1.6771636896416544
1705062680816032500,9.381032470703126,-3.6941207674130796,-0.7254633420977741,3.018179654179513
1705062680866465300,9.43146533203125,4.557132558482885,0.9187987063519656,-0.7670557278107851
1705062680916880400,9.48188037109375,3.745413440015912,-4.807682605800032,0.3980155677348375
1705062680967309600,9.5323095703125,0.9698540630675851,-3.100581166273355,-0.12248929279702715
1705062681017741600,9.582741455078125,1.0029420206118373,1.349783208361268,-1.1069952464129775
1705062681068156400,9.633156494140625,1.4722940280035137,8.101574513342976,-1.7862163311652839
1705062681118584300,9.683584228515626,0.0986758344785776,5.254889782205224,-1.1351776770632713
1705062681169016300,9.734016357421876,-2.0318435351274906,2.657715526203811,-0.20523560887370257
1705062681219462400,9.78446240234375,-0.7950915165320038,-0.2066878535086289,2.232935139531642
1705062681269859600,9.834859619140625,-0.9417407521307468,-4.764978897844255,3.198563693858683
1705062681320291600,9.88529150390625,-2.8243203391164537,0.09493235536762512,-0.6714624334495515
1705062681370737700,9.935737548828126,-0.8310773144096135,-4.692115321685374,1.8529210924334822
1705062681421159400,9.986159423828125,5.664719706374407,2.747381768603623,0.1917047125787474
1705062681471586600,10.036586669921874,5.359334491541981,-4.539991746328771,-1.1989178163722156
1705062681521996500,10.08699658203125,1.3324850136883557,-1.4238729653142392,-0.7322039023991673
1705062681572438500,10.1374384765625,-0.4790931377485394,3.2346056058377024,0.6439882971990853
1705062681622855400,10.18785546875,-0.5988429317122325,5.460851330733299,0.30368337935060263
1705062681673282300,10.2382822265625,-1.1139653776865452,3.3489214285865425,-0.6709001964569091
1705062681723712500,10.28871240234375,-0.4433463362585753,1.4069171543382106,0.3022508257968351
1705062681774132500,10.339132568359375,-0.578227977174148,-2.9108383466184136,-0.09999658908778801
1705062681824575500,10.389575439453125,-0.6666648239094763,-2.002566002716869,-0.9462612252298742
1705062681874988500,10.439988525390625,-2.723587636040151,-2.330746548333764,2.012925045776367
1705062681925407500,10.490407470703126,4.65330160690546,0.6527780451152473,-1.854270899607241
1705062681975840300,10.54084033203125,4.69329722494632,-3.3113372556015848,0.8431826896797865
1705062682026285300,10.591285400390625,0.9837163650076836,-2.109782076463103,-0.3379357410317287
1705062682076701400,10.641701416015625,1.742157409208268,-2.0535158532314,0.7258745532471687
1705062682127116500,10.692116455078125,0.7621715359658002,1.9546967286914585,1.5898875572487712
1705062682177546500,10.74254638671875,-0.9470428771268575,6.19338585332632,0.11957369761127047
1705062682227989500,10.792989501953125,-1.5959978568226099,3.9434073706656694,-1.0898094991385936
1705062682278415400,10.843415283203125,-1.7729291256994009,1.8392619849152863,1.9504219739817081
1705062682328850400,10.893850341796876,-1.0773488076247275,-1.95618609046638,2.1538990122176704
1705062682379251500,10.94425146484375,-1.8957466732032595,-2.0453316699929536,1.532730961048603
1705062682429696500,10.994696533203125,0.6571163665805012,-4.86258294750601,0.5088966667946427
1705062682480115500,11.045115478515624,4.998858673128486,-1.5330034943796693,-1.0768660656090825
1705062682530541300,11.095541259765625,4.93417255820632,-2.6111416988164184,0.6643512132048607
1705062682580971500,11.145971435546874,3.14068930477798,-2.8299931240558625,-1.0647390630289912
1705062682631388400,11.196388427734375,-0.7810174715373664,1.7569697784148155,-0.9895793387569487
1705062682681834500,11.24683447265625,-1.2107820032976566,5.775317677643895,1.3169905074365436
1705062682732248600,11.29724853515625,-0.7923623838290572,4.601314230036735,-0.5710691914606839
1705062682782664400,11.34766455078125,0.8202181398082524,2.662742122194171,-3.085266400502622
1705062682833108500,11.3981083984375,-1.5498080603167415,-2.764771879343688,0.124304580324376
1705062682883523600,11.448523681640625,0.11009036880722269,-3.2622298180833456,0.7229995823327452
1705062682933970400,11.498970458984376,-2.1097369221471247,-3.721107850798964,2.091657367838174
1705062682984385500,11.549385498046876,2.5542083899781107,-1.1352588525407015,0.3951836687771603
1705062683034800600,11.599800537109376,4.476501855453849,0.8361991874679923,-1.4701166839644313
1705062683085245400,11.650245361328125,2.7443478077352044,-5.631116127458214,-1.17026820660159
1705062683135674400,11.70067431640625,1.3384351542644202,0.30480261090518906,2.258462964019924
1705062683186089500,11.75108935546875,1.3469997151225805,3.026131197705865,-1.1425718789678065
1705062683236504600,11.801504638671876,1.6200667146742342,4.676826859399676,-1.1815889343000947
1705062683286935300,11.851935302734375,-0.13871435094624757,4.62830131342262,0.4289574896937236
1705062683337370400,11.902370361328124,-2.5862454502299426,1.1120332405801863,1.3790240620233118
1705062683387797200,11.95279736328125,-0.9153082338877022,-2.002261759073287,2.777564140899479
1705062683438212400,12.00321240234375,-2.337398991960287,-3.102748865701258,0.9737569157250225
1705062683488656600,12.05365673828125,-2.4538527035206554,-2.7479440786615013,-1.3046306459486483
1705062683539071500,12.104071533203125,6.776347069567442,-1.5920638783745467,1.2309181978754697
1705062683589518600,12.1545185546875,4.6448117187187075,-2.031638514074683,-0.35618601226508617
1705062683639933400,12.204933349609375,2.996081219618022,-2.6864044450715183,-1.087483028952405
1705062683690354400,12.2553544921875,0.5534255443509668,0.27424117616387084,0.5180764004090801
1705062683740793300,12.30579345703125,-0.6937647930853068,5.245117745253443,0.6990210331130773
1705062683791208400,12.35620849609375,-1.029756450844556,5.767462287968397,-0.15481330763092263
1705062683841637400,12.406637451171875,-0.4821171982774511,3.079536916939914,-1.0697614943008869
1705062683892052500,12.457052490234375,-1.0236156830672174,-1.5293572468318044,-0.11546308395466767
1705062683942497500,12.50749755859375,1.1666470204297452,-5.527431296578049,-0.04574583386434242
1705062683992907500,12.557907470703125,-6.015018414166569,-3.6225986689910292,2.1705127317577597
1705062684043359500,12.608359375,4.813665187340974,-1.2498286500506102,-1.3117488073907793
1705062684093759500,12.658759521484376,5.910024838775396,-1.225597368178889,0.9338096668705343
1705062684144205300,12.709205322265625,0.510615745672211,-3.551286706188321,-0.8608066091757267
1705062684194620400,12.759620361328125,3.484019342601299,-2.0521059864334763,2.0650633754231036
1705062684245036300,12.810036376953125,2.2443100816354153,4.000957642358541,0.20715563541715964
1705062684295464400,12.86046435546875,0.2988285962631926,6.640075727859139,-1.0836266457851975
1705062684345896400,12.910896484375,-0.6448102811064571,4.181367985522747,0.21981564889540894
1705062684396341500,12.961341552734375,-0.652646600755304,1.9198950260318814,1.710670822446048
1705062684446757600,13.011757568359375,-0.19058348999647423,-4.364734255883097,0.5724857802603394
1705062684497172500,13.06217236328125,-2.389123041717708,-3.752028474241495,0.09083220830610952
1705062684547617500,13.112617431640626,1.7727976082742214,-2.973528611548245,2.705047770743072
1705062684598038500,13.16303857421875,1.1786238008841872,2.9519176682427526,0.8175599534496665
1705062684648460300,13.213460205078125,7.429781751960515,-2.79107448759675,2.338899021259695
1705062684698875400,13.26387548828125,3.762711196297407,-2.035790519187599,-1.6697626196049153
1705062684749322500,13.314322509765624,1.8854225553266704,-0.824018847265467,-1.8759199829660356
1705062684799753500,13.36475341796875,-0.3566278742810711,1.6882314654923976,0.32506829534787685
1705062684850169300,13.41516943359375,-0.7152699379287659,5.469892130801082,-0.44888669045735147
1705062684900584400,13.46558447265625,-0.9911233533285557,4.681204928353429,-0.7188831599898636
1705062684951028200,13.5160283203125,-0.5117068288445472,0.37910011059101667,0.22971434443416072
1705062685001444400,13.5664443359375,0.4769191912429407,-1.7752156292013823,-0.6605968291074037
1705062685051890400,13.616890380859376,-1.3475941738843917,-2.3530722157798705,-0.14554885487509892
1705062685102304500,13.667304443359376,-3.992537312276661,-2.084298675638437,2.960482959753275
1705062685152720400,13.717720458984376,3.987802392709255,-2.135424174980819,-0.8934513529971242
1705062685203145500,13.7681455078125,4.682157406772673,0.858304124835506,1.0627217318572104
1705062685253579300,13.818579345703125,1.3268195352725685,-3.8504666366398332,-0.8499091483905911
1705062685304025300,13.869025390625,2.112595818709582,-4.198893997602164,3.0372189934313294
1705062685354446800,13.91944677734375,1.4582299929462372,4.481114025424421,-0.21928700364511458
1705062685404884000,13.969884033203124,1.0014924063254147,5.3936167003721,-1.1354058597959578
1705062685455299800,14.0202998046875,0.5924144330346957,4.88703466719538,-0.09948773538335226
1705062685505719800,14.0707197265625,-1.8716516579970717,0.7954025552425533,0.8773813849449157
1705062685556159700,14.12115966796875,0.445714709357731,-1.191744563741982,0.7871392423532902
1705062685606572800,14.17157275390625,-1.3990201174780725,-4.294107060474157,0.3045852235611528
1705062685657006800,14.2220068359375,-3.4233722739368675,-0.8883666701439767,0.4549356152327731
1705062685707452700,14.27245263671875,-0.9968421693667768,-2.325952738185972,2.4791531489938494
1705062685757867800,14.32286767578125,4.892214700181782,-0.8427412295226007,3.6172041164711115
1705062685808281900,14.37328173828125,5.148222136121988,-3.2127225675925613,-1.3809138212926686
1705062685858729000,14.42372900390625,2.8793574589446185,-1.022816349383071,-1.195096212257445
1705062685909143800,14.474143798828125,-0.1552258887534961,1.0056471148520707,1.0609940312817692
1705062685959558700,14.52455859375,-0.18007701955661176,4.931684833043813,-0.42211156932171434
1705062686010003700,14.575003662109374,-0.8931353458505124,3.7149104574635623,-0.5909649283461272
1705062686060417800,14.625417724609376,-0.8586663822766393,1.6008737922959029,-0.39959341151081024
1705062686110836700,14.675836669921875,-2.2126292874753473,-1.8951443233959375,-0.13241430095396936
1705062686161292800,14.726292724609374,0.05778455080620479,-3.9242508347749707,0.4924185928655788
1705062686211708700,14.776708740234374,-4.253502078363299,-1.9704615763172506,1.1714915378514676
1705062686262140000,14.827139892578124,6.011469197252392,-0.6721223586630076,0.9652652009073645
1705062686312554800,14.8775546875,4.138421700982749,-2.760570628261566,-0.3125520011892542
1705062686363000800,14.928000732421875,-0.18991112542655317,-3.8342555065512656,1.2001274844229222
1705062686413409800,14.978409912109376,3.8104803709492083,1.3801350920051336,2.044904969013482
1705062686463830800,15.028830810546875,1.146928101415932,4.880616909107566,-1.4298628533788025
1705062686514276900,15.07927685546875,1.5080061235062776,6.174082017919421,-1.1179510863218456
1705062686564691700,15.129691650390624,-1.2565879150524735,3.0517879092708227,0.6602353753838688
1705062686615105800,15.180105712890626,-1.7338311871506273,-0.631928514636308,2.0933599339723585
1705062686665552000,15.2305517578125,-0.2379114054204896,-3.75151526402235,3.166376996003091
1705062686715978800,15.280978759765626,-2.0498871413402258,0.41434064305927604,0.8922154545266181
1705062686766411800,15.331411865234376,-0.058543219119822604,-3.960158891241252,-0.3329100583568215
1705062686816828700,15.38182861328125,4.5235485610499975,-1.500103387557715,1.6074889726519583
1705062686867251000,15.4322509765625,6.0507169195353985,-3.783211548012495,0.592239551391825
1705062686917670700,15.482670654296875,2.4935277113050223,-2.6357187984511254,-1.8232684431001542
1705062686968117800,15.53311767578125,0.09070163159584627,2.169566683079302,-0.3863391219338402
1705062687018541800,15.583541748046875,-0.5812898854954168,5.34510664422512,0.13184727818835526
1705062687068945000,15.63394482421875,-0.15117938070851378,4.053720972035825,-0.5128224984688684
1705062687119392000,15.68439208984375,-0.4169078997313976,0.6010081103894859,-1.227822277686745
1705062687169824800,15.73482470703125,-1.668909948298335,-1.0456497471556068,-0.23154861065661533
1705062687220238800,15.78523876953125,-0.5288119851633906,-3.329195860636234,-0.25219359500678257
1705062687270655000,15.835655029296875,-4.670212409695982,-3.22956498132199,2.2774729310467836
1705062687321102800,15.886102783203125,5.123668709623813,-0.8369718523409218,0.23624619388831777
1705062687371509800,15.936509765625,6.820529325643181,-2.558499072909355,0.5303614796277135
1705062687421960700,15.986960693359375,1.047549735558033,-1.8752996591106057,0.31867351627685125
1705062687472375000,16.037375,3.927521819269657,-3.060646046248078,2.2480295405499637
1705062687522789600,16.08778955078125,1.0049630050454288,2.753174380530417,-0.5243428403927013
1705062687573239800,16.13823974609375,1.8634185210503638,6.052825874513387,-0.7495241627734154
1705062687623652900,16.18865283203125,-0.3749828845305368,4.248626873542368,-0.18546293211234732
1705062687674080800,16.239080810546874,-0.9972994116149843,0.9995901529006659,1.1071360431231558
1705062687724494800,16.289494873046873,-0.05047312724771909,-1.2357853655204176,1.8913253496296702
1705062687774926800,16.3399267578125,-2.0025259629674257,-4.82373620723933,1.0961532421421258
1705062687825371600,16.39037158203125,-0.5013150890918449,-0.2976633336097933,0.5612310304701328
1705062687875786800,16.440786865234376,1.473199744671583,-1.3135587794221937,-0.8054147576257586
1705062687926205000,16.491204833984376,4.507883958928287,-1.7107928413905202,3.4604517122700806
1705062687976648000,16.54164794921875,1.684568120679259,-0.9211578366987406,-0.019143459496705328
1705062688027062800,16.592062744140627,2.0796998035408554,-0.3889921937258914,-0.16335490773860364
1705062688077507800,16.6425078125,0.8076667743362486,3.1878987997204065,-1.1593920078001916
1705062688127922700,16.692922607421874,-0.4208687296537682,5.43757333099842,-0.6679365243457257
1705062688178337800,16.743337890625,0.1185698634641245,1.8638798549517988,-0.41036534622013565
1705062688228788000,16.7937880859375,-2.1407468313083053,-1.351692110722512,-0.24061929440600796
1705062688279199000,16.844198974609377,0.5943626810256392,-1.1424319590404628,0.17907989827804266
1705062688329613800,16.89461376953125,-2.0916034456938504,-4.223645869281888,0.9193534176252782
1705062688380042800,16.945042724609376,2.9339442046567794,-1.962343297921866,-0.10545807849722914
1705062688430488800,16.99548876953125,6.529529779037833,0.3989502913016826,1.1043368408586829
1705062688480904000,17.045904052734375,2.0155014721356332,-3.7038057106032967,-0.4235189884342253
1705062688531339800,17.09633984375,2.953374881313741,-2.0833222318217155,2.2204729867130517
1705062688581774600,17.146774658203125,3.2273847146734593,2.487597152212262,1.506436243841052
1705062688632195600,17.197195556640626,1.8907602630928158,4.652595796723664,-1.6534176340036093
1705062688682611700,17.24761181640625,1.6370193107798694,4.965196642023325,-0.822550089887157
1705062688733055700,17.2980556640625,-0.8682283566743135,1.5725586751766503,0.9765552412066608
1705062688783471900,17.348471923828125,0.8339046467900275,-0.3100644586898386,1.9411010417982935
1705062688833894000,17.398893798828126,-0.6896214827354997,-4.069230675856769,0.4742079960554838
1705062688884332800,17.449332763671876,1.8348408074721694,0.6901675723109394,1.5036903061337767
1705062688934750700,17.499750732421877,0.6275433583546429,-5.610788209700584,0.856609376681596
1705062688985176800,17.5501767578125,6.2856409431755536,1.431864548590034,0.5242586692405864
1705062689035591000,17.6005908203125,6.312754575550556,-3.712788935264945,0.8948902997590601
1705062689086035700,17.65103564453125,4.038534508819878,-2.0084717196293176,-1.5853544438637792
1705062689136448800,17.70144873046875,0.64754642807208,2.3928806406855583,1.0487599150653928
1705062689186897000,17.75189697265625,0.9666132545154541,4.763151974678039,0.5944438565030694
1705062689237311700,17.802311767578125,0.1488690031406004,3.838978735680878,-0.04806521215604152
1705062689287721000,17.852720947265624,0.6029127019017935,1.2210569482702762,0.2265797362028621
1705062689338155800,17.90315576171875,-0.22589434775458647,-1.2017134384401142,0.615370397740975
1705062689388591900,17.953591796875,0.9723415690343826,-3.080090751430392,0.19254488972993566
1705062689439025000,18.00402490234375,-3.3816207521393893,-3.0984862398207187,1.7153240550793707
1705062689489448700,18.05444873046875,2.9430712217032906,-2.981533346566558,-0.727233274379745
1705062689539880700,18.104880615234375,4.761992575509846,0.7201982611764222,1.4013232798539101
1705062689590295800,18.1552958984375,4.081506220062077,-2.632670224535465,0.9899711876187473
1705062689640710000,18.2057099609375,3.1562086532101032,-3.070199472013116,2.130752383777499
1705062689691154700,18.25615478515625,2.5427874167755244,1.4522100020043551,0.5947866420587524
1705062689741581800,18.306581787109376,2.7402435872867703,4.802563363090157,-0.4587775314832106
1705062689792016000,18.357015869140625,1.6118522824279964,5.830687098166346,-0.9164971514113247
1705062689842414800,18.407414794921873,-0.31283450792506334,1.8246853241607546,0.5271197942927479
1705062689892860000,18.45785986328125,0.7813472149483859,-1.1883576977826653,1.856233870243281
1705062689943276000,18.508276123046876,-1.4949004120871423,-2.55929226911366,0.06371650727160741
1705062689993720800,18.558720947265623,-2.1084550656430423,-0.964834262144193,0.5743009399235248
1705062690044149800,18.609149658203126,1.0336803462900221,-2.3664061829969287,2.767506857265532
1705062690094567000,18.65956689453125,3.609118425171077,-0.8765717490624636,3.5472575968027114
1705062690144981800,18.709981689453127,6.321442908918857,-3.304449541914463,-0.9717864193696528
1705062690195427800,18.760427734375,2.958248040308058,-1.1450829850059001,0.5620103808121756
1705062690245844000,18.810843994140626,1.7114032283738254,0.6881624430336057,0.7203339433200657
1705062690296257800,18.8612578125,0.8765679496701806,5.495984018912911,0.13976055379724128
1705062690346748700,18.911748779296875,-0.2120804332671687,5.0781601733803745,0.3975740345124155
1705062690397180700,18.9621806640625,-0.01550561673429329,1.3959049080669879,-1.0766056611072272
1705062690447624700,19.012624755859374,-0.9102632254578172,-0.9405705393075943,1.3333926300525665
1705062690498040600,19.06304052734375,-0.6369155092686415,-2.958740207739174,-0.2934499719647691
1705062690548455700,19.11345556640625,-3.4311227419331667,-2.2442216726996005,2.5786639090597627
1705062690598894600,19.16389453125,7.180458031567931,-1.2472045851573348,-0.18766036909138784
1705062690649330700,19.21433056640625,5.29993654615581,-1.0630429997008293,0.6740544957693666
1705062690699744800,19.264744873046876,2.572660869252682,-3.9050679953992367,0.4619198846295476
1705062690750159600,19.31515966796875,3.651043842230737,-2.5562457410246133,3.066683572846651
1705062690800590800,19.3655908203125,2.6795065022513267,3.5877386602729557,0.25907981085656206
1705062690851036700,19.41603662109375,2.603290985316038,6.382987803205848,-1.7575233206443488
1705062690901452800,19.466452880859375,0.9652293989416211,4.389697139964998,-0.719235407493636
1705062690951893800,19.516893798828125,0.07896579289096407,1.542291839467734,1.7404580579444766
1705062691002313700,19.567313720703126,0.6789679137088358,-1.9514139076285064,2.9577155408665536
1705062691052728600,19.617728515625,-3.281694104748964,-3.1619884056553245,-0.777486447867006
1705062691103172900,19.6681728515625,-0.7501376915618777,-2.612213419701159,0.6889999898362904
1705062691153587500,19.71858740234375,3.9048403241232035,0.20742263405658304,1.4477479080289601
1705062691204003800,19.76900390625,5.098423209208249,-1.0264774291738867,1.202052607266605
1705062691254430700,19.8194306640625,6.199693429037929,-3.9747316064730285,0.08003895681411959
1705062691304864800,19.86986474609375,1.7875598547287284,-0.14015851273941807,-0.009316985519014997
1705062691355290600,19.92029052734375,-0.4782794832780957,4.317657155148685,1.2406471263378858
1705062691405707500,19.97070751953125,0.5826224492734298,4.5231963866114615,1.1856783955708146
1705062691456153600,20.021153564453126,-0.20403596902666613,4.013487745846808,0.029731240128027272
1705062691506564600,20.071564697265625,0.008576820405645412,2.137233270229399,-1.0958061822701244
1705062691556998000,20.121997802734374,0.7218759120650589,-1.5196255418904125,0.36738501328006384
1705062691607428900,20.172428955078125,-0.9623681642916053,-4.088618097893893,0.35201183185297996
1705062691657860900,20.22286083984375,-1.41081167755872,-1.84383323835358,1.128909410448745
1705062691708276700,20.27327685546875,4.822879590409994,1.411209590835124,1.9039742571920155
1705062691758690600,20.323690673828125,4.147447888003289,-1.6252809421911836,0.20272662172745912
1705062691809136600,20.37413671875,2.5415418006286026,-3.797274560156464,2.0872199699126184
1705062691859551700,20.4245517578125,1.979798728983104,-0.6138818396836518,2.2269905519135293
1705062691909997800,20.474997802734375,2.387240881232917,4.128025686913729,-0.4019896589975804
1705062691960412000,20.525411865234375,2.073397926917672,6.0122454423218965,-0.31040771916955706
1705062692010827800,20.575827880859375,-0.27388142120707776,3.4962267900064585,0.5129141222750768
1705062692061273900,20.62627392578125,-0.5817800801651551,0.5039622060671448,1.5629019351676106
1705062692111703600,20.67670361328125,1.1439762658730148,-3.029922991204262,2.49397896220386
1705062692162117600,20.72711767578125,-0.6429536203891039,-3.5469530608981845,1.8895562941305337
1705062692212532700,20.77753271484375,1.6451790902294217,-2.902524399520457,1.2619164165988563
1705062692262977500,20.8279775390625,3.4209067606061696,-3.2100960184812544,1.2366529421351848
1705062692313409800,20.878409912109376,5.394326309946179,-3.387115550163388,1.257460460103303
1705062692363823600,20.92882373046875,3.4982597571387886,0.5934734040357172,0.4111282203514129
1705062692414257000,20.9792568359375,0.6848350521765649,3.471605851230025,0.0776308088270016
1705062692464679700,21.0296796875,0.14241812823447397,4.350989515908062,1.0166193944390862
1705062692515099600,21.080099609375,0.8619839093267917,4.040389489036798,0.587209046411328
1705062692565544700,21.130544677734374,-0.5843912855768576,2.757240022534132,-0.4486868570363149
1705062692615959600,21.18095947265625,-0.0656204320636345,-3.0425872424662113,-0.07753984260791912
1705062692666384600,21.231384521484376,-0.861834271723032,-4.566976783888042,0.646425972674787
1705062692716822500,21.281822509765625,1.3773324556745588,-3.956576648840308,0.6480060084078461
1705062692767230700,21.332230712890624,5.717188729280233,1.6155108049355447,2.054289614082873
1705062692817680600,21.3826806640625,2.3288826541580256,-2.812430871619284,0.15203955946811473
1705062692868098800,21.433098876953125,2.9054250893980265,-4.193806903596222,2.925582911285758
1705062692918524700,21.483524658203127,3.58064373357594,2.687872471797466,1.070652159530297
1705062692968939800,21.533939697265627,2.363530189169198,5.669142198991775,-1.137033095671609
1705062693019372800,21.584372802734375,1.731606058447063,5.214246806171536,-0.23028536752145737
1705062693069802800,21.634802734375,0.4348996661590412,2.4333859618142246,1.3450422974444924
1705062693120215600,21.685215576171874,-1.5810963480278848,-1.0017719539191574,3.0163878023266792
1705062693170648800,21.73564892578125,-0.1465071876463946,-4.312107119806111,2.8724866963922975
1705062693221092600,21.786092529296877,-2.656943372787535,-2.256739062836766,0.5579270570212975
1705062693271507700,21.8365078125,3.2140923946410416,-3.955569517624378,0.4880100557083264
1705062693321923800,21.886923828125,3.050279258273542,-2.6240681081458925,0.5088192541768775
1705062693372374800,21.937374755859373,6.855762551587819,-4.895434539011121,3.3369439905449747
1705062693422783500,21.987783447265624,3.8136318207174535,-0.6987787487898022,0.4701352667238563
1705062693473229600,22.0382294921875,1.1710578956745563,2.1242162600070236,-0.8781311803989111
1705062693523643600,22.0886435546875,-0.00816889091283665,3.9893180579692125,1.3569118911974132
1705062693574069800,22.13906982421875,1.2416267850250005,4.386290546391904,1.3810495765015482
1705062693624497700,22.18949755859375,-0.11562288675941526,1.4775694841884075,-0.7888729342781007
1705062693674913500,22.23991357421875,-0.5008128751907497,-0.5945506048131733,0.6632409869406372
1705062693725336800,22.2903369140625,0.8266809060815721,-3.9595711544811723,1.252093087851256
1705062693775763700,22.340763671875,-0.6126228160658851,-1.5577172260060905,1.597726288050413
1705062693826210800,22.3912109375,5.533103496995568,-2.99571238630563,1.2598720512896775
1705062693876625700,22.441625732421876,4.9123272216230625,0.6005772812241688,1.5954560050308704
1705062693927057000,22.492056884765624,2.607580499203503,-0.6811148626096546,0.2776404997459613
1705062693977467600,22.542467529296875,3.0107082953855393,-2.3771179850168527,3.3465093990087507
1705062694027917600,22.59291748046875,2.5301313488200305,2.584353937394917,0.8559472595110535
1705062694078332700,22.643332763671875,2.2100983076930043,4.645112455230951,-0.9359495284434407
1705062694128778800,22.69377880859375,1.5088378981553017,4.045752769635618,-0.00001409656133330941
1705062694179193900,22.74419384765625,-0.11234494280098005,1.5421858948752283,1.5219773657135665
1705062694229607700,22.794607666015626,-1.0819571051377803,-1.347716631220281,3.33334362796545
1705062694280056800,22.845056884765626,-0.25780801908876744,-1.9341060683444142,2.8983699101895093
1705062694330468600,22.895468505859377,0.865644842987135,-4.664375666366517,1.3402163385927677
1705062694380882700,22.945882568359377,4.711154368676245,2.1874422392487523,-0.887228240698576
1705062694431329800,22.996329833984376,6.492489211410284,-2.548905315133929,2.5556416376516222
1705062694481744600,23.04674462890625,2.950620321908593,-0.4549614437937736,0.9233252438656985
1705062694532188700,23.097188720703127,2.665075241316855,1.088493009712547,-0.4747942349782213
1705062694582617900,23.147617919921874,0.7876550829209387,3.2560479145780206,0.8174286552201956
1705062694633034800,23.19803466796875,0.5733601519420742,3.4053114243283864,1.764363980319351
1705062694683447600,23.248447509765626,0.5221077382843942,1.309563280045241,-0.42344566746968776
1705062694733894700,23.298894775390625,0.1955531133688986,-0.11814399360171518,-0.5667229424173013
1705062694784306700,23.349306640625,-0.6989938528452068,-0.8153980261754245,1.3097512038327752
1705062694834723600,23.3997236328125,-0.8063080532036722,-2.3781455744989213,2.320352287830412
1705062694885157600,23.45015771484375,4.6497073818057775,-2.3700657284177837,2.2300693748369813
1705062694935600600,23.5006005859375,3.9487931553572415,0.07041144746614154,1.7840448323450981
1705062694986015700,23.551015625,3.595531506106257,-2.1740610718891022,-0.23650902780927716
1705062695036432000,23.601431884765624,2.6623300342619416,-2.496083241006732,2.96321501506567
1705062695086877700,23.651877685546875,0.9362512878689915,2.374257188758254,0.5402204276779666
1705062695137305900,23.702305908203126,2.1746406253427266,4.794283902783691,0.15278946451996453
1705062695187737600,23.752737548828126,2.149883054574579,4.298512894217669,0.920614523602277
1705062695238152700,23.803152587890626,0.3330722631812095,1.2814901549883186,1.289485683786869
1705062695288568800,23.85356884765625,0.14391981976800597,-0.06348999590619933,1.8061067342884838
1705062695339036400,23.904036376953126,-0.5841846205562353,-1.800315291405469,1.6758897241830826
1705062695389464300,23.95446435546875,-1.4379147885397077,-1.547145563109219,0.6214307206932455
1705062695439880400,24.00488037109375,2.1113000798106194,-2.6672633990108965,2.2653429327920076
1705062695490323500,24.055323486328124,3.851276199457049,0.32827107344456014,4.497104498499632
1705062695540741400,24.105741455078125,5.616445212548971,-4.659990583150089,0.8686969240341335
1705062695591172400,24.15617236328125,3.748213007606566,-2.1269975612886247,-0.3867186958359554
1705062695641586400,24.20658642578125,1.739245905675739,1.9406654268600045,0.5362788869779557
1705062695692011300,24.25701123046875,-0.20573694599196313,4.210052812737226,1.841642450311035
1705062695742448400,24.307448486328123,-0.09068263463443145,5.004629073223471,0.6528166235599666
1705062695792862500,24.357862548828123,0.3687759927144274,3.864669641776383,-0.6646811027463525
1705062695843309300,24.408309326171874,-0.4943863492745906,-1.4499858962140977,0.6080864512778819
1705062695893723400,24.458723388671874,0.8155057243335991,-4.398763658995926,1.5408447093993425
1705062695944138500,24.509138427734374,-0.33739494868591424,-3.147585201771557,1.1019762492071836
1705062695994579500,24.559579345703124,4.6562183711349965,-0.4824534079618752,1.1311856117524206
1705062696044998400,24.609998291015625,4.903325,-0.4848273340189829,0.3712415060451254
1705062696095414500,24.66041455078125,2.994604425063729,-2.4994518406569957,0.978835753359273
1705062696145869600,24.71086962890625,2.9498133894398806,-0.9253975200951099,3.0196409589037296
1705062696196285400,24.761285400390626,1.9485799993768333,4.22474184782505,-0.2785621446355246
1705062696246704400,24.811704345703124,2.099443491669744,4.756398408764601,-0.537838902836293
1705062696297140500,24.862140380859376,0.7967535314600914,4.041178593587875,0.5684862988280132
1705062696347564500,24.912564453125,0.48796833545845,0.9226600579552352,2.7392420090287923
1705062696397980400,24.96298046875,0.20605225901883095,-4.262143649980426,2.3480052877791224
1705062696448424400,25.013424560546873,-1.1778576388172806,-1.5491902206793426,1.179936929309368
1705062696498857500,25.063857421875,3.397796810914576,-5.02790648843646,3.258329595774412
1705062696549272600,25.1142724609375,3.6853234207123515,-1.0634909626640379,0.47649884693901984
1705062696599711500,25.16471142578125,6.959518109616637,-4.2002550568223,0.22951264784960074
1705062696650131500,25.21513134765625,3.9156177387252447,-0.29684728625286366,-0.3082352339686826
1705062696700547600,25.265547607421876,1.691306781284511,1.7045562850885092,0.14901541674081234
1705062696750962400,25.31596240234375,-0.1919213144714944,3.8688378673717376,1.4203443527966737
1705062696801408500,25.366408447265623,0.5631869503108784,4.153489798516035,0.6957138082612305
1705062696851827500,25.416827392578124,0.11288098590644076,2.8938249602362514,-0.942269013788551
1705062696902252500,25.46725244140625,-0.7201651626244187,0.4670940723970532,0.1315557570290286
1705062696952697600,25.517697509765625,1.447834563399106,-4.091194378122687,1.9269116267956792
1705062697003112400,25.568112548828125,0.6278224675569682,-4.653341646654904,1.5006526920035481
1705062697053550600,25.618550537109375,5.473263653060793,-0.5908646097768098,2.8319308141201733
1705062697103959600,25.66895947265625,4.033082965415716,0.8459702015064656,-0.5273957616899162
1705062697154387500,25.719387451171876,3.810268481764197,-3.988695834417641,0.48553486123383044
1705062697204819500,25.7698193359375,4.031588927465677,-2.8921976512953638,3.2569106688871976
1705062697255234600,25.820234619140624,0.510891603471525,2.574326756638288,-0.9846624136861413
1705062697305680600,25.8706806640625,2.914616696113348,6.720092098382115,-0.4209712767127901
1705062697356095500,25.921095458984375,1.743490703638643,6.288602131068706,0.982756141673401
1705062697406510300,25.97151025390625,0.4606631625667214,0.06822218009382486,1.8945957496024668
1705062697456951300,26.021951416015625,0.353318786265701,-2.616905961431563,2.3023989902496336
1705062697507370500,26.07237060546875,0.13863783337762578,-2.209165410757065,1.0924753573469816
1705062697557817300,26.1228173828125,1.2461442624494432,-5.9305246059685945,3.352855845426023
1705062697608232400,26.173232421875,6.617908904236555,2.7741061094000936,0.9579892185550183
1705062697658660400,26.223660400390624,6.651051879903673,-3.917372181177139,0.6979810956060886
1705062697709075500,26.274075439453124,4.470459944941103,-0.08271701691695489,0.386184844687581
1705062697759521500,26.324521484375,3.749151749761402,-0.8317593053244053,0.20398060384392738
1705062697809935400,26.374935302734375,0.8630020733933895,1.425221457313746,0.7449863732133061
1705062697860368400,26.425368408203123,1.5322335329204797,5.085353299754858,1.3545952848181129
1705062697910782500,26.475782470703123,0.36305969742685557,3.3882989147290585,0.07711495912619866
1705062697961227500,26.5262275390625,0.3249922709695995,1.1396113486617803,0.1865976717633195
1705062698011644400,26.57664453125,-0.13193107488113454,-1.289864892362803,0.9748919841695576
1705062698062073300,26.6270732421875,-0.3477579738007858,-3.2559766029074786,0.9838421102792024
1705062698112503600,26.677503662109373,-0.6342937824629247,-2.297451450844854,1.2213396376691759
1705062698162918400,26.72791845703125,6.367365871182083,-1.9326991241559386,2.9429911422044035
1705062698213365500,26.778365478515624,2.743134924814105,-0.0013438069766460103,-1.1235220913872122
1705062698263780400,26.8287802734375,3.441473163294792,-2.670145968709886,1.1341493569288401
1705062698314195500,26.879195556640624,4.089082208274305,-0.8045041455868631,3.0230487215206026
1705062698364640500,26.929640625,2.1326384897850454,3.4312688724055884,-0.4908545584192499
1705062698415069400,26.9800693359375,2.7269381155118344,6.507350680455565,-0.6604913229063153
1705062698465483500,27.0304833984375,0.19430355169922112,3.079272128523886,0.5826933225525542
1705062698515898400,27.0808984375,1.0707855035863816,1.237362405578792,2.8156992257654667
1705062698566342400,27.13134228515625,0.0017106845096197501,-3.3397961651057004,3.582692775060236
1705062698616777500,27.181777587890625,-2.7203330181583762,-3.5620708427920937,-0.9731984781246632
1705062698667205400,27.232205322265624,1.8760892020530997,-6.257850434452295,2.290043220414966
1705062698717607400,27.282607421875,6.159422208926081,1.2984598483592271,0.711433428505808
1705062698768052200,27.33305224609375,5.057509599539637,-4.051884696519375,1.9356914378397165
1705062698818467300,27.38346728515625,4.404543703702092,-1.233816695795953,0.17634358691563828
1705062698868913400,27.433913330078123,2.6452228321164846,0.7763360357228666,-0.6343414940621703
1705062698919341600,27.484341552734374,1.8133420923694967,3.3660008659422394,0.6668577891983092
1705062698969742600,27.53474267578125,-0.09178033021064474,4.38912343173027,1.4677359263077376
1705062699020188400,27.5851884765625,0.1968961072093807,3.623891339150071,0.2567916816530749
1705062699070602500,27.6356025390625,-1.2664786099478602,-1.8911364029288291,1.7152089042671024
1705062699121028400,27.6860283203125,0.851326906234026,-3.08690160048902,0.5583440768569707
1705062699171447600,27.736447509765625,-0.3776359928552061,-2.762621715572476,0.2090041676269844
1705062699221892400,27.786892333984376,3.1214415834724902,-3.1749487172544,1.637791610326618
1705062699272307500,27.837307373046876,3.4710172376871107,2.2221930885039267,0.4813997341904789
1705062699322753500,27.88775341796875,5.490009620678425,-4.338579239407181,0.5885056986257433
1705062699373155300,27.9381552734375,2.955761484189331,-2.658050749507546,3.6320407433360815
1705062699423600400,27.988600341796875,3.135841280224919,2.607058521156013,0.07614973082323558
1705062699474015500,28.039015380859375,2.7852511882707476,4.8290880896613,-0.44958241763655094
1705062699524460500,28.08946044921875,1.1912396098945288,5.920618128982186,-0.5577064000079408
1705062699574886700,28.13988671875,0.42399807718805965,2.7992273989140988,1.094622160117328
1705062699625297700,28.190297607421876,0.878193139719218,-1.9988868758127092,2.975039016111195
1705062699675736300,28.240736328125,-0.9605975013572722,-2.6825544916450976,2.182642291621119
1705062699726159400,28.291159423828127,-1.1118783422794192,-1.3798701574586332,-0.17857068838058038
1705062699776578300,28.341578369140624,3.5314635230824347,-4.79457587146759,2.273560872169584
1705062699826995500,28.391995361328124,7.198660043212771,-0.4862805650345981,0.5258337365375831
1705062699877427500,28.442427490234376,6.132797236850857,-3.008013941735029,1.5087601567439735
1705062699927867400,28.492867431640626,3.6567271485641597,-0.6525673980392516,0.2514280174617655
1705062699978302500,28.543302490234375,0.5095208631075918,3.2949721039950846,0.07909051524917594
1705062700028716500,28.593716552734374,1.2889043767675756,4.533857481357455,1.8278605931960046
1705062700079148500,28.6441484375,0.38428061850145456,3.5103970619171854,0.5697710779415444
1705062700129577500,28.694577392578125,0.754553462177515,2.120359000056982,-0.9227524124138057
1705062700180008400,28.745008544921873,0.38646183499805625,-1.1522869981005788,0.4088912185469642
1705062700230423600,28.795423583984373,0.2201741982758045,-4.913630120915174,1.4873833144553006
1705062700280839400,28.84583935546875,-0.48907921930979936,-3.3873233476951716,2.0539910695277155
1705062700331346000,28.896345947265626,5.0458290986180305,1.8087940736763177,1.9917365656666457
1705062700381762000,28.946761962890626,4.474063814651966,-0.5383425049768761,-0.5256220665482804
1705062700432206000,28.9972060546875,3.696241705089807,-4.440395061545074,0.2657766781467013
1705062700482620000,29.047619873046877,4.238763066653907,-2.8838915952429174,3.654939972886443
1705062700533035000,29.098034912109377,3.6006986796110865,2.825000430335104,-0.29915415668943895
1705062700583482000,29.148482177734376,3.101062520049512,6.72054977902174,-1.3427791748180984
1705062700633897000,29.19889697265625,1.78300160690248,5.600518160098791,-0.2590880124293268
1705062700684316200,29.249316162109373,0.23442305184807627,-0.09293419468719512,2.97333221219331
1705062700734740000,29.299739990234375,0.43411162105388934,-4.560688789659738,4.37036144811511
1705062700785176000,29.350176025390624,-1.6455352101907132,-1.131045107303187,-0.058178865619725545
1705062700835618000,29.4006181640625,-1.1796451067559421,-3.635927813902497,0.23891658214135095
1705062700886032100,29.4510322265625,7.788616817429661,-0.2566688772573136,3.539675471110642
1705062700936447200,29.501447265625,6.253388194346427,-2.6917718173235654,1.0909406951256095
1705062700986876000,29.5518759765625,4.773629821811616,-2.2813496263496575,0.43262200355064123
1705062701037309200,29.60230908203125,0.6692596627082675,0.2929016538996249,-0.840613715974614
1705062701087724000,29.65272412109375,1.9997426158592104,4.879755031581222,1.3274584176979958
1705062701138169000,29.703169189453124,0.34579701245874167,2.567078685206175,-0.42457189502064135
1705062701188584200,29.753584228515624,2.1512771392814813,3.1471506097465753,-1.4173381567180157
1705062701239029200,29.804029296875,0.7928571816086769,1.2381722606569527,1.3990509510077536
1705062701289436200,29.854436279296873,0.48079391378443687,-3.8514784440308807,3.1621877276197075
1705062701339859000,29.90485888671875,-1.2811511322923004,-3.0138173673167823,1.8915892612628638
1705062701390285000,29.95528515625,5.55960045877695,-2.6255706216633317,0.3782434572290629
1705062701440734200,30.005734130859373,5.271743886372446,-2.2613610235489903,0.2470055431107059
1705062701491149300,30.0561494140625,3.7394668065711856,-6.0506800946563475,1.0274738198000937
1705062701541594000,30.106593994140624,5.276974188241362,0.7205805384922772,2.553223178333044
1705062701592019200,30.157019287109375,2.6578400293663145,4.295219113369286,1.2026784840799867
1705062701642442000,30.20744189453125,2.417489158371836,10.558379052406549,3.6984666876628993
1705062701692857000,30.257857177734376,0.07309707895407919,5.930031269493699,-0.07342664426858536
1705062701743271200,30.308271240234376,0.9683902741253375,1.4745521821938454,-0.02597939961410593
1705062701793716000,30.358716064453127,1.3007422602079808,-6.968624376136064,1.1477565881293266
1705062701844133000,30.409133056640623,-0.04182553688175976,-1.4650522401817143,-0.21847680150708182
1705062701894564000,30.459564208984375,-2.245800904715061,-3.8238001635104415,0.26271055030804125
1705062701944992000,30.509991943359374,4.353785576367378,-4.455211230143904,4.449439076483249
1705062701995408100,30.560408203125,4.935338094854354,-1.2372650826841591,3.867168472854793
1705062702045853200,30.610853271484373,5.888468840527534,-3.568646129529178,1.4163482688978313
1705062702096269000,30.66126904296875,3.3973142880946394,-0.7914524293772875,-0.33949246895443647
1705062702146698000,30.711697998046876,0.5344022429184988,1.9025144137725234,-1.3680832735531032
1705062702197134800,30.762134765625,0.36431678481586277,4.929593998244404,0.7984132813658564
1705062702247558100,30.81255810546875,1.1200913862861692,4.434100053054094,1.3776925211586057
1705062702297973200,30.86297314453125,0.7416749836429953,2.7856574309840796,-0.38917124008722603
1705062702348404200,30.913404296875,1.2209889245353638,-0.675170932578668,-0.4048649952381849
1705062702398820000,30.963820068359375,0.011490868092532035,-1.208154358207807,0.073569217377319
1705062702449265000,31.014264892578126,-2.1113949184872207,-2.1499948443859815,2.6079268284231425
1705062702499684000,31.06468408203125,4.692773493333161,-3.035254123099148,0.6875312324579804
1705062702550126000,31.1151259765625,7.78216720289886,-1.558700976346433,1.5854766089387238
1705062702600541200,31.165541259765625,2.229753879147023,-0.8771578053221106,-0.1664610387940891
1705062702650956000,31.2159560546875,4.060297427816689,-5.0445022339284415,2.205612540581077
1705062702701401000,31.266401123046876,2.9747520158633587,-1.3832220982350407,2.355086332081258
1705062702751830000,31.316830078125,3.4743694707244632,4.587432711939513,-0.6399962318882346
1705062702802262000,31.367261962890623,1.2778845317117868,6.814010737529396,-1.038984297917038
1705062702852677000,31.417677001953123,1.5581760756894945,5.288083611276745,0.6268358676724135
1705062702903086000,31.468086181640626,-0.2679136353764683,-1.4169504725746809,3.482882155264914
1705062702953522000,31.51852197265625,-0.2793459154243581,-4.599145946086943,3.30382118088305
1705062703003966200,31.56896630859375,-2.3914526537090537,-2.7520304711923003,-1.0319964117910712
1705062703054382000,31.619382080078125,2.943475418590009,-4.364847360868752,2.101528481250256
1705062703104796200,31.669796142578125,5.221534040570258,-2.2841211368896066,2.7273420201376077
1705062703155229200,31.720229248046873,6.960714041402936,-4.0349952287778255,1.700818121473491
1705062703205673000,31.7706728515625,3.3919697121962904,-0.602452975435555,-0.09215927392509765
1705062703256088000,31.821088134765624,0.7571154946852475,3.979348452618718,1.2277462898410856
1705062703306529000,31.871529052734374,0.7417259831778704,5.760227076017856,1.373920893665403
1705062703356951000,31.921950927734375,0.7062420704077929,3.745796886375546,-0.22173194911181926
1705062703407377000,31.972376953125,1.072388554868847,1.3439162160240112,-0.9905891733866184
1705062703457794300,32.02279418945312,1.7857563124381004,-3.2073464275121686,0.6281589329697191
1705062703508209000,32.073208984375,-1.5937467168949544,-4.2418139786571265,1.3519775035351513
1705062703558654000,32.12365405273437,2.820455772642791,-2.2042665327996014,1.1254043249372392
1705062703609069000,32.17406909179687,7.073845915064215,0.8907284308392553,3.4613547985896465
1705062703659514000,32.22451416015625,3.394774832744896,-4.077708581344783,-1.3451345057725905
1705062703709930200,32.27493017578125,4.156785917451978,-4.813456513026356,3.7419878494814034
1705062703760344000,32.325343994140624,3.6720845844328402,1.059103102968633,1.4731070979520677
1705062703810791000,32.375791015625,3.0813717311516404,5.2868566998302935,-1.524660028926283
1705062703861206000,32.4262060546875,2.9169334486231207,7.1077400013595815,-0.5381135915918276
1705062703911637000,32.47663696289062,0.7017876482822001,3.0581559829980134,1.3294587977349757
1705062703962056200,32.52705615234375,0.5664794525176287,-2.1503990412726997,5.268946949130297
1705062704012480000,32.57747998046875,-0.04891932193445973,-4.137372484190762,2.440449908851087
1705062704062912000,32.627912109375,-0.687879022982344,-0.6294231076866388,-1.204787439057976
1705062704113358000,32.67835815429687,4.1749885136187075,-5.872503794154524,2.395468172960728
1705062704163773200,32.72877319335937,5.889308213961124,0.3655815440546721,2.9141248209431767
1705062704214188000,32.77918798828125,5.428344899404048,-3.005218465797603,0.9853111599184572
1705062704264633000,32.829633056640624,4.964819040882587,-1.8884800432011484,0.03093679597590817
1705062704315049200,32.88004931640625,3.129691233162582,1.7369123481616378,-1.2052475308503956
1705062704365492200,32.9304921875,0.11244000980644486,4.658415881179272,2.1836289645709095
1705062704415891200,32.98089111328125,0.8825715009339153,3.641715165132284,1.0197742052081973
1705062704466338000,33.031338134765626,0.9395798477698117,1.9971442699290811,-0.23849300470072773
1705062704516763000,33.08176293945313,0.20056115078926084,-2.505260526935756,-0.1616910661796108
1705062704567198000,33.13219799804688,0.36045137809198347,-3.8898178192973134,1.4524084471859038
1705062704617601300,33.182601318359374,-1.6983835878029465,-1.9491027080766856,1.4910897677578032
1705062704668046000,33.233046142578125,6.378330332788825,0.4186497018974274,3.574733632749319
1705062704718461000,33.2834609375,3.980215590842068,-2.528865566667914,-1.7434665921106933
1705062704768907000,33.33390698242187,4.624275711168348,-5.291938533139229,4.007362540964782
1705062704819321000,33.384321044921876,3.373966145732999,1.0018628470730035,2.2803256901293993
1705062704869745000,33.434744873046874,2.5556375459983944,4.811657646910846,-1.5675427467107772
1705062704920182000,33.48518212890625,4.064701507994532,6.81144936260879,-0.3728955203298479
1705062704970597000,33.53559716796875,0.892052226788923,2.9320927315711973,1.209011778754741
1705062705021012000,33.58601196289062,0.9609836511306464,-1.5287060894466935,3.3372730763688683
1705062705071458000,33.6364580078125,-0.7389103412352502,-1.9016767939046024,1.2094014356594531
1705062705121877000,33.686876953125,-1.2859092866048216,-1.1419039896436034,-0.6662080200526863
1705062705172301000,33.73730102539062,4.384474144619703,-5.109993820014596,1.6678484565466642
1705062705222747100,33.7877470703125,5.031550982418656,-1.109891333180666,4.018995403352379
1705062705273163000,33.8381630859375,8.709270357868075,-1.9662129789620637,1.7287148670502006
1705062705323594000,33.88859399414063,4.367575909049808,-2.607166657705605,-0.0015469747126124274
1705062705374026800,33.93902685546875,2.2442218188300727,0.9167934309441595,0.3217061985036358
1705062705424443000,33.98944287109375,-0.3126237147185951,5.278378794342279,0.2024794055007398
1705062705474871600,34.03987158203125,1.2754381614729762,3.981593308936059,1.8276630247972905
1705062705525297700,34.090297607421874,0.49528545353878284,1.9054608424879609,-0.3052078489715233
1705062705575747800,34.140747802734374,0.20272220128066837,0.6502373476564883,-0.7150341564115137
1705062705626163700,34.19116381835938,-0.01897874419646687,-1.0744958293464033,0.5686361190948634
1705062705676578800,34.24157885742188,-1.1938820141620934,-2.7569848787292837,2.401236673359573
1705062705727023600,34.29202368164062,3.51123731213361,-1.468942087227106,2.7887296780362725
1705062705777454600,34.34245458984375,7.5106135305196045,-0.6625123804051428,2.170217402072996
1705062705827885600,34.39288549804687,1.2566907909050584,-6.514331625384092,0.04033320683161728
1705062705878313700,34.443313720703124,6.787473443737626,-0.8990352906093001,3.9145980402886864
1705062705928728600,34.493728515625,2.821348922090232,3.746252228927612,-0.7100994764883071
1705062705979143700,34.544143798828124,3.6225562911540266,7.231048985642194,-0.4630778590256348
1705062706029589800,34.59458984375,1.1833817360009997,4.739144491624832,-0.21089136961307375
1705062706080003800,34.64500390625,0.05989641926048789,0.3212977273005992,3.048797787544131
1705062706130419700,34.69541967773438,0.26386099898479876,-3.9526290802583097,4.0164737759202715
1705062706180851700,34.74585180664062,-1.138494911852479,-3.243536515790224,-0.06250919100819155
1705062706231297800,34.7962978515625,-0.6363359558150172,-0.5240508717088028,-1.0699421115648
1705062706281713000,34.846712890625,6.395245227232575,-4.642093107409775,2.4745550075486302
1705062706332127700,34.89712768554688,6.588335603749751,-1.0029914857767521,2.5079633561536667
1705062706382555600,34.9475556640625,4.319472972398996,-2.7541446868672965,1.8483808186553417
1705062706432986600,34.997986572265624,2.332923015590012,-2.7228514307200906,1.6417149212501942
1705062706483432700,35.0484326171875,1.224017040184885,5.6109764257490635,2.0132389340311287
1705062706533848800,35.09884887695313,1.645271006296575,5.419081981018185,1.4865956712089479
1705062706584263700,35.149263671875,1.7652167977564035,3.4588948382169007,-0.025165057873784098
1705062706634710800,35.19971069335938,0.38615751828923817,-1.0282765144851058,0.2210889385005459
1705062706685131800,35.2501318359375,0.46527763409223405,-4.379857006213069,1.5885248905934393
1705062706735538700,35.30053857421875,-1.8073422674328088,-1.975849845226854,1.9621163572981952
1705062706785966600,35.35096655273438,4.9534319699496026,1.9352083304978906,1.5860678528301417
1705062706836413700,35.40141357421875,5.871352286031842,-5.90127103895545,1.6428829421162605
1705062706886827800,35.451827880859376,3.4133389557003975,-5.378721913579106,1.9618067068271339
1705062706937254700,35.50225463867187,3.71667717487514,-2.8913386963784693,2.8176071052134035
1705062706987672800,35.5526728515625,3.3014059364348647,3.8151150450125333,0.7103655070133507
1705062707038120700,35.60312060546875,3.894628726710379,7.490880071523785,-0.8867023171283304
1705062707088553700,35.6535537109375,1.678293716584891,5.845938443312049,-0.5544383381227032
1705062707138976800,35.703976806640625,0.7584944548882544,3.056404755416512,2.1654672849364576
1705062707189396700,35.75439672851562,1.1271068180061876,-3.967979209603369,5.0155280683785675
1705062707239811600,35.8048115234375,-1.009136856663972,-5.9550546515911815,2.1313643781960008
1705062707290242600,35.85524267578125,0.6043841626938432,-4.894112935018539,1.6691864271521568
1705062707340672800,35.9056728515625,3.6751311125218864,0.295328387856204,1.7478735948979853
1705062707391086600,35.95608666992187,7.411816471680998,-4.804004209548235,3.974669062630832
1705062707441531600,36.00653173828125,3.692994101470709,-0.11854719497459008,0.2846210976146161
1705062707491947800,36.05694775390625,4.762675589337944,-2.832088050508499,0.024668865004810504
1705062707542375700,36.10737573242187,0.9127046272605657,2.4475337296321986,0.7849811875365674
1705062707592821500,36.157821533203126,0.7309069944564253,6.577564034366607,1.9220418288022278
1705062707643236600,36.208236572265626,0.17900305191585794,5.4305245815306895,0.5159423475224525
1705062707693651700,36.258651611328126,1.0044749292675406,1.893099665825814,0.5039436109645292
1705062707744083700,36.30908374023438,2.26425265333727,-3.198054283031821,0.6474081886451691
1705062707794528800,36.35952880859375,-0.9122299954861401,-3.168025639992952,1.4515991766296326
1705062707844944600,36.409944580078125,3.622288872389495,-5.805303066062927,2.9085505279421806
1705062707895366700,36.46036669921875,8.096684987735747,0.9988452528174966,1.8222547360129653
1705062707945804500,36.510804443359376,3.1764845485195514,-3.5784120290011163,-1.147143278536573
1705062707996220700,36.561220703125,4.269183631619811,-3.9620527421638365,4.409783357921243
1705062708046634800,36.611634765625,3.079881784854829,1.8467631543256342,0.6209541892226785
1705062708097079800,36.66207983398437,2.580937406949699,6.242684429502487,-1.519660028681904
1705062708147495000,36.71249487304687,3.394297862882912,6.289353241696953,0.3680610859107226
1705062708197924600,36.76292456054688,0.7923632606118917,1.522033041423559,2.338149664197117
1705062708248347000,36.81334692382813,-0.13855920605030841,-1.7752713049113749,4.283232030716539
1705062708298784800,36.86378466796875,0.16176663390016183,-3.473915297216177,2.7284733622550963
1705062708349200000,36.914199951171874,-1.2308008551061154,-4.844264323744177,-0.4176362870711833
1705062708399644700,36.964644775390624,4.173888151161372,0.9407326710667461,1.0151946953982114
1705062708450047700,37.0150478515625,3.7802839701279995,1.197710778670013,3.7759903645873067
1705062708500482800,37.06548291015625,6.851665053141117,-5.580047034478187,0.45221868442427365
1705062708550906600,37.11590673828125,3.451786175255477,0.22465324338600037,-0.0757089647857938
1705062708601353700,37.16635375976563,2.1903864760071037,2.1224830064736304,1.9140882394492624
1705062708651767800,37.21676782226562,1.4322140926800668,4.958540691265464,0.9520822595335543
1705062708702182700,37.2671826171875,0.21233789689326657,4.203299831345677,1.2063769732717424
1705062708752627700,37.317627685546874,2.405235533737391,2.319641655343026,0.372560077830404
1705062708803042600,37.36804248046875,-0.06355129307280294,-2.08785549133718,1.19245015472807
1705062708853490700,37.41849072265625,0.19264955568080766,-3.741475516045093,1.2995565575547516
1705062708903903700,37.46890380859375,1.9317443076491354,-2.4629478641241787,0.9260718391600996
1705062708954319600,37.519319580078125,5.412730566164851,-3.8632454541921613,1.1612157160960137
1705062709004747500,37.56974755859375,5.73032352066338,-1.614026557727158,2.100741714786738
1705062709055193600,37.620193603515624,3.080278967478871,-3.5066020535483955,2.999539543378353
1705062709105608700,37.670608642578124,3.218966722679138,1.0801525399338454,2.151929319579899
1705062709156033800,37.72103369140625,3.3241984907403586,6.132658705163002,-0.44228692686613647
1705062709206459000,37.771458984375,2.598864108784497,5.2511587789833545,-0.02990895304880105
1705062709256901600,37.82190161132812,0.011576597589137963,2.254245054063946,1.670189905106276
1705062709307315700,37.872315673828126,1.5610793959155678,1.6032753004796803,3.2167133907943963
1705062709357731600,37.92273168945312,-0.47579040640871967,-4.595010161456465,1.7693784474804997
1705062709408176600,37.9731767578125,-1.0742656007871032,-0.8608169844392687,-0.29931751229129727
1705062709458607600,38.02360766601562,2.7053186966389418,-5.28236815623939,4.023872069478035
1705062709509036800,38.074036865234376,7.186064181011915,0.4374861024556681,4.849021747404336
1705062709559452700,38.12445263671875,5.826920439109206,-4.027904393734038,0.6711540981527417
1705062709609866500,38.174866455078124,5.296756747075915,-2.4313955186493694,0.29453433313537386
1705062709660312600,38.2253125,1.353877930328995,1.9591234590925275,1.7526527919985353
1705062709710728700,38.27572875976563,1.5892279242962597,6.2592708226442335,1.5188853910475968
1705062709761156900,38.32615698242188,0.997624040459469,4.727341241106391,1.2115697926744817
1705062709811572700,38.37657275390625,2.2730217968568205,2.1788849849142133,-1.2423939700052142
1705062709862016800,38.42701684570312,0.5827169956890866,-2.5681360853046176,0.3460605952983722
1705062709912430800,38.477430908203125,0.6847221663866192,-3.784716399617493,1.2324945072814821
1705062709962863600,38.52786352539062,1.3373067347563803,-3.2316131460234523,0.9126859225600957
1705062710013279700,38.57827978515625,6.884377236175537,-3.4312411076158282,4.094978280575573
1705062710063723800,38.628723876953124,3.730131407471001,-0.9345218337278812,0.7352874014977365
1705062710114155800,38.67915576171875,3.4772900343462823,-6.483007681837678,2.862200572438538
1705062710164585500,38.72958544921875,3.122904057240486,1.4669981135524808,4.873961835132539
1705062710215000600,38.78000048828125,3.6391298248142,7.456288066092133,-0.2322886336352676
1705062710265415700,38.830415771484375,3.529463873697817,6.210607037240266,-1.4468760936304925
1705062710315861800,38.88086181640625,1.0877383188877254,3.3971544213578104,0.38103688733987506
1705062710366334200,38.931334228515624,1.6657956156700848,-0.7550632383305579,2.6578897137269375
1705062710416748000,38.981748046875,0.8509417063087225,-4.89906354316324,3.4840874394014474
1705062710467193000,39.03219311523438,-1.495404854477942,-0.5955358529908582,1.9956050776630638
1705062710517612300,39.0826123046875,-5.813249056631326,-1.2906351460829377,2.241842084086686
1705062710568038100,39.1330380859375,5.730466728526354,-2.127200682645291,1.9470169878438115
1705062710618466000,39.18346606445313,8.567653563478588,-2.6680919587895273,1.8383045380599796
1705062710668899000,39.23389916992188,7.810192104899883,-4.6981949338600035,-0.4183308817392215
1705062710719331000,39.2843310546875,2.383599163729697,-1.8831638166144489,0.2088053388529457
1705062710769745200,39.3347451171875,1.763926611815393,5.443185910183191,1.3541906495399771
1705062710820161000,39.3851611328125,1.6851394908264279,5.262552864179015,2.3294645456992087
1705062710870605300,39.435605224609375,1.5612129591673611,2.7285736077591776,-1.0698274722091854
1705062710921021200,39.48602124023437,-0.07034996306987014,1.3546090210825203,-0.5788486663557588
1705062710971467000,39.53646704101563,0.45745684080608184,-4.18781526196599,3.3779140065759417
1705062711021882000,39.58688208007813,-2.463878130711615,-4.738753738741576,1.8225056420341132
1705062711072296200,39.63729614257812,7.608196537393331,0.8290081069201231,0.3739861651107669
1705062711122742300,39.6877421875,7.3260840615987775,-3.2986402711138125,1.5493096092753111
1705062711173157000,39.7381572265625,3.155164697115123,-4.0658126841068265,1.783098637536168
1705062711223585000,39.7885849609375,4.870040277774632,-2.8326471456959843,3.6113822784498333
1705062711274001200,39.839001220703125,4.654057978230714,3.5266993774205444,-0.1643661854066886
1705062711324446200,39.8894462890625,5.00703788793087,7.3009554655611515,-0.8492501730252057
1705062711374872300,39.939872314453126,2.0517495742112395,5.528310417500138,-0.8319028054483234
1705062711425299200,39.99029931640625,1.3780330051593481,0.885712721569091,2.1790673557437956
1705062711475722000,40.04072192382812,1.6989295312479138,-4.014980907014012,5.937129703322053
1705062711526149000,40.09114916992188,-0.776671332091838,-1.384951260115206,-0.027598246687324714
1705062711576564000,40.14156396484375,0.06877264901685994,-0.8735648223314434,0.4894421708706766
1705062711626998300,40.19199829101562,5.777480408635735,-3.4020500844448804,3.6583690705522893
1705062711677429200,40.24242919921875,6.719180244234204,-2.510760877917707,2.0798994177661836
1705062711727845000,40.29284521484375,6.627460576435923,-4.180886339485645,0.04825436891943682
1705062711778291200,40.34329125976563,2.7033003425538538,-1.0543081968422978,-0.9896941242430358
1705062711828706000,40.3937060546875,2.521922615662217,5.365784690594673,2.3286758795395492
1705062711879135200,40.44413525390625,1.6777391514420508,3.8951781772866845,0.7780375789437443
1705062711929566200,40.49456616210937,1.298045276208967,3.014046792158484,-0.5753536273142322
1705062711979980300,40.544980224609375,0.7253337243687361,0.19553495665770024,0.17625636528991162
1705062712030410000,40.595409912109375,1.6619900859072803,-3.451063121677935,1.8605425272226332
1705062712080856000,40.64585595703125,-3.195896520476043,-3.2609313027054068,3.4754587272658943
1705062712131271200,40.696271240234374,5.181114351898431,-0.8067569660149514,1.2781339764282107
1705062712181686300,40.746686279296874,6.596504881680011,-0.5105256927685812,2.2807858549870548
1705062712232117200,40.7971171875,3.646225920554995,-5.157638199242949,0.44595366921275853
1705062712282562000,40.84756201171875,4.586607951553166,-4.432556623004377,5.059171395272016
1705062712332978000,40.89797802734375,3.4714863165035843,1.183604365775734,1.0251366090241818
1705062712383392000,40.94839208984375,4.972417825448512,6.321674964109063,-1.1231916903890669
1705062712433838000,40.99883813476563,2.997418605701625,5.738568786439299,-0.8345181025132536
1705062712484254200,41.049254150390624,1.299945556872338,2.48795546413064,2.1488687629655003
1705062712534669000,41.0996689453125,0.8216607398319989,-2.206965124233812,3.7121649581477043
1705062712585114000,41.150114013671875,-1.5613270870663225,-2.248328231235593,0.9109783149246126
1705062712635529000,41.200529052734375,-0.8756568992398679,-2.81082548224926,0.4175323517726734
1705062712685974000,41.25097412109375,6.727528970384597,-1.2702512603543699,6.691680827412009
1705062712736389000,41.30138916015625,4.765736438213288,-2.1183779092423616,-0.4541991907170042
1705062712786818000,41.35181811523437,6.303081907320022,-4.714083700126409,1.0252483988355845
1705062712837233200,41.40223315429687,4.41605352423191,-1.4751353889092802,1.2107603759877383
1705062712887679000,41.45267895507813,1.6027031996801495,2.930197127082944,-0.17514701580852268
1705062712938110200,41.503110107421875,1.8519157147832215,3.9482711773097514,1.473176802187413
1705062712988526000,41.55352612304687,1.9021787520773707,3.4465108652010557,-0.3705442079633474
1705062713038954000,41.6039541015625,1.0643637999758124,3.1592297545969483,-0.7869933310765772
1705062713089387300,41.65438720703125,0.4539182548837736,-2.662439924377203,1.6400272604241966
1705062713139801000,41.70480102539062,-0.9911669002093374,-3.633184360413253,1.4395818449690938
1705062713190216200,41.75521630859375,4.665104565162957,-0.7898243167188018,0.42565326051656155
1705062713240662000,41.805662109375,8.601038531208038,-3.0462963261172176,3.984033395564556
1705062713291077000,41.8560771484375,5.365847818958759,-1.9698238629356026,-0.21481975857056676
1705062713341515000,41.90651489257812,4.848604691036045,-2.59523948854655,4.527248876872658
1705062713391937000,41.95693701171875,3.676017832228541,2.203502562689781,1.929193307992071
1705062713442353000,42.007352783203125,6.0495209877491,5.060069220894575,-1.5972234530948102
1705062713492793000,42.05779296875,3.008625936153531,5.328094719147682,-0.5210809525199234
1705062713543227100,42.10822705078125,0.6906515564355998,1.8817539498165248,2.0575427706599236
1705062713593642000,42.15864208984375,0.5014810202432796,-1.320738169532269,3.923500308668613
1705062713644080000,42.209080078125,-0.8495666185632348,-2.8845874685525894,2.2265642893254753
1705062713694503200,42.25950317382812,-0.8001268803507089,-2.441867812824994,0.21777736626714467
1705062713744935000,42.30993481445312,4.454798557689785,-3.8861826776653525,0.3080307609051466
1705062713795350000,42.36035009765625,5.16802515322268,-3.6844860931053756,3.1649998624309896
1705062713845764000,42.41076416015625,6.850029560893773,-5.710923239144683,2.2452400559619066
1705062713896210200,42.461210205078125,3.894570566782355,-1.3655102081947028,0.02513486823149724
1705062713946626300,42.51162622070313,1.9712208702519536,2.768957932856679,0.09996342660370282
1705062713997056000,42.56205590820313,2.9198487515479323,5.120704014599323,2.4174647545829413
1705062714047476000,42.61247607421875,1.3324772687733173,5.458181819263101,-0.49612314647193995
1705062714097901000,42.66290112304687,0.578835879939422,1.7064090733483432,0.20263695241631938
1705062714148347100,42.71334716796875,2.576645554974675,-4.777586158221959,1.719888878776878
1705062714198762200,42.76376220703125,-1.9836133188351988,-3.832923088903725,0.8140092021655291
1705062714249191200,42.814191162109374,1.5151087951183317,-0.01575622021969757,0.9701538497317582
1705062714299618000,42.8646181640625,6.874732624995708,0.4885658994928002,3.0236957872524854
1705062714350038000,42.9150380859375,4.4878117694973945,-2.7395903840750453,-0.1356440127233509
1705062714400482300,42.965482421875,3.4977909705832597,-6.535474951177835,2.66668852173239
1705062714450898200,43.01589819335938,5.265150479456782,1.1601999631822109,2.6564237328276037
1705062714501313300,43.06631323242188,3.665307345382869,4.421303115323186,-0.2537514189080335
1705062714551759000,43.116759033203124,4.290152769890427,5.931127248036861,-0.90675412135832
1705062714602188000,43.16718798828125,2.4215983472563325,3.1604084429875012,0.5461706778518856
1705062714652618200,43.2176181640625,-0.1246177470599301,-0.3404642731286585,3.4423835561379788
1705062714703034000,43.2680341796875,1.123971515655145,-2.781807477557659,5.278275333967804
1705062714753448000,43.31844799804688,-2.304017531362176,-2.3208108452528715,-0.9223625363133847
1705062714803895000,43.36889501953125,5.870038865345716,-5.5177142046839,2.223427306474
1705062714854299100,43.41929907226562,8.887343197995424,-0.4022152479143813,3.4081352495774624
1705062714904725000,43.46972509765625,6.533928890779614,-4.985886963352561,0.6800320358090103
1705062714955169300,43.52016918945313,7.007357719156146,-4.0120243952959775,0.04183591671187896
1705062715005598000,43.570597900390624,2.88936067430377,2.7355393551185725,0.45757217428144065
1705062715056015000,43.62101513671875,1.330341571918875,4.728858367671072,3.0523648323759436
1705062715106458000,43.6714580078125,1.9712904283568262,4.9400598626792425,1.4012814865387975
1705062715156859100,43.72185913085937,1.3650665560804307,3.4176094726264474,-1.035599989240989
1705062715207307000,43.77230712890625,0.6551211741752923,-0.9767342510353774,-0.1618487957582809
1705062715257735000,43.82273486328125,-0.3214612838318571,-3.187341750359535,3.1165932666584846
1705062715308137200,43.87313720703125,3.5271655336275693,-4.298535398310423,2.04803245338425
1705062715358613200,43.92361328125,7.16026163123548,-0.28048028974914924,3.2992791535392403
1705062715409031400,43.974031494140625,3.3962773462623357,-3.6177658420071004,1.9670925382755695
1705062715459456300,44.02445629882813,6.037979603037238,-5.058054373940825,3.446730645431578
1705062715509891300,44.074891357421876,4.362785459902883,-0.030504891381645572,2.291924650247395
1705062715560306400,44.125306396484376,2.880003647893667,3.737317227321863,-0.8045903625655919
1705062715610751500,44.17575146484375,3.71751654830873,6.695585433635115,0.5792578682111575
1705062715661166300,44.22616625976563,1.094438766374439,4.392595199494064,0.6189237063083798
1705062715711611400,44.276611328125,0.8589332895845174,-0.5148552098728716,3.3853406494453546
1705062715762022100,44.32702221679688,0.012995494793599936,-3.5728809906199572,4.170938069184124
1705062715812455400,44.377455322265625,-1.031229007615149,-2.226425026985258,1.5750519532971083
1705062715862870300,44.427870361328125,4.266836191710829,-2.498705406203866,2.7219249635249376
1705062715913317000,44.478317138671876,8.630845055928825,-2.2656689498759803,1.66824286269173
1705062715963718400,44.52871850585937,6.155597682201862,-4.444126357027888,2.4950039213374255
1705062716014163200,44.5791630859375,3.9011604665666817,-2.252795439777523,-0.17895371461510656
1705062716064569300,44.6295693359375,0.9013232554160058,0.8332089926760643,0.3218838200928643
1705062716115023400,44.6800234375,2.3281043632619083,5.284245640549063,0.3025530784127302
1705062716165439500,44.730439453125,1.1036153947163372,3.4709655074998733,0.6332639279585331
1705062716215853300,44.780853271484375,0.202838868196588,2.2030492659643293,0.6560171001017093
1705062716266300200,44.831300048828126,0.9198075180683285,0.7171963028814643,0.9447660913012921
1705062716316715300,44.88171533203125,2.2016418833844362,-4.725688213202357,2.0463405547745523
1705062716367135200,44.93213525390625,-3.1221687287032602,-2.186004753791541,1.6042187188096344
1705062716417574400,44.982574462890625,6.806673818770051,0.6613730741769075,1.2257940597947685
1705062716467989200,45.0329892578125,5.857549386128783,-6.248299346774816,0.4265461177030578
1705062716518413300,45.08341333007812,2.885685200661421,-5.909128766718506,2.248169679673016
1705062716568864300,45.1338642578125,5.201269251176715,0.7978760326839983,3.052807899968326
1705062716619279400,45.184279296875,3.879984115286171,5.181799996075034,-0.8106523660182953
1705062716669694500,45.23469458007813,4.355868812382221,6.931933937120437,-1.5747915487952528
1705062716720140300,45.285140380859374,1.983496268326789,3.6709763309299945,0.0571944987914525
1705062716770555100,45.33555517578125,-0.7293192138083279,0.19446139087574554,3.1050606497749684
1705062716820986400,45.385986328125,0.42896413863021876,-3.866906899309158,3.992597810292244
1705062716871401200,45.43640112304688,-0.8976564034715294,-3.472452823448181,-0.8616852917063981
1705062716921848300,45.48684838867187,4.817705402642488,-6.779460817673802,2.2127308481536803
1705062716972263400,45.53726342773437,6.6104013050854205,-1.6911891462542115,1.3586337465539573
1705062717022679300,45.58767919921875,7.4752441109746695,-5.594191295164824,1.4098834567978977
1705062717073122300,45.63812231445313,5.496315442824363,-2.1864153804190454,0.6974843250650912
1705062717123537400,45.68853735351563,2.2027156500957905,2.1264437267981466,0.4380339455967769
1705062717173984300,45.738984375,2.7329133905291556,5.400089111256599,2.0078074105016888
1705062717224399400,45.7893994140625,1.709084868428856,4.796711129930615,0.10113955771098844
1705062717274813400,45.8398134765625,0.8710902489114553,2.646833189922571,-1.3748869622185826
1705062717325243100,45.8902431640625,0.10006665864931419,-0.252249544711411,0.2967501825539395
1705062717375674400,45.94067431640625,2.8000962907031175,-2.582279761469364,0.27731245510168373
1705062717426113300,45.99111328125,1.56458608886227,-4.091014345380664,1.708475212097913
1705062717476519400,46.04151953125,7.5472244745582335,-0.15627404609955847,4.284321579518914
1705062717526959400,46.09195947265625,4.294541067977249,-0.3546544187836349,1.3420999603822827
1705062717577396500,46.142396484375,3.3051813633203504,-3.464365670843422,1.1152315251648426
1705062717627825200,46.1928251953125,5.278301637452841,-1.180961669247225,3.8309406829148527
1705062717678226200,46.24322607421875,2.7957939173340796,2.891973487150669,-0.4146595362827182
1705062717728670500,46.29367041015625,4.103170062598585,5.795688265499472,-0.2942110925303772
1705062717779100400,46.344100341796874,2.4787764246359467,4.62928067984879,0.45355289217010136
1705062717829502500,46.39450244140625,0.6154669899832457,2.160277168947458,1.5645831662528216
1705062717879947500,46.444947509765626,0.908712561949715,-4.192899725623429,3.4885467568978665
1705062717930355200,46.495355224609376,-0.1623693490336649,-2.2265264415331183,2.594169521227479
1705062717980808200,46.54580810546875,-0.6786742645245045,-3.81383494207412,0.9634914692331105
1705062718031222300,46.59622216796875,6.2604550639927385,-0.8525153853662312,0.11107223771773278
1705062718081638400,46.64663842773437,6.801611274683475,-3.575768236494064,1.6904652158938347
1705062718132083500,46.69708349609375,6.047105158779025,-4.05281613215059,0.16718085923492906
1705062718182513200,46.74751318359375,2.6333617139309644,-0.05108433621493168,-0.4714383486790582
1705062718232926500,46.797926513671875,3.4057571222692724,5.107370485773682,1.886232702665776
1705062718283342300,46.84834228515625,1.5602091889522969,5.594087250268459,0.3937348582083359
1705062718333773300,46.898773193359375,1.656340827973932,3.1335391407623887,-0.9063782007180153
1705062718384220400,46.94922045898438,0.21632165103349835,0.3046423423095606,1.1623004425927996
1705062718434635500,46.99963549804688,2.805829281397164,-3.3709850840955973,1.0488433555651455
1705062718485049300,47.05004931640625,-2.2167503129281103,-3.1882249629348514,0.6790037156745791
1705062718535504400,47.10050439453125,3.7454929349929094,-2.023690331549197,2.714779183423519
1705062718585910300,47.15091015625,6.665972385659813,-0.5907090173562989,1.5304808440342546
1705062718636356400,47.2013564453125,4.299373310439289,-6.238656489160657,-0.05498845838084817
1705062718686771500,47.251771484375,5.130478974160551,-3.5033433440133925,4.024388202306628
1705062718737186300,47.302186279296876,4.575800434073805,2.0963702217042446,-0.04168020556035917
1705062718787630300,47.35263037109375,4.979784554824232,5.678612622648477,-1.476533419138938
1705062718838038300,47.403038330078125,2.245976845803857,5.12313270305097,-0.9920577846344559
1705062718888461300,47.45346142578125,1.1215220766764133,1.409237560109794,1.662853278607875
1705062718938906400,47.50390625,1.3049325515046715,-2.4995585159018634,4.320241034162044
1705062718989335300,47.554335205078125,-0.6720283237040042,-2.656801333968341,1.1356424450308085
1705062719039750400,47.60475048828125,2.2328687962971627,-4.740359712633491,2.1292615606978536
1705062719090182400,47.65518237304688,9.127495185416937,0.3263495307974517,-0.13976515690712257
1705062719140598300,47.70559838867187,5.529390613952279,-2.7591797584250566,1.214407281122729
1705062719191043300,47.756043212890624,6.81167323449254,-3.7661660129263996,1.6471156112499534
1705062719241458400,47.80645849609375,2.850460158023238,0.2689364756181836,0.05568171504174824
1705062719291872300,47.85687231445313,3.5247146333441135,3.444132445631921,0.6617739100627601
1705062719342315500,47.9073154296875,2.138617564194649,4.734147706250846,0.8637939544234424
1705062719392747500,47.95774755859375,1.930516957811266,3.4755028586685657,-0.8208761653255671
1705062719443162000,48.008162109375,0.23541624587019905,1.0730737606540321,0.027669868885120377
1705062719493608200,48.05860815429688,2.6674904857650397,-2.857423859556019,1.2886105083875357
1705062719544011300,48.10901123046875,-0.6697589174672961,-3.746049399831891,-0.4231009456852451
1705062719594439200,48.159439208984374,4.170696369382739,-4.357174926544726,1.8204272283248601
1705062719644869400,48.209869384765625,8.253633206769823,-0.2619043850243091,3.835602829506993
1705062719695299300,48.26029931640625,4.300585608838499,-3.105722328554094,0.5386491232406347
1705062719745713200,48.31071313476563,5.1746349267512555,-4.031664915311336,4.124194730448723
1705062719796157400,48.36115747070313,4.2902723046168685,1.1814383468482643,2.1201585090488195
1705062719846574300,48.41157421875,3.7941803935334084,5.762068319970369,-0.6005407851386815
1705062719897019400,48.46201928710938,3.185568310946226,5.044621476393938,-0.4390474700208753
1705062719947421400,48.51242138671875,1.0700894841462374,2.0135878935992717,0.5417169133134186
1705062719997850400,48.562850341796874,2.0138404070556164,0.05153759184118826,4.2816295639559625
1705062720048295200,48.613295166015625,1.137155406877026,-3.1318174315363168,3.492673189178109
1705062720098711300,48.66371118164062,-0.9785454651758074,-3.446150799717009,0.9902030236132442
1705062720149143300,48.71414331054687,3.994262528634071,-2.9495135297104715,1.2614505526527762
1705062720199558100,48.76455810546875,5.0199225039452315,-2.0132671372123063,2.0282360121548173
1705062720250003500,48.81500341796875,7.068955220413208,-5.002634100013971,2.1342383261971176
1705062720300418300,48.865418212890624,4.810042028407752,-1.2652934918165206,0.07653794468953273
1705062720350871800,48.91587182617187,2.894316543145478,1.2839812411516904,0.20739623924000186
1705062720401301800,48.9663017578125,1.725224686846882,4.690574814245105,1.397331725999713
1705062720451726800,49.01672680664063,1.9893397336579859,4.224522944377362,0.235423862921074
1705062720502145800,49.06714575195313,1.8969883438274264,2.219829574242979,-0.5430848771983757
1705062720552592000,49.117591796875,1.0448429608173668,-0.609786460128799,0.2792141240045428
1705062720602994000,49.167993896484376,1.8752166570022701,-3.8340669982418416,0.658114803033322
1705062720653420800,49.2184208984375,-2.199679205009341,-2.3547492090813815,2.2713658463433384
1705062720703852800,49.26885278320312,4.567430665135383,-0.898725786268711,1.9828876349091529
1705062720754300000,49.3192998046875,6.118316876077651,-2.447915130165219,1.814837299363315
1705062720804708900,49.369708984375,3.219089180015027,-5.241325367233157,1.9472789997808635
1705062720855129900,49.4201298828125,6.451585538613796,-1.6971736274912952,4.811525837224722
1705062720905575000,49.470574951171876,3.5196892063975334,2.022550659994781,-0.5300475913729519
1705062720956003000,49.52100317382813,4.1976568570226425,5.870826800853013,-0.8538307057484984
1705062721006404900,49.57140478515625,2.41428276354596,5.489885702037811,0.2892692339477129
1705062721056851000,49.621850830078124,1.4047852568760513,1.9012427864015102,2.4842864202290773
1705062721107266000,49.67226611328125,1.4810099800311027,-2.821508496566117,4.008594128586352
1705062721157712000,49.7227119140625,0.3253699086429551,-2.9376220163866877,1.7368490736670792
1705062721208125000,49.773125,3.240039905846119,-4.985275553455948,2.8667741639643904
1705062721258555000,49.82355493164062,7.653301169010996,1.9576358508832752,-0.8924458292163908
1705062721308962800,49.873962890625,9.766201669755578,-4.8625399851471185,2.4083342304050923
1705062721359402000,49.924402099609374,5.805619292405248,-1.4459139706000685,0.8609750245451927
1705062721409817000,49.974817138671874,2.9043463542506096,-0.37636403669063,0.012264467972156126
1705062721460262700,50.0252626953125,2.8244164929673072,3.255653070041537,1.026198904493451
1705062721510676700,50.0756767578125,2.12693633262068,5.191322442179918,1.1434894322041422
1705062721561098000,50.126097900390626,1.3515478799462317,3.0987194640547036,0.36709063344337045
1705062721611538000,50.17653784179687,1.0732801699463277,0.01157023292207741,0.6282579363647848
1705062721661953000,50.226953125,2.1460744560718537,-3.0058818981423974,0.850756120608747
1705062721712397800,50.27739770507812,-1.1122973714090882,-3.1031144841432567,0.5403415333069861
1705062721762813000,50.32781298828125,6.211991769596934,-2.367009263456613,0.4778055456234142
1705062721813228800,50.378228759765626,7.455680747848748,-1.3780511253379284,4.2147047301962965
1705062721863655000,50.42865502929688,4.232960810115933,-2.039465846699476,1.0218515960041432
1705062721914090000,50.479090087890626,4.59657697238177,-3.8148207382410764,4.047384170229733
1705062721964518000,50.529517822265625,5.0662727517098185,2.3758415353402493,0.8756336644947529
1705062722014963000,50.579962890625,4.343233787214756,5.408128625327349,-1.456030875466764
1705062722065378800,50.63037890625,3.928736163495481,5.495218879759311,-0.728892293633148
1705062722115792600,50.680792724609375,2.005121970809996,0.9321716173399239,2.029376852753013
1705062722166217000,50.731217041015626,0.04167172542638145,-1.0006183999698608,3.7416470732197165
1705062722216649700,50.78164965820312,0.3746478804225102,-4.092582325349748,3.5027544382095335
1705062722267085800,50.8320859375,-0.4479157995985821,-0.8243882650997489,-0.24324023576043544
1705062722317501700,50.88250170898438,7.376985981318354,-3.3395287463411685,0.04370364224594086
1705062722367946800,50.93294677734375,10.804423020476102,-1.677181225298345,6.20190935152173
1705062722418361900,50.98336181640625,5.839784012335539,-2.700384455107152,0.8862306079633533
1705062722468777000,51.03377685546875,5.190082086730003,-2.893282816183567,1.2937808967627584
1705062722519221800,51.0842216796875,2.4155562906131145,5.099972192215919,2.4038746206477284
1705062722569638000,51.13463793945313,2.5165818391561507,5.562928141894936,1.8069041682764886
1705062722620083000,51.1850830078125,3.701833241486549,2.2797909987308085,0.4392909599205479
1705062722670502000,51.235501953125,1.7349428016543387,0.3325670901380479,-0.08833842786215246
1705062722720925000,51.285925048828126,2.4600220398053527,-4.232117929551005,1.9430565597802398
1705062722771341800,51.336341796875,4.58009228604883,-2.3698541314937174,0.3501560844510794
1705062722821764900,51.38676489257813,0.7028021590869873,-3.595872866889834,5.287635282987356
1705062722872202800,51.43720263671875,5.6516714242309325,1.6782780806243418,3.911730083636939
1705062722922616800,51.48761694335938,5.768244378256798,-3.47079453484714,2.3483123079016806
1705062722973064000,51.53806396484375,1.4062152896791695,-2.4418824258722363,3.0305405385807154
1705062723023494000,51.58849389648437,3.8353739891871808,2.244673946511745,4.301082160183787
1705062723073898800,51.638898681640626,3.3891245518982407,5.372589694434404,-0.17351866568801924
1705062723124334800,51.6893349609375,2.5108023789718747,4.958126265245676,-1.443717191208154
1705062723174770000,51.73977001953125,0.2082743920477107,1.9381959680065513,1.464969676464796
1705062723225185800,51.790185791015624,-0.10330611549457534,0.8849654833983629,3.3988580104053017
1705062723275600000,51.84059985351563,1.5693411744348704,-2.8749317514568564,6.256627030137181
1705062723326047000,51.891046875,-2.050348767502606,-1.3177313889317215,2.0737765509717163
1705062723376479700,51.94147973632813,8.28607358712554,-7.093909044405818,5.687836378067732
1705062723426907000,51.991906982421874,5.348694439584016,-3.3138819716483354,-0.6174246999222784
1705062723477307000,52.04230688476562,6.038547173792123,-4.359598062038422,-0.6163794286530464
1705062723527750000,52.09275,2.781801340077817,1.8361156497135758,1.4101263256430625
1705062723578157800,52.14315771484375,2.4252650530703366,5.321446367174387,2.472731299252808
1705062723628596700,52.1935966796875,2.496537706775963,4.4652913101315495,0.9255435044370591
1705062723679026000,52.24402587890625,1.9648082267306743,4.074792109376192,-0.906671265380457
1705062723729441000,52.29444091796875,-0.045968792432639745,0.33430443532466886,2.30054137968421
1705062723779885800,52.3448857421875,2.1652543728381395,-4.357207659770548,2.574465580587089
1705062723830318000,52.395318115234375,-1.8407577764309941,-3.5359812927678225,2.101916603785008
1705062723880732700,52.44573266601562,2.49377379502058,-3.0871289795041084,2.697629895702004
1705062723931148800,52.496148681640626,5.2728451256126165,1.4960413988158106,2.4032304775252937
1705062723981599000,52.54659887695313,5.500801648327708,-1.6686223635286093,-0.013179805276874686
1705062724032009000,52.59700903320312,5.067637610322237,-5.92674684099555,3.9666669579610225
1705062724082455000,52.647455078125,4.187902063466608,-0.3369805226661265,2.9631209070414304
1705062724132870000,52.697869873046876,4.051787081363797,3.8792619384914633,0.14689234190592543
1705062724183284700,52.74828466796875,4.225791356877982,6.0163154682397835,-0.10288285771436058
1705062724233730800,52.798730712890624,1.8761684047691523,3.9108708364591,0.8506633277587592
1705062724284148000,52.84914794921875,1.1930616376899181,0.8213320923995227,2.943669479857385
1705062724334587000,52.8995869140625,1.2181991476863623,-2.872763759768009,4.9542228280663485
1705062724384988700,52.94998876953125,1.2246857332266867,-4.935504099071026,2.299549592167884
1705062724435435800,53.000435791015626,3.7281343884348868,1.015893929708749,1.28290952026695
1705062724485849900,53.05084985351562,5.108063144212961,-1.535489319846034,2.4460541585989297
1705062724536281900,53.10128173828125,7.280690091645718,-6.661078183877468,1.841313949009031
1705062724586701800,53.15170190429688,4.40864149440974,-0.6811342248972505,1.1503530343633144
1705062724637128000,53.2021279296875,2.1883917950585485,0.21329963633120058,1.1381132190585135
1705062724687556900,53.252556884765625,1.7416395228140056,4.308510848879814,2.2462807971864938
1705062724737973000,53.30297290039063,2.0367318916909394,4.592824049589038,0.6049086980246007
1705062724788416800,53.353416748046875,1.1129008902601898,4.583184406845271,0.04060663064524997
1705062724838833000,53.4038330078125,0.43328799317870287,-0.33132315449155864,1.6412702462226152
1705062724889279000,53.45427905273438,2.5101173193171618,-2.6863141364395617,1.3238760291665792
1705062724939676000,53.50467602539062,-1.7896731936208903,-2.7677088095784184,1.382364750753343
1705062724990109000,53.55510888671875,5.149499900972843,-1.4720273398913442,3.9048330175995822
1705062725040554800,53.6055546875,4.888445118515193,-0.44457076348699626,0.5633748740984127
1705062725090958800,53.655958740234375,3.6601717360600827,-5.3202510199099775,1.5238215322755275
1705062725141398000,53.70639794921875,5.676658565971255,-1.6944462483540177,4.4676405036062
1705062725191812900,53.756812744140625,4.168980505375564,2.678898014964163,0.1417343837540131
1705062725242240000,53.80723999023437,4.442739871105552,5.380177957606315,-0.7444036779545247
1705062725292672800,53.8576728515625,4.029842668320239,4.362616825337708,0.2265421258725226
1705062725343150300,53.908150390625,1.501783887990564,1.2133898477084935,1.9713637858539819
1705062725393565400,53.9585654296875,1.3171024433784186,-0.173872082235571,5.02656442617774
1705062725444009200,54.00900927734375,-0.01620407586834044,-3.7173899993196127,3.1282123927816747
1705062725494425300,54.05942529296875,1.7079983883664012,-1.4932590746209025,-1.5000797144211828
1705062725544840400,54.10984033203125,5.267129670575261,-4.141990207119286,0.41114849595446135
1705062725595286300,54.160286376953124,12.371624406403303,-3.139011726954579,3.3170500802904366
1705062725645700000,54.2107001953125,4.66620726570785,-3.0963840068444606,-0.6111413088038563
1705062725696147200,54.26114721679688,3.5793899341225623,-2.246576419132203,2.4144939220786092
1705062725746561300,54.311561279296875,3.5109473892763257,3.6595270084157585,1.856209612584859
1705062725796977400,54.36197729492188,2.4223139481797813,5.4082127964794635,1.3393190974920988
1705062725847406300,54.41240625,2.4529563392028213,3.620264088563621,-0.31318101980779317
1705062725897851100,54.46285107421875,1.026632838931307,2.0632535495221616,-0.5349703981952741
1705062725948265200,54.51326513671875,2.2060598459571596,-1.2479755695298314,1.7391306087329983
1705062725998684400,54.563684326171874,-0.44786929357573385,-4.916555652973056,2.169342372804135
1705062726049113300,54.61411328125,4.827990357552468,-3.145409319037199,2.781122710163891
1705062726099559400,54.664559326171876,6.529519257643819,-2.9299329231888054,1.1142243208836764
1705062726149979400,54.7149794921875,4.0099952275559305,-6.3505257955402135,1.2923827204026281
1705062726200389400,54.765389404296876,7.416260591608285,-2.209132677531242,5.279734300604463
1705062726250833200,54.81583325195312,4.369190066248178,2.536413790090382,0.22025539201954378
1705062726301248300,54.86624829101562,4.893001758906245,5.306726936948299,-1.2824774124599994
1705062726351695400,54.9166953125,2.598272280371189,5.604900905227661,0.13534392466507852
1705062726402110500,54.9671103515625,1.2041245181698352,2.569709325970709,2.6926456775486467
1705062726452525300,55.017525390625,0.9030127428729087,-3.325460765761137,4.948225633478164
1705062726502969300,55.06796923828125,0.18368514531748367,-2.7711522280305623,2.0496153386615217
1705062726553384200,55.11838427734375,0.24467120014531538,-2.175438936113566,0.6517469485018402
1705062726603800300,55.16880029296875,5.115221199274063,-1.5647477091647684,4.383908327430486
1705062726654245400,55.21924536132813,6.853142724478245,-2.1401050262734294,2.997668781070411
1705062726704657400,55.26965747070312,7.587449517440795,-4.667918453539908,2.0308670913107694
1705062726755089400,55.32008935546875,5.134100671789049,-2.07552368689999,0.9926236018236726
1705062726805504300,55.37050415039062,2.2490300958946348,2.299965917883813,2.229734589924663
1705062726855943200,55.42094311523437,0.6542925413314252,4.213539193548262,2.6236817391768095
1705062726906365400,55.47136547851562,1.816082184857875,4.808064590854943,0.962734732581675
1705062726956796400,55.52179638671875,1.917323275847733,1.933706109241396,0.20873210921995342
1705062727007215400,55.57221533203125,2.307097231068462,-1.5652406072482465,1.4187559145614503
1705062727057658400,55.62265844726563,0.7465051072131842,-4.221714608958363,1.4613367267899213
1705062727108088300,55.67308837890625,4.0713577510133385,-3.261563463129103,2.2349561239652336
1705062727158513400,55.723513427734375,6.590528145357966,1.111035461714491,4.003305666789412
1705062727208923400,55.77392333984375,4.821895840069652,-3.407151206976175,1.6616770744353533
1705062727259362300,55.8243623046875,4.110141947437823,-4.149587238119542,4.768925005121528
1705062727309777200,55.874777099609375,4.922674428114295,1.0517261444598436,3.8586306538730857
1705062727360222500,55.92522241210938,4.6667821429863565,2.6153634081646797,-0.6835425281479954
1705062727410624300,55.97562426757813,4.322063865675032,5.386780132350325,0.34380331789087504
1705062727461069300,56.0260693359375,2.0335743044428525,3.306565803416073,1.654924093043804
1705062727511485400,56.0764853515625,1.538286110957712,-0.527841021239385,3.6002944827243684
1705062727561920500,56.12692041015625,1.7867463463887572,-2.312424709701538,6.01731149353981
1705062727612353300,56.17735327148438,-1.5820442964024841,-1.4803084076330064,0.07862447777315974
1705062727662774300,56.22777416992187,6.028432022491097,-3.588872048217058,2.5209590313270684
1705062727713188400,56.278188232421876,8.199020157572626,-0.6797296187963336,3.367583458958566
1705062727763621400,56.328621337890624,8.237334982919693,-4.089250842839479,1.730503650163114
1705062727814061300,56.37906127929688,6.515241725966334,-3.4950124457806346,2.611407071754336
1705062727864464400,56.42946435546875,2.1439866900123654,-0.07888508320441469,1.470076059693098
1705062727914897200,56.47989721679688,2.0506287534877656,4.846114627785981,3.0076570911213754
1705062727965341400,56.53034155273438,2.0599948399871586,4.770549975974857,1.5959683384671806
1705062728015757300,56.58075732421875,2.049000421633571,2.767460095514357,0.08193018652135506
1705062728066171400,56.63117138671875,1.4068443813629448,0.6428169153321533,1.5804169874615965
1705062728116617200,56.6816171875,2.3642574805304406,-2.0213331008985636,2.1129259274467826
1705062728167042300,56.73204223632813,-1.646070924502611,-2.685088101775944,2.7197449891373515
1705062728217447200,56.782447265625,5.184421576750278,-1.25959703374058,2.249265804346651
1705062728267904300,56.832904296875,7.14211398012638,-1.2554016278773545,3.309441358852386
1705062728318322400,56.88332250976563,3.1830250562041997,-3.8963799542918798,0.47379141461122776
1705062728368737300,56.9337373046875,5.556120799967646,-3.4302702167570587,5.682563990622759
1705062728419181300,56.984181396484374,4.925366151416301,1.4440421853788197,1.9948088127188384
1705062728469590500,57.03459057617187,4.637973981653154,4.900136140830814,-0.20205064042834564
1705062728520029200,57.085029296875,3.597583762460947,5.436354602858424,1.207797142267972
1705062728570444300,57.1354443359375,1.1547666130218655,1.9811219404108822,2.5271672383174297
1705062728620890400,57.18589038085938,0.9312966611362993,-0.5154724649883806,3.4058526915982363
1705062728671305500,57.23630541992188,0.7883529289919883,-3.318793709087372,4.785665712042152
1705062728721720300,57.28672021484375,0.5930195593209937,-0.7198370266485958,1.8341197997212408
1705062728772154400,57.337154296875,1.8233153509818016,-1.9348082252644,2.930024985386431
1705062728822580200,57.38758032226563,9.741958039858936,-2.0901937250263987,4.001963312269747
1705062728872995300,57.43799536132813,5.7039773655295365,-3.7579596178561445,0.6615187662579118
1705062728923442400,57.4884423828125,7.769593552529812,-4.726728369905055,2.2719886544167993
1705062728973857300,57.53885717773438,1.6163105770111084,-0.0011425249516782059,0.12519909974499605
1705062729024287200,57.58928735351562,3.3331808386191724,4.787015373085439,2.9542952110290526
1705062729074700300,57.6397001953125,1.7183524629898368,4.376128048817813,1.2816690186865627
1705062729125146400,57.690146484375,1.574538596947491,3.8786499440729614,0.36165538358688354
1705062729175560200,57.74056030273437,0.22568698861422015,1.7129975118279457,0.9782844761520624
1705062729225993500,57.79099340820313,2.9263109332993626,-4.03102311027646,2.846834661002457
1705062729276408300,57.841408203125,-2.5019717145234344,-2.713282807385921,1.868491440400481
1705062729326849300,57.89184936523438,5.011968330070376,-1.6744234510228038,4.925345108628273
1705062729377268200,57.94226831054687,3.9828985463157296,-1.253873687657714,1.8540645633801818
1705062729427714300,57.99271435546875,3.15497443524003,-4.754745673121512,2.8022072915077207
1705062729478129400,58.04312939453125,5.2450756596773855,-3.100624713154137,5.458915394234657
1705062729528543200,58.09354321289062,3.1839836721032855,1.984778563222289,0.4584973263023421
1705062729578990300,58.143990234375,4.127525628437102,6.972467023038864,0.6117423799695447
1705062729629402400,58.19440234375,2.262022848458588,4.620480118277668,1.5666151104718447
1705062729679820300,58.2448203125,0.8465824881859123,0.6365857658576219,3.346322352004051
1705062729730264300,58.29526440429687,0.0737354544894304,-4.144869269686937,5.038292857894301
1705062729780674300,58.34567431640625,1.352606010697037,-1.0761676350161433,3.660920800861716
1705062729831109400,58.396109375,1.0192869331479073,-1.1667944660764187,0.8802961764130741
1705062729881523500,58.4465234375,8.697336758968234,-6.011649814516305,7.591596115726232
1705062729931964400,58.49696435546875,5.6865071752905845,-3.018751024326682,0.8032776725318282
1705062729982401300,58.5474013671875,7.068554822918772,-4.829064124263823,2.5673399664908647
1705062730032817400,58.5978173828125,2.1277453109160063,0.5584239736927673,1.0225878743894397
1705062730083232500,58.648232421875,2.556013393573463,6.127203362366557,3.7312957750752567
1705062730133676300,58.69867626953125,1.8909280208751558,3.816456815010309,2.145147258224338
1705062730184108300,58.7491083984375,1.446835030967742,3.9708188169434666,0.28763942252248526
1705062730234538200,58.79953833007813,0.068722069607093,1.4859277088195084,0.5784545159390195
1705062730284953300,58.84995336914063,2.4565461803883313,-3.106644996356964,2.798491778115928
1705062730335368400,58.90036840820313,-2.842233596947789,-3.6421117632344364,3.587845920039713
1705062730385845200,58.95084521484375,3.9055882198810576,-2.773342431551218,3.3445781386852262
1705062730436259300,59.00125927734375,7.706394461295008,-1.485335588145256,3.7483100382402537
1705062730486674400,59.05167431640625,4.183362666471302,-5.075432209721208,1.3460434373110532
1705062730537113000,59.102113037109376,6.321925139477849,-1.459042332242429,6.1371758903265
1705062730587549200,59.15254907226562,3.565376314078271,3.1745360448002815,0.7690115380536764
1705062730637964300,59.20296435546875,4.075694903434813,6.71577540422678,0.5935040914349258
1705062730688391200,59.25339111328125,2.715884514316916,4.694134552553296,0.9590796441402286
1705062730738812200,59.30381225585938,0.8470834965106099,1.5603673021234572,3.8312095629841085
1705062730789247200,59.354247314453126,1.4468797468923031,-2.6825468928605316,5.601953745859861
1705062730839672000,59.40467211914063,0.27690743623105807,-3.9425212354809043,2.1153477477662266
1705062730890102300,59.45510229492187,0.2028375530223362,-1.5030338880516587,2.456748132701218
1705062730940515300,59.50551538085937,4.951890001204609,-2.5527219508126375,2.533198335175216
1705062730990948000,59.555947998046875,6.596462796103954,-2.173904273892194,3.5861835397854445
1705062731041367300,59.6063671875,6.87607118012309,-3.858671862666309,2.8586656763106584
1705062731091809300,59.656809326171874,3.9137043063193557,-1.183831671725586,0.7927661423243582
1705062731142223000,59.70722314453125,2.840124349708855,3.2306244272470472,2.7978280535101887
1705062731192669200,59.757669189453125,2.4343236810557545,5.075162745130061,3.0387635925248264
1705062731243084300,59.808084228515625,1.5184386701934038,3.568901857855916,0.6860270384401083
1705062731293510100,59.85851025390625,1.673686076658964,1.0435350930891931,1.625528925602883
1705062731343927000,59.908927001953124,1.7121438176080583,-2.889429647886753,1.9813862904354929
1705062731394373000,59.959373046875,-0.1228063867890276,-4.1878029870063065,3.1237440151959657
1705062731444805000,60.00980517578125,4.288126232498884,-3.486950135356188,2.440819326685369
1705062731495220200,60.06022021484375,6.012103988024592,0.673822440579161,4.2975601235374805
1705062731545635300,60.11063525390625,5.3612832875221965,-1.369969233430177,1.8228627849087118
1705062731596081200,60.1610810546875,5.051698867434263,-5.339685788220167,5.594642546063661
1705062731646497300,60.211497314453126,4.346800247524678,0.8171725615672767,3.2605794205278156
1705062731696911000,60.2619111328125,4.429888572838903,4.245189008048176,0.7444915023684501
1705062731747357200,60.31235717773438,3.427530562660098,5.7727282456725835,1.161232740296051
1705062731797772300,60.36277221679688,1.8466306139871478,2.659162217880785,2.50636264295876
1705062731848217300,60.41321728515625,0.2253381386439316,-1.8740926214084028,4.883372053034603
1705062731898631200,60.463631103515624,1.6893357734724879,-2.3285224425435063,5.501342915597558
1705062731949061000,60.51406103515625,-1.1161112306088208,-2.5400921863421795,0.7088622628435493
1705062731999492000,60.5644921875,2.66831963006556,-3.5110239616438745,4.268156042137742
1705062732049921300,60.61492138671875,5.4376481498003,-1.389971280234307,4.098601147247851
1705062732100336400,60.66533642578125,7.209110710078478,-4.373162769271433,3.7418116161316632
1705062732150752300,60.71575219726562,4.364517690522969,-1.4887918660789727,1.6791867199018597
1705062732201184300,60.766184326171874,2.8261022540971634,0.45340204898994413,2.5796231094807385
1705062732251612200,60.81661206054687,1.900864308477938,5.642022136875987,3.5779011568695305
1705062732302044200,60.867044189453125,1.9653679064400493,4.119491667324304,1.8741469819441436
1705062732352459300,60.917459228515625,1.634570310192555,2.4519509615525603,1.5430578554041683
1705062732402905300,60.9679052734375,0.5983612856751307,-1.012520434687659,2.155931833219528
1705062732453319400,61.0183193359375,2.2745813012585043,-3.769777773682773,2.2060858571812507
1705062732503735300,61.0687353515625,-2.15599832258448,-3.0555978229478,3.4011084196805954
1705062732554180000,61.11918017578125,3.5780490409076213,-1.229025954388082,3.64609644895643
1705062732604595200,61.16959521484375,6.331585532748699,0.6936592138189822,4.350854491351544
1705062732655040300,61.220040283203126,3.1820515349969267,-4.453221517631412,2.4041231885813175
1705062732705455400,61.270455322265626,4.894440267276764,-3.565217908646166,6.601135464090109
1705062732755870200,61.3208701171875,4.477442935696244,1.9813240388542412,2.0395244450189174
1705062732806312200,61.37131225585937,3.894078399351239,6.114044021064043,0.662297203284502
1705062732856732200,61.42173217773438,2.4996821422815323,4.785255669936538,1.3552388434186577
1705062732907146200,61.47214624023437,1.4342739478193223,1.6864441436842084,3.4923432265713807
1705062732957591300,61.52259130859375,0.6300304989952593,-4.175995060312748,6.186642808806896
1705062733008007200,61.57300708007813,-0.46437359792459754,-1.204039908626303,2.0003407278828322
1705062733058453000,61.623452880859375,2.4884414940819144,-1.6677407583884893,3.088372842085361
1705062733108874000,61.6738740234375,7.306532973432541,-1.910620271077752,5.18376457414627
1705062733159296300,61.724296142578126,5.62704025632143,-2.6067101461097595,2.439234833972901
1705062733209725200,61.77472509765625,7.182259528031945,-4.6865030347615475,2.130511122367531
1705062733260144000,61.82514404296875,2.729020182482898,-0.30558017114894465,1.7930176817432044
1705062733310559200,61.875559326171874,2.424555151235312,4.402366651923955,3.833022457624972
1705062733361003300,61.92600317382813,1.9542279421359299,4.303960638229548,3.0011612993612884
1705062733411422200,61.97642211914062,1.4409152855299412,3.118947720830142,0.6188149121716618
1705062733461864200,62.0268642578125,-0.17877775526000186,1.2255018719151616,1.3662998972676694
1705062733512280300,62.0772802734375,2.0274711652621624,-2.177071651881933,2.7178219121202827
1705062733562695200,62.12769506835937,-2.868795148397982,-3.6689787273719903,3.1779765406429767
1705062733613140200,62.17814013671875,4.172036385814845,-3.0420100271001456,5.281781296262145
1705062733663555000,62.22855517578125,6.082230248174071,0.7673474772989749,4.94937012733817
1705062733713974300,62.278974365234376,2.358907936196029,-5.043622528484463,2.648006617616117
1705062733764416300,62.32941625976562,5.51260431432426,-3.567547812898457,6.5974658356666565
1705062733814836200,62.37983618164063,0.8740840969651937,1.2709003719128669,1.4408515726439655
1705062733865259300,62.43025927734375,4.947215579652786,6.548530832105874,2.3747831123284993
1705062733915705000,62.480705078125,2.4757769505590197,5.3941632283389565,1.5785435948051512
1705062733966127000,62.531127197265626,0.36520708471909163,1.6412392665624618,3.018371085098386
1705062734016536300,62.581536376953125,0.21739802982704712,-2.0371564007133243,6.2841638563603155
1705062734066981000,62.631981201171875,0.6038510421978309,-1.892050595164299,5.711936800101399
1705062734117396200,62.682396240234375,3.612548399619758,-3.9023800714895125,2.8119986176818608
1705062734167827200,62.7328271484375,9.266053176757692,-2.236888407202065,3.5492788734972476
1705062734218243000,62.7832431640625,5.952329026019573,-3.021592385232448,3.1540804090097545
1705062734268688100,62.83368823242188,6.170348092088103,-2.9205910943478344,3.024533991642296
1705062734319102200,62.884102294921874,1.742328674121946,0.7323143770363182,1.35747712386474
1705062734369519400,62.934519287109374,2.8199948771327734,4.418754599884152,3.541663430057466
1705062734419964400,62.98496435546875,2.1429951947569847,4.276389617475867,3.1520059408232566
1705062734470379000,63.03537890625,1.1835590653292833,2.7972122596994042,1.4663213833346962
1705062734520800000,63.085800048828126,0.14951822429695166,-0.6170991212297231,2.5628140134990214
1705062734571244300,63.136244384765625,1.6042825778260825,-3.0099829037204384,3.1505981198519466
1705062734621669400,63.18666943359375,-2.025366594198346,-2.9962676821008323,4.698617543186247
1705062734672092200,63.23709204101562,5.509851800745725,-1.515701500314474,5.24432221096158
1705062734722525200,63.28752514648438,3.7073011515036223,-0.4381226102609187,2.425793753119558
1705062734772944100,63.33794409179688,2.68525439825356,-4.199617635701596,3.88716672026664
1705062734823359200,63.38835913085938,5.251881248039007,-1.8341532635994255,6.644113605073094
1705062734873805300,63.43880541992188,2.968265576453507,2.871133820478618,2.0345928338356316
1705062734924220200,63.48922021484375,3.219617295542359,5.776826328641176,2.109276026637107
1705062734974651100,63.53965112304687,1.5458001398496328,4.7192535039797425,2.0062860461533067
1705062735025066200,63.59006616210937,1.282231913266331,2.162211644141376,3.061673927991092
1705062735075511300,63.64051123046875,0.7683212177019566,-2.2219619100965557,6.351603653904795
1705062735125919000,63.6909189453125,-0.6565238805800676,-0.6150703918810934,3.8143110351532696
1705062735176342300,63.74134228515625,2.3972698155552146,-2.5724320289328695,4.486427621662616
1705062735226788400,63.79178833007813,7.229129415756463,-2.25701627234295,6.447990144470333
1705062735277203200,63.842203125,6.022138475304842,-1.8426897674068807,2.807643052820861
