time,seconds_elapsed,z,y,x
1705063582737105000,0.08910498046875,-0.39023682349212463,-0.02773942927328171,-0.11897502846522257
1705063582843569000,0.19556884765625,0.17079680297607555,-0.049519032260123635,-0.19862764370972288
1705063582893977900,0.245977783203125,0.16369981218613683,-0.029728465932339895,-0.29456894779102877
1705063582944425000,0.296425048828125,0.3631782823052257,-0.21416692068502305,-0.23888001299062742
1705063582994839000,0.346839111328125,0.1107425125730224,-0.1891428262014873,-0.19875075863273814
1705063583045272800,0.39727294921875,-0.12602065439410506,-0.10789660335630177,-0.27839256022227926
1705063583095686000,0.447685791015625,-0.30638690268825736,-0.05496177586989943,-0.13452938427864572
1705063583146132000,0.498132080078125,-0.11624627022161148,-0.21113438458871095,0.14747883655698968
1705063583196546800,0.548546875,0.19443779080444945,0.22397713422272353,-0.3300589067094028
1705063583246986800,0.59898681640625,-1.0968149209212512,-0.13975464464626275,-0.13567405166858806
1705063583297407000,0.649406982421875,-0.43815479549746955,-0.08839115356323309,-0.8961753711335361
1705063583347853000,0.69985302734375,-0.27944879127694294,-0.38409221978988495,-0.8331394345711917
1705063583398267000,0.750266845703125,0.07052246552598662,0.8747419032867997,-0.9062317049194126
1705063583448681700,0.800681640625,0.9331368821755051,-0.8031123259022831,0.08883366403318942
1705063583499128800,0.85112890625,-0.9729119893334806,0.46219402539581056,0.8482296708710492
1705063583549557000,0.901556884765625,-3.00505655323416,0.8134362245831638,0.9811258370578289
1705063583599976000,0.951975830078125,-0.6760640089608728,0.8249853542100638,-0.794658678072691
1705063583650418000,1.00241796875,-0.6094947837058454,2.3337938070751725,0.3567844530822709
1705063583700832800,1.052832763671875,0.26981899407375604,0.16574395829960703,-0.8050587837949394
1705063583751264800,1.1032646484375,-0.4864582596890628,2.9559944161623712,-1.0283755178801715
1705063583801680000,1.153679931640625,2.634345464271307,0.7371492498468607,-1.3966710701338947
1705063583852108000,1.20410791015625,3.722929221007228,1.187041281421855,-1.778372485797107
1705063583902538800,1.254538818359375,2.071788738155365,-0.7798249007519334,-2.0655489669829605
1705063583952986000,1.304986083984375,1.6661629876777528,-2.103237769386172,0.5771223174871877
1705063584003400000,1.35539990234375,-2.9337711861774323,-0.6408247916668653,2.237958666782081
1705063584053845800,1.405845703125,0.46351818667165934,3.0634052818283437,2.370391160979867
1705063584104260900,1.4562607421875,-0.43192956430707125,1.931396224863827,1.8517337823450564
1705063584154691000,1.506691162109375,0.047282939204550345,0.8830595767118036,2.024487327145785
1705063584205116000,1.557115966796875,2.7634757020533085,1.2081777390833943,-0.5047217191975564
1705063584255555800,1.607555908203125,2.645452549219131,0.7343398184493184,-0.7093171670041978
1705063584305967900,1.6579677734375,-2.1118308256864546,-0.7956954737745225,0.8171895127020776
1705063584356411000,1.708410888671875,-1.8747483088381587,0.28635451554479074,-0.30804482596311716
1705063584406827000,1.758826904296875,-1.0791890286639332,-0.27053254917059094,-0.19790327495792878
1705063584457246700,1.809246826171875,-0.8457642306055874,-0.33285924148503687,2.1053224667057395
1705063584507686000,1.859685791015625,-0.46959122297503053,-0.9685121469393372,0.9121449475511908
1705063584558119000,1.910118896484375,-0.9776822724752128,0.13071737910928205,1.5094332336999474
1705063584608533800,1.96053369140625,-0.4882875940080732,-0.9811919610965997,0.7589841381013392
1705063584658979800,2.010979736328125,-0.6826040782541036,0.6095391343042255,1.7299913167268037
1705063584709395000,2.06139501953125,-0.11117006293586455,-0.40485735992100086,2.616319978237152
1705063584759840000,2.111840087890625,1.9599594715252517,-0.39180714154876767,2.5532950745254754
1705063584810254800,2.1622548828125,-0.1640784910391085,-0.6097221261883154,1.1449067516561597
1705063584860701000,2.212700927734375,-1.8940970063000917,-0.5563600634329021,0.6321072322040796
1705063584911115800,2.26311572265625,0.38543347833100705,-0.27199847527099774,0.2136749359169975
1705063584961531000,2.31353076171875,0.3263340044347569,0.6248436709418892,-0.056889328132686205
1705063585011972900,2.363972900390625,0.368992119683139,1.5377508350372313,-0.21001146323969586
1705063585062392000,2.41439208984375,0.5459618939394131,0.9733739808220416,-0.150077529546991
1705063585112820700,2.46482080078125,-0.3251079332385212,-0.9488993186485022,-0.8680902633778751
1705063585163265000,2.51526513671875,-0.4095093139126897,-2.5772335839957,-0.7718714575294405
1705063585213694000,2.56569384765625,-2.5905332105517385,-3.3234491336777805,-1.2593892362087964
1705063585264126700,2.616126708984375,-0.522020681055449,-2.320503971260786,-1.8862043533541262
1705063585314541800,2.666541748046875,-0.5307885459333658,-1.7224778723567724,-2.164560691485554
1705063585364972800,2.716972900390625,0.5705680004728958,-1.125058361043781,-2.1277644540078935
1705063585415388000,2.767387939453125,1.4657329159222543,-0.33046452836822715,-1.7024302328452467
1705063585465833000,2.8178330078125,1.5740079972021281,-0.15814462574440985,-0.9144652071923017
1705063585516280300,2.8682802734375,1.0988508106630295,0.1305066863675136,-0.5967933422386645
1705063585566725400,2.918725341796875,2.01863129459396,0.21683274236079303,-0.036997504803957415
1705063585617156400,2.96915625,0.9486470243878662,0.914155483656004,-0.297867368281912
1705063585667587300,3.01958740234375,2.0864225359246134,0.8912666293691843,-0.7762297988694161
1705063585718002400,3.07000244140625,2.1820954713933167,0.24651841718088835,-0.9884429551381617
1705063585768416500,3.12041650390625,-0.051784378809644836,-0.621620836437866,-0.8218836618676781
1705063585818863400,3.17086328125,-0.45554359106328335,-0.43985104148872195,-0.6473083815325051
1705063585869279500,3.221279541015625,-0.6681963443256914,0.03719934523570118,-0.7960785548079758
1705063585919718100,3.27171826171875,0.02954406754245283,-0.11979275632258504,-1.017737730944529
1705063585970151400,3.3221513671875,0.027314484142768197,-1.0177712678879498,-0.6084761812478303
1705063586020566300,3.372566162109375,-0.47806748449523,-1.0572317561388016,-0.7445232126809657
1705063586070999300,3.422999267578125,0.08259445911636576,-1.0404521054472773,-0.40188623515572397
1705063586121413000,3.4734130859375,1.1963701046507804,-0.7115849658057093,-0.5104139394897967
1705063586171849200,3.52384912109375,1.2323285030648112,-0.7262296502951532,-0.06799007010469213
1705063586222274300,3.5742744140625,1.0224657093144953,-0.7390331638973205,0.7519616921186447
1705063586272720400,3.624720458984375,0.022207998166477772,-0.5046281956952064,1.73671697172001
1705063586323134500,3.675134521484375,0.4667125257335603,0.02080644253917271,1.8496049536228178
1705063586373581300,3.725581298828125,0.5464606372417882,0.31399164207093416,1.7946417758136988
1705063586423996200,3.77599609375,0.8440434712275863,0.517943312081322,1.5535982463799416
1705063586474424300,3.82642431640625,-0.3949872328896075,0.7912194974042475,1.330617466250807
1705063586524856300,3.876856201171875,0.10404685085928067,1.281399846356362,0.8256001981727779
1705063586575271400,3.927271484375,1.6152639905676245,0.6133909874267875,0.33324455100819467
1705063586625699300,3.97769921875,-1.4008315508142113,0.19135610007047651,0.2790173593234271
1705063586676146200,4.028146240234375,0.4181479629203677,-0.5326780860070139,-0.9691431383192539
1705063586726560300,4.078560302734375,-0.5229989880356938,-0.38642595996707674,-1.0721566458091139
1705063586776988200,4.12898828125,0.6692261257648467,-0.3770105909658596,-1.3593999086208641
1705063586827437300,4.179437255859375,-1.1715382265374064,-0.9421607311084866,-1.7737383962556719
1705063586877853400,4.229853515625,0.5949059575894847,-0.9504096501462161,-1.774462765007466
1705063586928268300,4.280268310546875,-0.6432995112173259,-0.6880472922213375,-0.882304520560801
1705063586978714000,4.330714111328125,-0.2452533474148251,-0.7611398548305034,0.12113095525694079
1705063587029128200,4.381128173828125,0.019208108531020115,-0.15376739704087375,0.8117327816661447
1705063587079574300,4.43157421875,0.04439758389343042,0.3111427189132199,0.7626228599298744
1705063587129989400,4.4819892578125,0.7839628042742609,0.1646165799711831,-0.05253421536283567
1705063587180434200,4.53243408203125,0.013312394706066696,0.5051657001053914,-0.02113537309943931
1705063587230850300,4.582850341796875,-0.3880193666383624,0.5251182086793705,0.0991219068787992
1705063587281265200,4.63326513671875,-0.6376496687620877,-0.24058983084950594,0.2529498384678736
1705063587331708200,4.683708251953125,1.8118981771714984,-1.1589394417271017,0.18026859660595654
1705063587382139100,4.73413916015625,0.009551145330516738,-1.0477446736082434,-0.17541078131124377
1705063587432554200,4.78455419921875,1.8460019606947897,-0.2792349475968629,-0.5211176312685013
1705063587483006200,4.835006103515625,-0.03155519730231026,0.09123717237780801,-0.8270860528163612
1705063587533422300,4.88542236328125,2.314521535850316,-0.47185847378727047,-0.0772035598582588
1705063587583847200,4.93584716796875,0.06557077053589747,0.6319113443057984,-0.22933433214062823
1705063587634279200,4.986279052734375,2.456391574348509,0.9049601506136358,0.1738501078657806
1705063587684707300,5.036707275390625,1.6753507950007915,1.0326992262981831,1.0213212885197251
1705063587735141400,5.087141357421875,0.6393889867100865,0.8672500131614506,0.6868575709801167
1705063587785552400,5.137552490234375,-0.028566726393299175,0.6853475317433476,-0.3067292863851413
1705063587835997400,5.18799755859375,-0.05109116324794013,-0.5417185938138515,-0.614930252758041
1705063587886404400,5.238404296875,-0.06659597169805784,-0.5730826867075637,-0.10119831129405647
1705063587936856300,5.288856201171875,0.3111826855974272,-0.10794779468742198,-0.287062992607709
1705063587987272200,5.339272216796875,0.1046671199157834,0.6271703603237867,-0.37046781825888897
1705063588037703200,5.389703125,0.3888349208049476,1.2116541830223053,0.2276337205015123
1705063588088118300,5.4401181640625,1.2577636808335781,0.14313384788893163,0.44160292665734885
1705063588138548500,5.490548583984375,-0.3052624287029728,-0.276149457470607,0.25853786773327736
1705063588188994300,5.540994384765625,0.2597932015566155,0.1661113485735841,-0.15464481919622047
1705063588239408000,5.591408203125,0.6695798345733434,-0.27241777839530257,-0.22577647526226938
1705063588289843200,5.64184326171875,-6.1705322164833545,-2.623664203520119,0.9387987073294818
1705063588340281300,5.69228125,1.544011502867192,-0.7499320129219442,1.5873460560724137
1705063588390700300,5.7427001953125,1.674408984106034,0.8270516390901058,-0.6413619672834873
1705063588441115400,5.793115478515625,2.806531292186677,1.4437529931738973,-0.14684245661590248
1705063588491562200,5.843562255859375,1.4635586406230925,0.2614896667435765,-0.26611193798305466
1705063588541977300,5.893977294921875,0.2095602123408578,-0.22254216951616107,-0.07360393249767366
1705063588592422100,5.944422119140625,-0.8568314949996769,-0.28301079460745676,0.5948111554455012
1705063588642837200,5.994837158203125,0.35955373513251543,-1.1331987051405013,-0.3232932484993711
1705063588693283300,6.045283447265625,0.2589274698390625,0.2690608143839054,-0.270306266134046
1705063588743698400,6.095698486328125,0.4782822962896898,-0.12075319885257631,-0.8858275801204144
1705063588794112300,6.1461123046875,0.07370431043249555,-0.5193647962518037,-0.4063929719904437
1705063588844564200,6.196564208984375,0.9596285101946442,1.9824391604892908,0.8134346902132034
1705063588894981400,6.2469814453125,-0.10160148526746779,2.018376296919584,0.8421318654526024
1705063588945404400,6.297404296875,-0.858822595751658,0.9001064269721507,0.33061818455997855
1705063588995847200,6.34784716796875,0.2696986556297168,0.5674528275944293,1.2153601979333906
1705063589046262300,6.39826220703125,-0.9239428643073886,2.601232591481507,1.074598632133752
1705063589096695300,6.4486953125,5.254545498812198,4.772610415636002,4.168563449007272
1705063589147112400,6.499112548828125,16.409805571740865,-17.13650773491859,0.7633682714696973
1705063589197555200,6.54955517578125,-2.609929984939098,0.061634262204030524,-1.9481148660831151
1705063589247969300,6.59996923828125,-0.843655567888543,-0.393612547002919,-1.4537120771303773
1705063589298410500,6.650410400390625,1.7777496777236461,-0.2822327594396658,-0.32352449997197835
1705063589348831500,6.70083154296875,-0.6655685531053692,1.588916812520474,2.751652285529673
1705063589399276300,6.7512763671875,0.22038278125887736,-0.22124370893714948,0.6785923583947122
1705063589449703200,6.801703125,-0.8473555183850229,1.3614302454046905,1.247459728962183
1705063589500114200,6.8521142578125,2.2124483779504893,7.048412783122062,-3.9955201274797316
1705063589550552300,6.90255224609375,-4.070081739728153,9.712612702909112,4.135942451387644
1705063589600967400,6.952967529296875,0.32732864149529484,-0.9258944367665797,-1.8648953156046568
1705063589651416300,7.003416259765625,3.3958278489291667,2.580731655244529,6.240057588130235
1705063589701841400,7.05384130859375,-0.897004003977403,-6.814748988676071,0.35308015520423647
1705063589752249300,7.104249267578125,1.5550070902645587,-7.232496846362948,-0.5686530702296644
1705063589802701300,7.154701416015625,1.6799056818261742,-5.038703776782751,0.6786154470093548
1705063589853103400,7.205103271484375,-1.307363578043878,-0.6177020555589348,1.0695204520866275
1705063589903548200,7.255548095703125,-0.31991504077054556,0.5673831598917022,-0.005246474973115255
1705063589953963300,7.30596337890625,-0.5335378081088885,2.5078534660384055,-0.6950413158271461
1705063590004410400,7.356410400390625,0.7045469569277018,2.121284298208356,-3.0329774103388187
1705063590054831400,7.406831298828125,-1.8041243282996118,2.2549510103762147,-2.5462182680070398
1705063590105269200,7.457269287109375,-0.7604872361406684,3.4984929813727734,-1.0651982780385763
1705063590155685400,7.507685302734375,-1.1674122326485812,2.8589933008298276,-1.0886521457970142
1705063590206130200,7.558130126953125,0.4145054416995495,-1.2561297960214317,0.4052611914815381
1705063590256546300,7.60854638671875,1.2654036741927266,-4.042919007514417,0.41440439247787
1705063590306961400,7.65896142578125,-1.298182492722571,-0.35789489854220297,0.7603320455789565
1705063590357389300,7.709389404296875,-0.5215769193433225,1.2276363997258246,-2.015011350531131
1705063590407824400,7.759824462890625,-1.3633002770602702,0.5294211665702984,-0.2689172411947511
1705063590458249200,7.810249267578125,-1.4494462363794445,0.14965855521624907,-1.9855700058609247
1705063590508725000,7.86072509765625,-0.38269882920272646,2.1287309609524905,-5.322740498638153
1705063590559151900,7.91115185546875,-0.47472493260167536,-4.269785981427133,1.065851188989356
1705063590609572900,7.96157275390625,2.943817071634531,-1.0757597118023783,-1.3579159536734222
1705063590659988000,8.011988037109376,1.3797468233399093,0.7162792611017823,-0.7927630735844373
1705063590710433000,8.06243310546875,0.9509767825096845,0.286645717043709,0.8800858215980232
1705063590760848100,8.11284814453125,-0.7325667443621903,-0.5007794843778014,0.8835359620518982
1705063590811293000,8.16329296875,1.0689126954518258,1.1016074158947915,0.5483378658231347
1705063590861708800,8.213708740234376,-0.6070233155583963,1.6434594268299638,-1.4827347579970955
1705063590912153000,8.264153076171874,-0.37480968338809906,0.2952080859447829,-1.1199041931509972
1705063590962582800,8.314582763671876,-0.8982858604814856,0.8957653290279209,0.48266993678938597
1705063591012995800,8.364995849609375,-2.296305787941068,1.530099443501234,0.33871859850510955
1705063591063430000,8.415429931640626,-1.6613523725256323,-0.3341940702853724,1.113013629919663
1705063591113844000,8.465843994140625,-3.846562030416727,-1.5243126767933368,-0.19236169691644608
1705063591164274000,8.51627392578125,-1.7630732098564506,-3.9406329375162716,-1.8272908304840325
1705063591214720000,8.566719970703126,0.7683835423484444,2.620275730125606,3.060200640568137
1705063591265138000,8.617137939453125,4.326457716719806,-4.551759633272886,2.89114083571881
1705063591315579000,8.667578857421875,3.2213401738122105,-1.7909094574175775,-1.6511453051574527
1705063591365981000,8.71798095703125,0.48288054733276364,-0.2721712562883273,-1.5763320562355219
1705063591416427000,8.768427001953125,-0.6586774784173816,1.160611758853495,0.6072120795961469
1705063591466841900,8.818841796875,-0.5764365271801128,2.3999777593396603,0.10011456204480491
1705063591517287000,8.869286865234375,-0.4972313269095495,3.9905236343666908,1.2639094901122152
1705063591567701800,8.91970166015625,-0.288995823833812,3.773658706769347,-0.5662926977738738
1705063591618147800,8.97014794921875,-0.5556160401325673,1.498580123513192,-0.6656747899588197
1705063591668563000,9.02056298828125,0.0852553488886915,-1.0926927994899451,-1.449736159236729
1705063591718978000,9.07097802734375,-1.4162553299173712,-5.455014879664779,1.7920825928501785
1705063591769424000,9.121423828125,-2.940127861727774,-1.1611626707345246,1.1286077971536665
1705063591819839000,9.1718388671875,2.409392653416842,-1.5248042597025633,0.5302961593065411
1705063591870286800,9.222286865234375,6.264045197439193,-0.6387193438202142,0.7002595619320869
1705063591920712000,9.2727119140625,0.9081731943760066,-0.25011956521170214,-2.6169506773561237
1705063591971127000,9.323126953125,1.6348653476163744,-5.22457180083096,0.1179076732283458
1705063592021572900,9.37357275390625,1.1412686874147504,1.279287530377507,-0.9688221627365797
1705063592071988700,9.42398876953125,0.8715682416867464,4.860391574941575,-1.5175941821932792
1705063592122421000,9.4744208984375,-0.32442970518339426,6.798363671064377,-1.98854405323565
1705063592172841000,9.524841064453126,-2.0719699399411677,1.8617057257831096,0.5424135903406888
1705063592223281000,9.575281005859376,-1.646228599282354,0.5342948370212689,2.0830784861937164
1705063592273710000,9.6257099609375,-0.804136408253014,-2.710765563867986,0.6347774012614041
1705063592324141000,9.67614111328125,-3.4389439370781183,-1.4837595710001885,0.6176732678558677
1705063592374556000,9.726555908203125,-0.319387363634631,-1.8395117218926549,1.3662164567679167
1705063592424970800,9.776970703125,5.439916679254174,-0.15130525384419596,0.2695615304476581
1705063592475416800,9.827416748046875,4.526245837309956,-4.902325467568636,-2.2202935384929177
1705063592525832000,9.87783203125,0.433821771261841,-1.7978959553040563,-1.950936937766522
1705063592576278000,9.928278076171875,0.24336086646541952,-3.2704604708120226,0.40245720344409347
1705063592626693000,9.978693115234375,0.027420305437687784,2.397546586669981,0.038067800916591656
1705063592677121000,10.02912109375,-0.8815447882346809,7.09196492460072,-0.05003323799311183
1705063592727568000,10.07956787109375,-4.724723459823429,4.863087097635865,-0.12598616760261355
1705063592777982000,10.12998193359375,-1.935901281198114,4.628513494868576,-2.1560515140764416
1705063592828425000,10.180425048828125,1.0738689296197146,-3.229796159729361,1.1540541539035736
1705063592878828000,10.230828125,0.09904633915824815,-5.786958431077003,-1.7304567422814667
1705063592929275100,10.281275146484376,-4.554366893161833,-2.3708267759181556,-0.7043809527110308
1705063592979689700,10.331689697265626,3.633800154224038,-0.10071830922476947,-0.42699733206927776
1705063593030135000,10.382135009765625,6.763546040183305,-2.266959866469353,2.6776465535983442
1705063593080535800,10.432535888671875,0.590108092321083,-2.9135394222706554,-2.4817756064519285
1705063593130965000,10.482965087890625,-1.0537753320746124,-1.6120555499151348,1.309111298494041
1705063593181409800,10.533409912109375,1.4193844217233358,3.71361837182641,-1.5011699938759206
1705063593231825000,10.583824951171875,0.12682142198351212,5.704010683277249,-1.7549156223639846
1705063593282271000,10.63427099609375,-1.4036471927568315,5.036325357213616,1.2424999145977198
1705063593332686800,10.684686767578125,-0.27236149989711117,0.8476231563452631,1.0001287898220121
1705063593383113000,10.735113037109375,-2.0773378967151044,-4.9602054096072905,0.5555218955757096
1705063593433545700,10.785545654296875,-2.6831942508533597,-0.3368695365723222,-0.6898505422510206
1705063593483975000,10.835974853515625,0.671458853252977,-5.544034056332707,0.6244586902122944
1705063593534390000,10.88639013671875,3.2746710742443796,-1.6825675945118068,-0.13055682738586327
1705063593584836900,10.9368369140625,0.6716678928937763,0.08032334497976117,1.366736096727848
1705063593635268000,10.98726806640625,1.9315037768915295,-2.289120844873041,-1.4960187485925853
1705063593685696800,11.03769677734375,-0.2629649451942183,-1.2100812346171588,1.693610820443183
1705063593736127700,11.088127685546874,0.43531664946209636,3.206689717169106,0.6907418650675564
1705063593786543900,11.1385439453125,-1.0821585459940135,5.855401852706074,-0.6013243001991883
1705063593836959000,11.188958984375,-1.4166063353121279,3.9361093226119874,-1.2508103545643388
1705063593887404000,11.239404052734375,-1.7168011418946085,0.9758579065922647,-0.9790182703193276
1705063593937819000,11.28981884765625,1.3885811410501598,-6.85313161856234,-1.8185180337026714
1705063593988257800,11.3402578125,-5.117318463814258,-0.4924642586382106,-0.5175361560525372
1705063594038679800,11.3906796875,3.6761566561773416,-4.0600300090521575,1.7489320179097354
1705063594089124900,11.441124755859375,6.616116175600886,-0.675772259472683,1.8211235400259493
1705063594139541000,11.491541015625,1.2732767456553875,0.9252188025273382,-2.7108023887470365
1705063594189980000,11.54197998046875,-0.5780486385518685,-6.198536660218238,2.6816315315812824
1705063594240383700,11.5923837890625,3.553120351356268,2.2309695385470985,-0.7459652281828224
1705063594290818000,11.642818115234375,0.10328199483347125,4.757479189738631,-2.0597316590063275
1705063594341245000,11.693244873046876,0.04644897259844001,4.8920358364835375,-0.7310505676455795
1705063594391671800,11.743671875,-1.455444161619991,1.4727278893761335,1.544586087884754
1705063594442123000,11.794123046875,-0.73028966627568,-1.5957516269765792,1.0969362822785973
1705063594492537000,11.844537109375,-2.6794927659869194,-2.2301006467580793,0.4689995772248134
1705063594542953000,11.894952880859375,-2.654999545243382,-0.6370481226723641,-0.3588649856833741
1705063594593397800,11.945397705078125,1.5590249476037918,-4.085476000475883,2.5997432297065854
1705063594643812900,11.995812744140625,5.149125222441554,-2.027927092336118,0.5227964512009173
1705063594694259000,12.046259033203125,4.220463147592544,-5.317268789228796,-0.7949922939412295
1705063594744674000,12.096674072265625,0.3162432934552431,-1.1180783659633249,2.118942265126854
1705063594795120000,12.1471201171875,-3.810345346392691,2.78851048232764,-6.006339433148503
1705063594845535000,12.197534912109376,-2.2585960888803003,2.9756898812353607,-2.9369714435234666
1705063594895963000,12.247962890625,-1.5172405464500187,4.666359241399169,2.574419403357804
1705063594946378000,12.2983779296875,-0.39709629746545105,3.705595808890462,-0.05030582612310536
1705063594996824000,12.348823974609376,2.3940967384770513,-0.7424348620995879,0.502298364508152
1705063595047238000,12.39923779296875,-2.375559357398003,-5.702590295085311,-0.7394634450733661
1705063595097684000,12.44968408203125,-2.6623604294002057,-0.6850307939443737,0.8196767994731664
1705063595148099800,12.500099853515625,1.289492259658128,-3.936779769219458,-1.6037475941665469
1705063595198545000,12.550544921875,7.205117841050028,1.4306595567144453,-0.23352690672595053
1705063595248958700,12.600958740234375,0.795736901763454,-5.415126521390676,1.5051779143430293
1705063595299392000,12.65139208984375,-0.6447674648780375,-3.837796247898042,0.7652232516866176
1705063595349802000,12.701802001953125,1.3112969719700514,1.9577619614809751,2.8301567901849745
1705063595400252000,12.752251953125,-0.34287462220601733,3.203304458644986,-1.2682784989766775
1705063595450667800,12.802667724609375,0.24473547928687184,8.602202898812294,-3.5414994716674086
1705063595501173000,12.853173095703125,-0.6259226983502507,1.3894531015790998,1.1578972391977906
1705063595551587800,12.903587890625,-0.3330847573366016,-0.7449678877085447,0.3685201182572171
1705063595602002000,12.954001953125,-2.59232973857969,-4.24265422887355,1.233187604112178
1705063595652448000,13.004447998046874,-1.83105792793259,-0.9670475542794913,0.673969374769181
1705063595702877000,13.054876953125,0.6924718306653201,-2.393578121430427,1.4205973046444356
1705063595753291800,13.105291748046875,1.9168433833763001,-0.722990887569636,2.8891262810260057
1705063595803722800,13.15572265625,6.24107582526207,-4.431432295149564,2.692169876730442
1705063595854152000,13.20615185546875,0.0758245676892111,-2.451124593731016,-1.2324896849758922
1705063595904584000,13.256583984375,-1.363322342761606,1.8381928943790495,-2.209602487000078
1705063595954999800,13.306999755859374,0.40495512120705096,4.415994779781997,-1.491577697405219
1705063596005446000,13.35744580078125,-1.0468559811402112,5.415405338332056,-0.8607525409009307
1705063596055869700,13.40786962890625,-1.9149207447506487,5.186472079539299,-0.18984317475687712
1705063596106304800,13.4583046875,-1.904420831915736,0.6148291304711252,-0.570610378309898
1705063596156719900,13.508719970703124,-0.22437667320063337,-5.763225088790059,1.414330353204161
1705063596207136000,13.559135986328124,-5.394768793016672,-1.6338859811902045,2.4957637997940183
1705063596257581800,13.609581787109375,3.4687697510212656,-3.1427789705336093,-1.0708309501633047
1705063596307996200,13.65999609375,3.6422850739747283,-1.3131763559758662,2.412579028367996
1705063596358428000,13.710427978515625,1.632628090083599,-3.8604686829552053,-0.4575784944243729
1705063596408857900,13.76085791015625,2.057146172557771,-1.5532599543362855,1.058949885168299
1705063596459286000,13.8112861328125,0.9342474737659097,2.128992388367653,-0.7714674067731946
1705063596509730800,13.861730712890624,0.8872245874367654,7.626831679758429,-1.6321091807760297
1705063596560146000,13.91214599609375,-1.4184846964046358,4.145242779174446,-0.2779205770626664
1705063596610560800,13.962560791015624,-1.607206356318295,1.587836177676916,1.3825468293219805
1705063596660995800,14.012995849609375,-1.5719805830277502,-2.480141283248365,1.0020208141136915
1705063596711438800,14.06343896484375,-3.238879045373201,-2.600757959707081,1.353999949273467
1705063596761854000,14.11385400390625,2.7690231070473788,-2.170662807752937,0.40914292828571047
1705063596812281900,14.16428173828125,2.87802094964385,-3.148156571918726,-0.24448576057581228
1705063596862714000,14.214714111328124,4.985251588058471,-2.8388062528476117,0.36002412912324067
1705063596913130000,14.2651298828125,3.021632132720947,-3.1740695963323113,-0.03533265859796665
1705063596963575800,14.315575927734375,-0.2653079463900998,-0.2183983294433914,1.0394948777876793
1705063597014005000,14.3660048828125,-0.9291429902337491,5.444692223092913,-1.0957754218056797
1705063597064435000,14.41643505859375,-0.9112421534925699,6.159080848142504,-1.0697064761780202
1705063597114851000,14.46685107421875,-0.20409659490641205,3.716092945246398,-0.8830525624491273
1705063597165297200,14.517297119140625,-2.125497970380634,-1.5831486043825744,0.09620722500849514
1705063597215720000,14.567719970703125,1.278534081661701,-5.271255226072669,0.20668704979103059
1705063597266140000,14.618139892578125,-4.614312243297696,-2.4496612431801856,0.6286653481218963
1705063597316570000,14.668570068359376,2.3381540481112895,-1.9609484825626013,0.7919013421885669
1705063597366999800,14.718999755859375,5.354918428665399,0.30007697062278166,-0.9434848923843353
1705063597417433000,14.76943310546875,1.9028503677286206,-5.6012628409862515,-0.3159637093288824
1705063597467847000,14.819846923828125,1.4818845709085464,-1.0359831433396787,2.77375773435384
1705063597518293800,14.870293701171875,1.2440870376586914,3.046156917646527,-1.2430977343603968
1705063597568697900,14.92069775390625,1.7466864309400318,5.851819902566075,-2.487057638508081
1705063597619124000,14.9711240234375,0.46901338655445723,4.72542225574255,0.21300996920224277
1705063597669569000,15.021569091796875,-1.9353778418458998,1.265374740359187,1.0923599142737686
1705063597719983900,15.07198388671875,-1.1568768831741063,-1.7767871163018047,1.6894434716306626
1705063597770430000,15.122429931640625,-1.4019719530209898,-3.9088291014984247,1.683649252268672
1705063597820844000,15.172843994140624,-3.7994597952410576,-0.18642790468698367,-2.749622533267736
1705063597871289900,15.223289794921875,1.750621432301402,-3.238916747035086,1.8602682403258979
1705063597921687800,15.273687744140625,3.4916318634316323,-0.8972265606869012,3.9910184321463107
1705063597972132900,15.3241328125,3.786834414684772,-2.5774264762192964,-1.4690331265114247
1705063598022548000,15.3745478515625,0.42160888049658385,-2.4295934376634656,-0.3263730578035116
1705063598072994000,15.424994140625,-0.39095593154691155,4.948845811203122,0.5018086082298309
1705063598123409200,15.4754091796875,-0.3833694219406694,6.174576523438096,-0.08553972792117856
1705063598173842000,15.525842041015625,-0.7584853947989643,3.4061204026237126,-1.5188539729960262
1705063598224264000,15.576263916015625,-1.3346639651626349,-0.39271008173786104,0.25055972846094515
1705063598274701800,15.626701904296874,0.5699170988161116,-6.650009677374363,0.9387032110657543
1705063598325116000,15.677115966796874,-4.234775458322465,-1.2889607831299303,0.35716136010326444
1705063598375563000,15.72756298828125,2.367986730186641,-1.1888886628542095,0.015897523819952037
1705063598425977900,15.777977783203125,8.148708604961634,-0.657119435320422,-1.4257739766299724
1705063598476423000,15.8284228515625,-0.696132983521372,-4.217409312979877,-0.32152119732555
1705063598526837800,15.878837646484374,2.8358643541768194,-1.5628201021030543,3.7471690515115856
1705063598577254000,15.92925390625,0.9920202291030437,2.4507595598109067,-0.8278643437124789
1705063598627699000,15.979698974609375,1.2234570682145653,5.444181350961327,-1.8708347886562346
1705063598678114000,16.030114013671874,0.8780989586297422,4.658786760318279,1.1032979993302374
1705063598728543000,16.08054296875,-1.5456886422991751,-0.20354031273052095,1.5030125530026852
1705063598778987800,16.13098779296875,-2.100250570268929,-1.854640317441523,1.3049066864110528
1705063598829403000,16.18140283203125,-2.4892729764699935,-1.4721709861457346,-0.8430038259815424
1705063598879849000,16.231848876953126,-1.6517016238659619,-1.305889998359978,0.9186339442443102
1705063598930249000,16.2822490234375,6.218050923505425,-1.2629311465993522,4.422359346377849
1705063598980695000,16.332695068359374,3.723230542041361,-3.64529390040189,-1.21532877988182
1705063599031111000,16.38311083984375,2.499455347788334,-1.9452334654279053,-0.3926283582711592
1705063599081553000,16.433552978515625,0.49938857800867403,1.952408471623808,0.8295983278982341
1705063599131966700,16.483966796875,0.23698539488306267,4.269683397835493,-0.1194975362356752
1705063599182417000,16.5344169921875,-0.24083032507449387,3.4377667099922893,-1.1197012909900397
1705063599232832000,16.58483203125,-0.9047634589977562,1.7829498767152427,-0.701384912700206
1705063599283247000,16.6352470703125,-0.7203852351158857,0.16311918102027848,0.352273514996469
1705063599333692000,16.68569189453125,-1.2319145154364406,-2.957215190128982,-0.06398138245260343
1705063599384113000,16.73611279296875,-4.0986128376856445,-1.6033071569226682,0.19558986518271265
1705063599434552800,16.786552734375,5.782205683591962,-1.4967390256911515,-0.18761172591038047
1705063599484979000,16.83697900390625,2.8316861917093394,-3.594733633726835,0.38371838150881227
1705063599535395800,16.887395751953125,0.4575403909036889,-1.0718553978402168,0.6364275796212255
1705063599585811000,16.93781103515625,2.8109154986202713,-1.730196922301501,2.3353161943368614
1705063599636257000,16.988257080078125,-0.20401823244057596,2.078092952866107,-0.9958228362563997
1705063599686683000,17.038682861328127,1.0207769525099546,4.6921863410949705,-0.8451192837655543
1705063599737105000,17.08910498046875,-0.20849073821213096,4.316224784258008,1.0280001817617566
1705063599787550000,17.139550048828124,-1.906054862858355,1.6704279516458511,1.8999821188159285
1705063599837963800,17.1899638671875,-0.500799796513468,-0.05297181219565682,1.6502666226267815
1705063599888379000,17.24037890625,-2.074965906886756,-3.062352265644073,0.12154153621867299
1705063599938825700,17.29082568359375,-2.5086948852986097,1.028489718844369,-0.38368009532503783
1705063599989241900,17.341241943359375,4.955629187732935,-0.333738873863779,0.8569148624341935
1705063600039686000,17.391685791015625,7.752724250793457,-7.492564079087972,5.337732316064835
1705063600090100000,17.442099853515625,2.0930863777279853,-0.9684089057605713,-2.647429694510996
1705063600140545800,17.4925458984375,2.9688945220068095,-2.3216468576855958,0.8849852840773761
1705063600190961000,17.5429609375,-1.1414430941335856,2.0131654304035007,0.8881354917366057
1705063600241375000,17.593375,0.7023682246491313,5.038416776534914,-0.8608385386839509
1705063600291805000,17.643804931640624,-0.84420421474725,4.437435042695701,-1.6488693230494855
1705063600342252000,17.694251953125,-1.7421910192169248,3.662752692463994,0.2678912591478787
1705063600392676900,17.7446767578125,-0.15272016214341855,-3.074704674477875,2.5925419200256465
1705063600443092700,17.7950927734375,-2.2698978196173907,-4.6640226151451465,0.07437733715611976
1705063600493573400,17.845573486328124,5.270497101181745,-2.507347270081937,-0.9577951572876423
1705063600543988500,17.895988525390624,3.6646278386861084,-2.732446357539296,3.0154914380088447
1705063600594415400,17.946415283203127,2.3533920953840015,-1.7981093057937918,0.7658071159891784
1705063600644848600,17.9968486328125,1.313493020709604,-1.6238137922480702,0.4798534180639311
1705063600695263700,18.047263671875,0.09694533002469688,3.3141201643183824,-0.6326872971143573
1705063600745709300,18.097709228515626,0.3340941535748541,6.5857923490077255,0.5704144904116168
1705063600796123400,18.148123291015626,-0.4031013465665281,3.834469733823836,1.541873175664246
1705063600846539500,18.19853955078125,-1.775207884286344,1.0819579088553786,1.6213658145740628
1705063600896984600,18.248984619140625,-0.9354036580637097,-1.391868492157757,1.0426645207997411
1705063600947400400,18.299400390625,-2.4904236078098414,-3.120362263803184,0.46058980506956576
1705063600997828600,18.34982861328125,1.6357300016216934,-6.2238721770048135,1.6423637405477463
1705063601048273700,18.400273681640623,4.081845242758095,-0.044629355955845676,1.666107165837288
1705063601098688500,18.4506884765625,4.3544300117507575,-5.537918788322806,0.5264813502587378
1705063601149134600,18.501134521484374,1.3158048047833144,-2.7396833230555058,0.3385363007407635
1705063601199536600,18.55153662109375,0.2807551794340834,2.981628331373632,0.3160158048423007
1705063601249965300,18.60196533203125,-0.07671744770859368,3.619362463548779,-0.25346040007220577
1705063601300410600,18.65241064453125,-0.8928546292129903,5.704588775426149,-0.6860607215140014
1705063601350841600,18.702841552734377,-1.4856032991707324,4.840955637587607,-0.010082735452323686
1705063601401257500,18.753257568359373,-1.7002140181005,1.6592231054119764,0.5983779445489869
1705063601451702500,18.80370263671875,-0.7289846480917185,-5.511946142676472,0.35962493720520283
1705063601502126300,18.854126220703126,1.783254266489297,-3.6026071435809133,0.7474949950333685
1705063601552533500,18.904533447265624,6.900163418850302,-2.993649900817871,2.4346596350118515
1705063601602977500,18.9549775390625,1.147006354283914,-3.1381942730918526,-1.8017763038687407
1705063601653392600,19.005392578125,4.088635341289639,-1.903130207583308,3.348955915378034
1705063601703839500,19.055839599609374,-0.7043445662233978,-0.19926911995103583,1.1572622292298822
1705063601754253600,19.106253662109374,1.0489986191920935,4.919832482686639,-0.13677660608300937
1705063601804681500,19.156681396484377,0.7936282390464097,6.250475521770119,0.11114241687711328
1705063601855097600,19.20709765625,-1.3492458866141737,2.405426672395319,0.30618434758717195
1705063601905544400,19.25754443359375,-0.5198635030215606,-0.6902203984767198,0.7549784095913171
1705063601955975400,19.307975341796876,-1.7874714457929133,-3.2490219614639875,0.20724855613131074
1705063602006390500,19.358390625,1.759602172745019,-6.531308479148149,3.6690535461738705
1705063602056836600,19.408836669921875,0.9010143355973065,3.2851863307788967,-1.0326640819195658
1705063602107245600,19.45924560546875,5.506261082777381,-0.7114080018036067,-0.911425547235459
1705063602157666600,19.50966650390625,1.320622726459056,-5.458641253468394,1.5918138491362332
1705063602208110600,19.560110595703126,0.7877575934473424,1.2183309573724865,-0.9199604436077177
1705063602258526500,19.6105263671875,1.4464574298270045,2.8041587178364393,-0.607345533250086
1705063602308972500,19.66097265625,-0.47474177413862195,2.6655180166482926,0.0877130899048876
1705063602359387600,19.7113876953125,-0.37225397102329877,3.3537384734794498,-0.27779044787697493
1705063602409813500,19.7618134765625,-1.130299914959073,2.945681696462631,0.0977389189546462
1705063602460247600,19.81224755859375,-0.6891253697816282,-1.2110731682639568,0.899689955125749
1705063602510676700,19.8626767578125,0.22380205165045333,-5.147884866991639,-0.6363572908639907
1705063602561091300,19.91309130859375,0.801703116691485,-3.2355361646860836,1.4629465000741182
1705063602611536400,19.963536376953126,3.9368180554032324,1.4504402158528567,1.108253064454347
1705063602661950500,20.013950439453126,2.0009917391374707,-1.341736826158315,0.3097137820886448
1705063602712398600,20.064398681640625,2.0722481723606587,-1.8767878518417476,1.2085041945587842
1705063602762813700,20.114813720703125,0.6231026724934577,0.7430801742658019,0.5302786601824686
1705063602813228500,20.165228515625,0.8676977569289505,3.3177591053426263,-0.3855013559354469
1705063602863665700,20.215665771484375,1.6068885225407779,3.884520005150139,0.2498132574751973
1705063602914105300,20.266105224609376,-0.9486312422968447,3.0790362739413975,0.13770418752301483
1705063602964520400,20.3165205078125,-1.580362334664911,1.0415624778419732,0.616501593727991
1705063603014966500,20.366966552734375,-0.7062235118377953,-2.2689083701886235,2.0307268060572445
1705063603065395700,20.417395751953126,-2.776562854902446,-3.06242386957556,0.9447008440453558
1705063603115810600,20.467810546875,-1.301301355395466,-6.054311144635081,1.6839825758762657
1705063603166240500,20.518240478515626,5.523407447889447,2.0003540257558226,0.48406606732290236
1705063603216655600,20.568655517578126,5.2249020556986325,-5.873674006977677,0.022970169044856447
1705063603267085600,20.61908544921875,1.3253098613619803,-1.9352831492997704,1.332246382626891
1705063603317531600,20.66953173828125,0.43958639920316633,2.3673269511036574,-0.3416630909917876
1705063603367949600,20.719949462890625,-0.6549301085826009,3.2409608200833198,0.2270584596305154
1705063603418390500,20.770390625,0.5652088115273043,4.304018505896628,0.03396782966830069
1705063603468793600,20.820793701171876,-0.6429468983873724,4.674895014554262,-0.5677649622835219
1705063603519238400,20.87123828125,-1.4167688323974608,2.207526557508856,0.29735426766062156
1705063603569652500,20.921652587890627,0.868953236882761,-6.337860375234484,0.9062584467958659
1705063603620073500,20.972073486328124,-4.5877354942783715,-3.2547961609512566,1.8674159201234577
1705063603670514700,21.0225146484375,2.6247090363979337,-4.261293462891876,-1.470150586234033
1705063603720929500,21.072929443359374,5.263692681863904,2.1039666681826112,1.7475804571703075
1705063603771373600,21.12337353515625,1.6024851730152965,-2.317083641423285,-2.284089134316146
1705063603821789400,21.17378955078125,1.8136806766740976,-4.23529831315279,1.3957728061199188
1705063603872234500,21.224234375,0.25956538415011016,1.713147733953595,0.9852345875509083
1705063603922650600,21.274650634765624,2.223181515019387,6.7928346785098315,-1.5055655984863638
1705063603973075700,21.32507568359375,-2.637980313642323,5.24896506833136,-0.5175536186439916
1705063604023524600,21.375524658203126,-1.5595872576616703,1.6553165994927286,1.8628331223778425
1705063604073940500,21.4259404296875,-0.6365203724712133,-1.1117224941305817,3.000041063159704
1705063604124354600,21.4763544921875,-1.1112746772978455,-3.522421553970873,0.9947809259880334
1705063604174787600,21.52678759765625,-4.069848807755112,-2.215624523768574,-1.8721923407450318
1705063604225232600,21.577232666015625,1.8373722256459295,-0.8072155965026467,2.356101354342699
1705063604275665400,21.62766552734375,3.545596093331277,-2.08440505862236,4.004520011015236
1705063604326091500,21.678091552734376,5.9021425610929725,-4.2228450742930175,-0.9200552822843193
1705063604376506600,21.728506591796876,2.05048116171062,-2.063275615223497,0.27464688915424046
1705063604426922500,21.778922607421876,0.880858267275244,1.6788105800658464,1.6271316846244037
1705063604477368600,21.82936865234375,-0.015995569375436752,5.79019142164886,1.7817672428019344
1705063604527783700,21.87978369140625,-0.044134348113671874,5.8925651699304575,-0.8081927709717303
1705063604578229500,21.9302294921875,-0.47583282077834005,3.788714529342949,-1.7181836822941898
1705063604628643600,21.9806435546875,-0.5272772498767823,-2.9133661115303635,-0.14346393835982307
1705063604679059500,22.0310595703125,-0.9504929445154965,-5.636529969200492,0.37645259175691753
1705063604729504500,22.08150439453125,-5.000903915220499,-0.8249066629506647,2.3802687041327357
1705063604779933400,22.131933349609376,5.312090509808063,-2.0557488729804754,-0.6219212076239288
1705063604830347500,22.182347412109376,3.939010012489557,-2.6862732199072834,0.7109625230584293
1705063604880798500,22.232798583984376,2.4591543170601127,-2.1495807106271383,0.5366366143744439
1705063604931208700,22.283208740234375,0.923264745850116,-1.4225525303654372,3.4064959579378367
1705063604981639700,22.3336396484375,1.4737943495638668,3.115037269388139,-0.8043229438010603
1705063605032054500,22.384054443359375,2.472799688313901,7.243866381639242,-0.6128999525068327
1705063605082501400,22.43450146484375,-0.5547434950817376,4.371125710485876,1.0390152045119554
1705063605132915500,22.48491552734375,-1.672104652686417,0.26327707988331095,2.7634268944755194
1705063605183362600,22.535362548828125,-0.4137228399544954,-3.3920509607389566,2.355841095971316
1705063605233776600,22.585776611328125,-4.507894188061356,-2.0507940270520746,0.5578819757705554
1705063605284221400,22.636221435546876,1.5189577256314455,-4.795049334198236,1.0821196022231132
1705063605334636500,22.686636474609376,5.029927180609107,-0.4478379485893994,2.687002118703723
1705063605385052400,22.737052490234376,5.872040268296003,-4.050506393903493,-0.07458371448237448
1705063605435498500,22.78749853515625,1.7565208656035363,-0.009412935015535914,-0.042508107751864005
1705063605485956900,22.837956787109373,-0.07958416225132532,2.596603762637079,0.8563797326441853
1705063605536380700,22.888380615234375,-0.5350041543344035,3.2891774462416765,1.3301060095973312
1705063605586832000,22.938831787109375,0.1509087927393615,4.687607781133055,-0.6520948120914399
1705063605637243000,22.989242919921875,-0.5509431164180859,2.99777311822772,-1.1307436401385813
1705063605687670800,23.0396708984375,-0.31672117663267996,-1.1586586520243436,-0.2783784220990725
1705063605738092800,23.0900927734375,-1.0994716459751128,-6.5705392502963536,-0.04759548945217393
1705063605788540000,23.140539794921875,-2.9619600465685125,-2.8669837150618434,2.8532112102970477
1705063605838955000,23.190955078125,4.70574607989192,0.8729740898966789,0.6087324940964579
1705063605889398800,23.241398681640625,3.4254815211758016,-1.4217856376461684,0.05965381984338164
1705063605939814000,23.29181396484375,1.1759984938818961,-1.9883099522188306,-0.12219891328201629
1705063605990229000,23.34222900390625,2.224553534024954,-2.241901997580379,3.6660654702737925
1705063606040672800,23.3926728515625,0.8740823433995246,3.359009399619698,-0.27195419773785395
1705063606091089700,23.443089599609376,2.083024271788448,7.592597401723265,-0.4429109770486131
1705063606141534700,23.49353466796875,-0.09527946090539917,3.7217318279162046,0.9283583426620811
1705063606191955700,23.543955810546876,-1.2125615801908076,0.30930724711436774,1.819954057855159
1705063606242385000,23.594385009765624,-0.3457602971775457,-3.9608316759362814,1.5560959084145725
1705063606292794600,23.644794677734374,-2.979384351839125,-0.6631103462982922,-0.020258967007533647
1705063606343220700,23.695220703125,1.8407190518558025,-1.9679228516198695,0.7030779803536832
1705063606393657900,23.745657958984374,7.291680272215604,-3.781068398503959,1.880824852272868
1705063606444100900,23.796100830078124,3.1092361818939445,-0.9192575560353696,1.1520225750107318
1705063606494506800,23.8465068359375,3.7295538998439905,-3.59877998650819,0.8937582269892096
1705063606544948000,23.896947998046876,0.6274923588197678,0.11998029651762918,0.4231781391073018
1705063606595362800,23.94736279296875,-0.14165898956339806,5.531909318774939,0.8202701622564346
1705063606645811700,23.997811767578124,-0.5097668006926774,4.72864823205173,-0.6483344366446137
1705063606696223700,24.0482236328125,-1.46888801895231,4.247162646208703,-1.6197620326392352
1705063606746669800,24.098669921875,-0.284987373643741,0.0906187482185196,0.7242820964239537
1705063606797084000,24.149083984375,-0.5718166122945025,-4.136175675621629,0.07825049336161465
1705063606847499800,24.199499755859375,-4.617456971064209,-3.672688980066776,3.14379457731694
1705063606897943800,24.24994384765625,4.663453290824592,-0.4907477005112916,-1.3161663315720855
1705063606948373800,24.300373779296876,10.12189083841443,-4.121828585839271,3.1805051823377606
1705063606998805800,24.3508056640625,0.4299311935640871,0.08003638126454315,-2.297089924056083
1705063607049221600,24.4012216796875,5.332503183239698,-4.4992260206982495,2.910747745725512
1705063607099649800,24.45164990234375,-1.0373311969477683,1.5069522305391727,0.5132935135141015
1705063607150093800,24.50209375,2.220283455490321,6.917421427643299,-1.0631005751069635
1705063607200509000,24.552509033203126,1.3926879918470978,6.1376446768820285,0.04158232554330025
1705063607250933800,24.602933837890625,-0.8601276870008557,1.2500602668493985,2.143783422525227
1705063607301373700,24.653373779296874,-0.7991877728696912,-0.7719885080378502,0.8820803564161062
1705063607351803000,24.703802978515625,-1.4594170107737183,-2.724079511210322,1.968394706915319
1705063607402217000,24.754217041015625,0.8100133374623953,-5.6803170884788035,1.5640689331203699
1705063607452657700,24.80465771484375,2.3015743759937584,3.6764071238070724,1.9625443734519183
1705063607503077600,24.85507763671875,5.030430453956127,-3.681003219425678,1.444468594097346
1705063607553516000,24.90551611328125,4.596741807554662,-2.8014266625240443,1.4753028544306754
1705063607603937800,24.955937744140623,1.8275816301241516,0.8537965112179517,-1.1073642989210783
1705063607654353000,25.006352783203123,-0.3194264535360038,3.4952909704610704,-0.4971273550784215
1705063607704797700,25.056797607421874,0.16645311121596024,4.931479081338644,-1.183800838195905
1705063607755213800,25.1072138671875,-1.249572044941038,4.020539125663042,-1.2931598422549664
1705063607805642800,25.157642822265625,-0.46335170753095295,2.4596657737135885,-0.39920320661682634
1705063607856056600,25.208056640625,0.22415464621409772,-5.505253951561451,2.161791226772219
1705063607906502700,25.258502685546876,-3.97805782828629,-6.7792498052716255,2.069086931850761
1705063607956917800,25.308917724609376,3.372066449591517,-1.7135785265862942,-0.12781453380724414
1705063608007351000,25.35935107421875,8.228355557650326,-1.8728844146624206,1.8207373171873389
1705063608057794800,25.409794921875,2.839506802332401,-2.06361493018046,-1.402412536395341
1705063608108210000,25.4602099609375,3.3652833653226493,-2.4739970814049244,2.384556610585004
1705063608158649900,25.51064990234375,-0.40801045365706085,-1.0180857406646013,2.03677777665928
1705063608209070800,25.56107080078125,2.960771421305835,6.225978209373355,-0.7588776089869439
1705063608259487000,25.611487060546875,1.272097180482,7.201859131515025,-1.1533389183063059
1705063608309931800,25.661931884765625,-0.6528177926037461,2.9082910002231595,0.7426688169859349
1705063608360347600,25.71234765625,-1.1843130255017429,1.0058088812850414,2.387925648626685
1705063608410762800,25.7627626953125,1.401390499871224,-3.416200482611358,3.759807583810389
1705063608461214700,25.813214599609374,-0.40033495059311386,-2.0393061260931193,0.9364629578582941
1705063608511623000,25.863622802734376,2.2199679598003623,-4.578372914910316,0.8486800449870526
1705063608562070000,25.914070068359376,6.327790816640854,0.9627637394804507,0.3952387599652633
1705063608612497000,25.964496826171874,6.046845631060004,-5.2646074586212634,1.7036914849527178
1705063608662912800,26.014912841796875,2.2316538675494493,-2.192339509771019,-0.13775617343857885
1705063608713356800,26.065356689453125,0.8694366364855318,1.6249607703261078,0.9785533562213182
1705063608763772700,26.115772705078125,0.5168576722690835,4.198851327504217,0.9061450495492667
1705063608814200800,26.166200927734376,-0.18346372111914677,5.278345476594567,-0.2086262011600658
1705063608864619800,26.216619873046874,-0.7510122824393213,3.637237142935395,-1.3610161116458475
1705063608915064800,26.26706494140625,-0.41808910887259987,-0.7417633195135742,0.15575137393232433
1705063608965480000,26.31747998046875,0.7802925913289189,-4.144712033298611,0.29304690758921204
1705063609015895800,26.367895751953125,-3.710069447173178,-1.9775410131841897,0.4123876092953607
1705063609066343700,26.41834375,1.082084165583551,-0.8319286705419421,0.08471289430875331
1705063609116755700,26.468755615234375,7.227865679430961,-0.6622545331865549,0.19910364545732737
1705063609167200800,26.51920068359375,1.6694045999474822,-3.9454242634460326,1.989773010508716
1705063609217617000,26.569616943359375,3.687568569290638,-1.3669080922938883,2.6405942955330013
1705063609268062000,26.62006201171875,0.5090549260962755,-0.19800054305363446,1.6361020498044787
1705063609318485800,26.67048583984375,2.109729615623504,4.3990202641054985,-0.5107995778065174
1705063609368895700,26.720895751953126,0.677506462854147,6.399978100973367,0.5623991609340533
1705063609419319800,26.77131982421875,-0.8808566598400474,2.0726326416336,2.288279864004254
1705063609469767000,26.821766845703124,-1.4347437572881578,-0.5436424380159005,2.11982664674595
1705063609520199000,26.872198974609375,-0.15142932774843648,-2.5617247569575903,1.8835298734478652
1705063609570613000,26.922613037109375,-2.0880074670284987,-0.9978371717534958,1.6647181956969201
1705063609621028900,26.97302880859375,2.7039813105553385,-2.282845563995838,1.4643679111793637
1705063609671459800,27.0234599609375,6.967298095968365,-2.994802577984333,3.795063606108725
1705063609721887700,27.0738876953125,6.282223243686556,-3.2592350201815363,0.3779055670442059
1705063609772334800,27.1243349609375,2.507369481913745,-2.690539645180106,0.6780822899807244
1705063609822749000,27.1747490234375,0.5077228007096797,2.5867422938361764,1.3644341033957899
1705063609873194800,27.22519482421875,-0.04951801391339395,6.587893120679259,1.5665775549404322
1705063609923609900,27.27560986328125,0.7378374513067305,4.885922322039306,-0.7807914076965302
1705063609974024700,27.326024658203124,-0.8906300850313156,2.1848003464378416,-2.454489247858524
1705063610024469000,27.376468994140627,0.04810609672227874,-1.933731389813125,0.45483463907632976
1705063610074898700,27.426898681640626,-2.485394673731923,-4.847551674851775,0.45680984813943504
1705063610125314800,27.477314697265626,-1.3331680275164544,-1.5369722518801687,1.530502179083228
1705063610175760000,27.527759765625,4.807840134449303,0.8395349808271974,1.0512030704338102
1705063610226174700,27.5781748046875,4.7191652411744,-4.2917838782235975,0.9927598684892058
1705063610276590800,27.6285908203125,2.86899417810142,-2.0904525220930577,1.1795060636114327
1705063610327031800,27.67903173828125,1.0517466757912188,-0.40923919173441825,3.1479201328143476
1705063610377449700,27.72944970703125,1.4499141461521385,4.060255342240631,-1.3003348484508692
1705063610427881700,27.7798818359375,0.6761370011318475,6.654130556696653,-0.3681199764911085
1705063610478365400,27.830365478515624,0.47950573713742195,3.832558639505505,2.305488188436627
1705063610528782600,27.880782470703124,-1.0215731443889438,0.2473085446452722,2.8084926553875205
1705063610579207400,27.93120751953125,0.7563695716887712,-2.450520490358025,1.9669399780623613
1705063610629641500,27.981641357421875,-2.649238497498631,-1.8860726897984743,0.7377930276431143
1705063610680057600,28.0320576171875,0.8375398614872247,-5.31565784690082,2.0209943704634905
1705063610730502700,28.082502685546874,1.715125609897822,2.760084013788402,-0.3657470368146896
1705063610780918500,28.13291845703125,6.019215281334519,-1.8323799703165888,3.2099522260963913
1705063610831333400,28.18333349609375,4.387918147593736,-2.640273977537453,1.8387825308352708
1705063610881767400,28.233767333984375,1.6429809956632553,0.7068015309214591,-0.6716066642258316
1705063610932206600,28.28420654296875,-1.93684601470232,3.8883857406675815,1.8739279323659837
1705063610982621400,28.334621337890624,0.7518710912257432,4.717614796862006,1.8823548383191226
1705063611033053700,28.3850537109375,-0.5729243543406948,3.6206153862193227,-0.8142820277575403
1705063611083500500,28.43550048828125,-0.8621210527751594,-0.1748624449797906,-0.6107408382441848
1705063611133914400,28.485914306640623,0.009705637776729418,-2.9020570742696523,0.5233933576481417
1705063611184326400,28.536326416015626,-3.5509073514819143,-4.646828611499071,1.8995627243600786
1705063611234774500,28.5867744140625,4.255992141613364,-0.4159078558433801,-0.1595612145440653
1705063611285190700,28.637190673828126,9.2092692132622,-1.0197574002038687,2.743681745041907
1705063611335635500,28.687635498046873,-1.1013509569156914,-4.4989472037568685,-1.4031088480964302
1705063611386051300,28.73805126953125,4.182759147620201,-2.412726766275614,3.1471593775749205
1705063611436466400,28.788466552734373,1.7050879077471792,1.3573784857958555,2.4443510079428554
1705063611486899700,28.838899658203125,2.697876271678507,6.9225266418278215,-1.5744038646519183
1705063611537326600,28.88932666015625,0.5389498962854966,5.7781339041084046,-0.02650510170535417
1705063611587772700,28.939772705078123,-0.8423822600170969,1.6566921256296336,2.4846812647655603
1705063611638200600,28.99020068359375,0.20637352686244992,-3.627518589736521,3.3126147281914946
1705063611688616400,29.040616455078126,-1.8634281656615435,-2.9261747396990656,2.918486815544963
1705063611739062500,29.0910625,-1.7948647709146142,0.9233274358227849,-0.20299696310143917
1705063611789477600,29.1414775390625,3.5939059507310387,-2.5414155439004302,1.2786582925632595
1705063611839891500,29.191891357421873,3.478019225403666,-1.672135486216098,3.94370430778563
1705063611890323500,29.242323486328125,6.040802843764424,-2.9583953398242593,1.240789019026607
1705063611940769500,29.29276953125,0.9848195770092308,-2.8197052465364334,0.26847956216353924
1705063611991184400,29.343184326171876,1.2969419911421836,3.226904237680137,0.9698215490374713
1705063612041598500,29.393598388671876,-2.906380490426719,5.29225300591588,0.9819429986596107
1705063612092048400,29.44404833984375,0.4058405622720718,3.7366876972466705,-0.33766894332170483
1705063612142459600,29.494459716796875,-1.624346437820047,0.9357484529133886,-1.1442146777387707
1705063612192904400,29.544904541015626,0.7554281991854309,-3.200016230754554,1.0318891520243136
1705063612243319600,29.595319580078126,-3.585328676521778,-4.531941418603062,2.2696694176889953
1705063612293766400,29.645766357421873,2.5770178954184053,-0.5255134185420349,0.5480095471842215
1705063612344181500,29.696181396484373,6.736655695170164,0.0812133160894271,0.9643627721749246
1705063612394594300,29.74659423828125,2.1366069550246,-4.133060758471489,-0.6048351578643545
1705063612445025500,29.797025634765625,3.5477836665034292,-1.2296074075378476,0.6690496001541614
1705063612495469600,29.847469482421875,1.4497706460282205,-1.024213064438477,2.6227719308555124
1705063612545884700,29.897884765625,2.1379570544593034,5.321380316200852,-0.19411223037820308
1705063612596316700,29.948316650390623,1.8403607399374247,6.397727107176184,-0.169601638374757
1705063612646731500,29.9987314453125,-1.5582779286287725,2.1193783184565604,1.8693920425020156
1705063612697160400,30.049160400390626,0.02931720683388412,-0.09880511428089812,3.2861522532016036
1705063612747593500,30.099593505859374,0.24515931245582176,-3.754875972627103,1.097798452065885
1705063612798038500,30.15003857421875,-1.9162116613440214,-0.8451078125234692,0.36924028575792905
1705063612848453600,30.20045361328125,-0.04455472438363358,-5.020861830621958,1.8923380338035523
1705063612898898700,30.250898681640624,4.808850188274682,1.1543970490571112,1.7920239945307372
1705063612949313300,30.301313232421876,6.161694245511293,-5.830452120366692,0.9967666929777711
1705063612999742500,30.351742431640623,2.494545948436856,-2.571020408569276,0.06674527594167738
1705063613050174500,30.402174560546875,1.5491048804834484,1.691627391541004,-0.1336064150816761
1705063613100589600,30.452589599609375,-0.7160163723818957,4.265423694564402,0.8291372862577437
1705063613151017500,30.503017578125,0.3270500802822411,4.20800377125293,0.8416537996120751
1705063613201463600,30.553463623046873,-0.4031547572541982,3.1735058249697086,-0.7542501683820039
1705063613251879400,30.60387939453125,-0.9105006874755024,0.558001400899142,-0.23312281943708657
1705063613302292500,30.65429248046875,0.21430576290013267,-4.123282584039867,0.5519932099929079
1705063613352732400,30.704732421875,-3.490098954775929,-3.107888858938217,1.0387809573646634
1705063613403170600,30.755170654296876,3.06498845936656,-0.8329701424188911,1.0488032427504659
1705063613453600500,30.8056005859375,6.48917614133954,-0.2846706358447671,2.0405289458863436
1705063613504026400,30.8560263671875,2.070685599219054,-2.975844779536128,-0.9462243272855877
1705063613554446300,30.9064462890625,3.711115156833827,-2.263908662205189,2.6586995688050985
1705063613604862500,30.956862548828123,1.4137339947462082,0.8089614903219043,1.7736492566674946
1705063613655306500,31.007306396484374,1.2907222398445009,7.0865884922593825,-1.300985275183618
1705063613705722600,31.05772265625,0.4139203718205914,3.766698512367904,-0.3905292671000585
1705063613756167400,31.10816748046875,0.6781528709989041,1.2707961808860302,2.6882395515441893
1705063613806583300,31.158583251953125,-0.7105198938574642,-0.4743669494768604,2.158011562103033
1705063613857025500,31.209025634765624,0.31290793848745524,-3.224088011215627,3.522975972983241
1705063613907427600,31.259427490234376,-3.0091598968997597,-0.604281140710786,-0.302354414035473
1705063613957873700,31.309873779296876,2.9090073317989704,-4.336785926249623,1.5745961723536253
1705063614008287500,31.36028759765625,6.980603567743301,0.31940234200805423,2.6283731118634344
1705063614058722600,31.41072265625,4.23321887653023,-1.9966103091828524,0.851056930186227
1705063614109134300,31.46113427734375,4.107728456555306,-4.575806279292703,1.3901939830742776
1705063614159589600,31.511589599609376,0.32518815886788066,2.799557069259882,-0.05553267109303269
1705063614209995500,31.56199560546875,1.5454232693612575,3.364094447799027,2.8628426697343587
1705063614260439600,31.612439453125,0.846545297980681,4.250632952667773,1.200652238949388
1705063614310854400,31.6628544921875,0.11054382079630158,3.8928038493707775,-0.8125185982815921
1705063614361301500,31.713301513671876,-0.9570985533256083,0.35032873760424554,-0.9414821742597966
1705063614411716400,31.76371630859375,-0.21048644207399336,-4.237437371008098,1.3434839620865882
1705063614462132500,31.814132568359376,-4.819394670903683,-3.5758193821594118,4.561468834121525
1705063614512576500,31.864576416015623,3.7207293728753923,-0.39733883751705285,0.5102912264255807
1705063614562991600,31.91499169921875,7.139348607066273,-0.5411673531392589,1.287076722948998
1705063614613437400,31.9654375,2.3295773584239186,-2.890053917264938,-1.2471376574009656
1705063614663848400,32.01584838867188,3.9626375563144682,-3.268294817210734,2.011840903801471
1705063614714280700,32.06628076171875,0.6115817825803532,0.019360972421616315,2.1399568499743937
1705063614764716500,32.116716552734374,2.4778496651798485,4.462752439303696,-0.043263762124488125
1705063614815134500,32.16713452148438,0.5063423792019486,6.414867042547464,-0.11912135073388926
1705063614865574700,32.21757470703125,-0.9505470858555286,2.2403230578258633,2.204922074098885
1705063614915988500,32.26798852539063,0.625445582357794,0.06062429971019737,3.523790504236519
1705063614966433500,32.31843359375,-0.42215146294068545,-2.657262229478359,1.6798206338912247
1705063615016848600,32.3688486328125,-2.2732183423422274,-2.2418290784746406,0.8497242202777415
1705063615067264500,32.419264404296875,0.9584968027509748,-3.680926939319074,1.678586269790679
1705063615117688300,32.46968823242187,4.86735732230097,-0.7526653834085911,2.1212793297722934
1705063615168124400,32.52012451171875,6.068574647787213,-4.262838061985374,1.0356528154067695
1705063615218569500,32.57056958007813,2.469469082586467,-2.041997118742764,0.27756323325866833
1705063615268985600,32.620985595703125,1.0300253309138119,1.331893185275048,-0.04451029615344014
1705063615319399700,32.67139965820313,-0.7447722190059721,3.66716115655601,1.89026751113981
1705063615369845500,32.721845458984376,0.6335065776079892,4.677609826470912,1.3654327590443194
1705063615420261600,32.77226171875,-0.0034799005524881067,3.335521848787367,-0.37149697864353654
1705063615470755600,32.82275561523438,0.19055725957667455,-1.0920344817116856,0.17093847646908833
1705063615521179600,32.8731796875,-0.6590344751615077,-4.462465146794915,1.1565632141150533
1705063615571593700,32.92359375,-4.20258554559648,-2.841689114807546,1.7471232149221
1705063615622024400,32.9740244140625,2.78116245765239,-1.696367425674945,0.8607516641180962
1705063615672440600,33.024440673828124,4.483977013640105,0.5585744150141254,1.681643027012795
1705063615722885600,33.0748857421875,2.24599452759102,-3.0441946776628495,-0.5406100115174427
1705063615773301500,33.12530151367187,2.3710991631187497,-3.354835621066391,2.9937010464832183
1705063615823729700,33.17572973632812,2.709193199984729,1.55519545244351,0.8219112805269658
1705063615874161700,33.22616162109375,2.032029851479828,5.407343612429499,-0.27000233301771803
1705063615924576800,33.27657666015625,0.8229139547634869,4.690670968095958,0.5219762208592146
1705063615975022600,33.32702270507812,-0.0006349200634183944,2.1533904781736433,2.1959039242543277
1705063616025436700,33.377436767578125,0.15290045061376875,-0.585080436884798,2.778200100715458
1705063616075882800,33.4278828125,-1.7176961910381912,-3.576842295466363,1.4402612055353818
1705063616126297600,33.47829760742187,-2.39777761894688,-1.695684996368736,0.27797802460463716
1705063616176743700,33.52874365234375,2.8532471583932635,-2.5111124678343533,1.4428843936458229
1705063616227142700,33.579142578125,3.8452401341632005,-1.2582739684432744,2.8116128332346677
1705063616277592600,33.62959252929687,4.877361998964846,-3.8392923316746947,1.2474778491407632
1705063616328022800,33.68002270507812,2.148503875175863,-0.45625162973478434,0.20739064974943175
1705063616378434600,33.7304345703125,-0.06529306783936917,2.5064178802773354,0.9614942310012876
1705063616428879600,33.78087963867188,0.3949695511024445,4.206644173337519,1.993911133226752
1705063616479293700,33.83129370117187,0.09706630778955296,4.005535325537622,0.5555263890877365
1705063616529709600,33.88170947265625,0.2761729479440488,2.2433545344762504,-1.3849857469066977
1705063616580139500,33.932139404296876,0.06945986409604084,-1.3006062127381564,0.46518334340490397
1705063616630570800,33.98257080078125,-0.5993465703854337,-4.896964525057375,1.176415404119715
1705063616681015800,34.03301586914063,-3.5880540098324416,-2.016716108622402,1.8702428141124545
1705063616731431700,34.083431640625,6.8319976451188325,0.4597212786067277,1.7750220063254236
1705063616781846500,34.13384643554687,2.578865569111705,-4.617954399192333,0.031019629120884927
1705063616832291600,34.18429150390625,2.8956220727860926,-3.2355829264372584,2.718244229185581
1705063616882715600,34.23471557617187,2.630667068019509,1.2867656111732124,1.803179302534461
1705063616933151700,34.28515185546875,2.0120422715924677,5.349575314071775,-1.7841833640329539
1705063616983580700,34.33558056640625,1.3991716547779738,6.4595946575462815,-0.5080287613863125
1705063617033993700,34.38599365234375,-0.2938244860992767,2.2745897768259047,2.7388874965026972
1705063617084441600,34.43644165039063,0.09341991411121561,-0.07077619369188323,3.325464272892475
1705063617134843600,34.48684375,-0.23166675714356824,-3.393146647021174,2.166381915563345
1705063617185288700,34.53728881835937,-2.077556507901847,-0.8007037303905934,1.3139476326093076
1705063617235703800,34.58770385742187,-2.2021267442919314,-1.023569140511751,1.1073040931664406
1705063617286148600,34.63814868164062,3.565301787537336,-1.8207652281075715,2.2285146927408874
1705063617336564500,34.688564453125,3.017314854043722,-1.7283960103593765,1.8065210141777992
1705063617386979600,34.7389794921875,5.647749866873026,-4.358774178434908,0.7247904112722724
1705063617437420500,34.789420654296876,0.4101933506540954,0.09000960334422997,-1.6595513144530354
1705063617487838700,34.83983862304687,0.5072507627511397,5.119685777467489,1.7523308665677904
1705063617538268700,34.8902685546875,1.1537525406084954,4.551998118203878,2.8594556576445695
1705063617588694500,34.94069458007812,-0.22512981138918547,3.4355671541213986,-0.3725172981346026
1705063617639128600,34.991128662109375,-1.279597326979041,-0.30396336533576246,-0.8749311422485858
1705063617689561600,35.0415615234375,0.5814438339481129,-3.119686264237761,0.2151744172271341
1705063617739994600,35.09199462890625,-4.625762734855711,-2.5113398468494412,1.1683113003801553
1705063617790404600,35.14240454101562,3.587982990422845,-0.5534865172905847,2.3665403307706114
1705063617840840700,35.1928408203125,7.538010656011104,-0.5453627955351025,2.815316363927722
1705063617891264800,35.2432646484375,2.11214734428972,-5.46773056885302,-0.5552259813690558
1705063617941697500,35.29369750976562,2.939542170794308,-2.700086348943412,4.909032856252789
1705063617992112600,35.34411254882812,1.5764923613637685,2.7729794434577224,0.30979674766436216
1705063618042540500,35.39454052734375,2.6684552391439675,6.08855477502048,-0.4462870293529704
1705063618092977400,35.44497729492188,1.2586026158757506,5.056040111508965,0.7157380668971687
1705063618143401700,35.49540161132813,0.12954756814492865,2.467395198921859,2.640546364738047
1705063618193833500,35.54583349609375,-0.08378319397689774,-2.411238135153055,3.4885081784531473
1705063618244256800,35.5962568359375,-2.6123183413803575,-2.8924370130091903,1.4835367220297455
1705063618294694700,35.646694580078126,-1.4624847277812658,-3.32876594478637,1.369764796899259
1705063618345109800,35.69710986328125,5.6633601084589955,0.5660745980437845,1.670868096628785
1705063618395554600,35.74755444335938,3.877362534610927,-0.6909221170052886,1.9145568798743187
1705063618445969700,35.7979697265625,4.437365192329883,-3.280916982896626,1.4670163798615337
1705063618496388600,35.848388671875,1.9405371243052183,0.6024651773300022,0.3010507658246904
1705063618546843600,35.89884375,0.5197090065795928,2.579199038849771,1.7216794154554604
1705063618597258500,35.949258544921875,1.1965479454357177,3.9793218568727373,2.024126531009376
1705063618647673600,35.999673583984375,-0.14838414223310536,3.491462644344568,0.1882002481217496
1705063618698117600,36.05011767578125,0.14577407846571877,1.2739252726919947,-0.9768400494974105
1705063618748551700,36.1005517578125,-0.131196842322452,-1.7062801862716674,0.51017804837469
1705063618798965800,36.1509658203125,-3.00174552899003,-4.328923522311449,2.6278017417162656
1705063618849380600,36.20138061523438,3.23024624158442,-4.140996519906818,1.5092783353991805
1705063618899827700,36.25182763671875,5.541984138065576,2.2335709532171486,1.9656639667771756
1705063618950241500,36.302241455078125,4.067647206057608,-1.4738262060068548,-0.8699452435947954
1705063619000687600,36.3526875,2.9175735000923275,-4.25887208096385,1.0337447167631237
1705063619051102700,36.403102783203124,1.3790337066344915,-0.6143401779104024,2.7006305388227103
1705063619101547800,36.4535478515625,2.225630515606701,4.708287288807332,-0.1439512652190402
1705063619151963000,36.503962890625,1.7340971446104347,6.114747785419225,-0.011272063967899884
1705063619202377500,36.55437744140625,-0.6883082812450826,3.043581514200568,2.2452077611275016
1705063619252804900,36.60480493164062,0.8635236861146987,1.387873138911277,3.043781420686841
1705063619303258600,36.65525854492188,-0.3353179962813854,-2.909797313132882,3.3430314937651153
1705063619353667800,36.70566772460938,-1.7660756065428256,-4.568625720138847,-0.03435021886529866
1705063619404112600,36.75611254882813,-0.36239889543056486,0.22663530231500043,1.1988670360330491
1705063619454514700,36.8065146484375,5.840521678960323,-2.592813430443406,4.03540819349289
1705063619504960500,36.85696044921875,4.356909553606808,-1.8405534860305488,1.4870188650570808
1705063619555369700,36.90736962890625,3.198202167069912,-1.2327186714261769,-0.0540383956809761
1705063619605804800,36.9578046875,1.2541001898899673,0.6463613830059767,-0.068970130650606
1705063619656234800,37.00823486328125,0.16335092568323015,4.2473298194691536,1.5368053708806633
1705063619706649600,37.05864965820312,0.7492009221684187,4.937236037430167,1.0635136128872633
1705063619757095700,37.109095703125,-0.6855256647892296,3.181016054469347,0.01621313367434195
1705063619807510500,37.15951049804688,-0.663945847274363,0.38977424748167394,-0.06588285042606294
1705063619857956600,37.20995654296875,0.24211450139982624,-4.0008769783377645,0.49457975295484063
1705063619908372700,37.26037280273437,-3.7057831481561063,-2.141530675162375,0.9944923913702368
1705063619958800600,37.31080053710937,3.0017431909024714,-2.881536848810315,2.5090458906933666
1705063620009245700,37.36124560546875,4.529193581199646,-0.2936759627403691,1.7406182169422506
1705063620059649800,37.41164990234375,1.7650341346658764,-4.718339896266162,1.6951941441118716
1705063620110075600,37.46207568359375,3.239721925938129,-2.842413045167923,4.185106295268238
1705063620160508700,37.5125087890625,2.2952884275920686,1.7917163898862898,0.07492219832227565
1705063620210953700,37.56295361328125,2.1152773128785194,5.615630389034748,-0.4340270115103572
1705063620261358800,37.61335888671875,0.5895811823701486,4.612148927783966,1.5285092517003416
1705063620311784700,37.66378466796875,0.011938614143320592,2.0011456145249307,3.016810996174812
1705063620362228700,37.714228759765625,-0.8418379970725626,-1.2248493262905626,2.4048970955632627
1705063620412644600,37.76464453125,-2.058755945841968,-4.214878333197534,2.2693714576557276
1705063620463089700,37.81508959960937,0.8227588372670114,-3.6791534999057647,1.953989895596355
1705063620513533200,37.865533203125,3.7635064383283257,0.516583385372348,-0.1076304084344767
1705063620563958300,37.91595825195313,5.124254985079169,-2.9574457840144635,2.5658126107931136
1705063620614403800,37.96640380859375,3.355430372089147,-0.881287671668455,1.7304228400118649
1705063620664819000,38.01681884765625,1.27432567018643,1.558251479013264,1.0563418946269898
1705063620715265000,38.06726513671875,0.3383275898935273,3.9096486011877656,1.9211686992295085
1705063620765690000,38.11769018554688,0.5940113103047013,4.537094271321594,1.2062496936302631
1705063620816108000,38.16810791015625,-0.04886579708235804,2.836150185380876,0.08225202975370921
1705063620866554000,38.21855419921875,-0.3043639454932883,-0.2912109243337065,-0.17189663571044803
1705063620916969000,38.26896899414062,-0.31326730985175816,-5.191235932940244,0.6049507105354219
1705063620967400200,38.31940014648438,-3.1879753720879553,-3.5800279397651553,1.9131753623880445
1705063621017816000,38.36981616210937,4.807466040439904,0.12844706869027578,3.134707892280817
1705063621068261000,38.42026123046875,4.255871145582199,-0.2746218825771473,1.3041992687940598
1705063621118689000,38.47068896484375,1.4552471777431666,-3.9349782727554437,1.4078171719178556
1705063621169091000,38.521091064453124,2.9641216085165736,-1.84132052488029,4.016465884874761
1705063621219537000,38.57153686523438,2.163170552301407,2.490916652023792,-0.2950452600658871
1705063621269952000,38.62195190429688,2.3914615676678714,5.578205206003785,0.0854252346960362
1705063621320398000,38.67239819335938,0.6618691140655428,4.287318715508282,2.0023213803060353
1705063621370813200,38.72281323242188,-0.07945410613087006,1.578819781398028,3.0644293641790745
1705063621421242000,38.7732421875,0.4780828647274524,-1.6625797223635017,2.5234838736295697
1705063621471673900,38.823673828125,-2.580669695924222,-2.1104028387099505,1.512464856480807
1705063621522094000,38.87409399414062,-0.09422881934130564,-2.0970913755856455,1.4852793279133736
1705063621572517000,38.92451708984375,4.432172007600963,-2.5100804944381117,1.908702747018635
1705063621622961200,38.97496118164062,3.2536884919703004,-0.8658144274003803,2.7756334650978443
1705063621673377000,39.025376953125,3.9284237365454433,-3.1349887550488114,1.6936081900946796
1705063621723817200,39.07581713867187,1.4682070509508252,0.5703093495367094,0.6618221331186592
1705063621774225000,39.12622485351562,0.7257278382528572,4.097700106754899,1.6211531947366893
1705063621824654000,39.17665405273438,1.0337405520446599,4.0140588237330315,1.518675401558727
1705063621875104000,39.22710400390625,0.15486326598618178,2.6049697321832177,-0.007386394769881735
1705063621925531100,39.27753125,-0.7903221101731062,0.9834538416139781,-0.3572043224621564
1705063621975946000,39.32794604492187,-0.775841968595609,-2.493244510449469,0.5279855808092281
1705063622026361000,39.37836108398437,-3.808841956092417,-3.5545506764203307,3.881245513524115
1705063622076809200,39.42880932617187,5.005386613592505,-2.41238555162251,1.2168340698782354
1705063622127234000,39.479234130859375,7.091900042670964,0.4610780269779265,2.606153681270778
1705063622177667000,39.5296669921875,1.1924559268817305,-4.107970448617637,-2.513556353855133
1705063622228081000,39.580080810546875,3.568219428549707,-4.238474897362291,4.473542128865421
1705063622278521000,39.63052099609375,2.4887410615503787,1.2851499926701186,1.5737567989200352
1705063622328926200,39.68092626953125,2.729283509594202,5.614085497680306,-0.25047928363587707
1705063622379371300,39.73137133789062,1.2473283576674759,4.800432488541305,1.1347754529379308
1705063622429798100,39.781798095703124,-0.8564258368082344,2.696319397625327,2.8532363447383045
1705063622480217000,39.832217041015625,0.03230159522282192,-0.014971557806653435,3.677267832289636
1705063622530663000,39.88266284179687,-1.8541949117615817,-3.3169805221855637,1.8026187460422516
1705063622581079000,39.9330791015625,-1.6371644183389842,-0.02334565814360976,-0.6095575102111325
1705063622631494100,39.983494140625,5.541704152080416,-3.8323222004011273,0.4036959149261936
1705063622681939200,40.03393920898438,4.352226071965694,-1.0340044636778534,3.058573916149139
1705063622732354000,40.08435400390625,4.541514718112349,-4.345814159096777,1.710832296618074
1705063622782800000,40.1347998046875,1.3504784971490502,-0.4942311587128788,0.05686114321781788
1705063622833215000,40.185215087890626,0.9361557916052639,4.302318423980474,1.394645117264241
1705063622883630000,40.235630126953126,1.7050297478191554,4.597302656307816,1.9418908770017325
1705063622934075100,40.2860751953125,0.3440623341532424,3.8795574143067,0.3946427303008735
1705063622984497200,40.3364970703125,-0.9266305690214037,0.3902995499974116,-1.0970470491766928
1705063623034929200,40.38692919921875,0.6919491219654679,-3.4689079904481765,0.9722095401525497
1705063623085365000,40.43736499023437,-3.501092057955265,-4.163982258696854,1.5607710606187581
1705063623135781000,40.487781005859375,2.67258167142421,-1.806545564097166,1.663605704410374
1705063623186196000,40.538196044921875,6.911825799593329,0.3916048969749361,2.6681626859381793
1705063623236627200,40.58862719726562,1.9687996344543992,-3.578929623134434,0.29943452626708894
1705063623287056000,40.639055908203126,3.5202629146322604,-3.800515149512887,4.153440114155411
1705063623337487000,40.689487060546874,2.914515573826432,1.680037345381826,1.1028501094322651
1705063623387933000,40.73993286132813,2.591374629811942,5.342897151482105,-0.23594275396233425
1705063623438348000,40.79034814453125,1.5321552069872617,5.3134828409492965,1.0350294958766548
1705063623488763100,40.84076318359375,0.7723151096437126,3.025114421878755,2.5708111497327684
1705063623539208200,40.891208251953124,-0.3060569766141474,-1.3391726747587323,2.8647283373504875
1705063623589635000,40.941635009765626,-0.3884858151063323,-3.2555650994971392,4.411412128166854
1705063623640070000,40.99206982421875,-1.5435751572765408,-0.9291700974363833,-0.2649286099500023
1705063623690485000,41.042485107421875,3.198173233236372,-1.6741574935629964,1.554280383425206
1705063623740900000,41.092900146484375,6.356169354385137,-1.7024733413346111,4.059425905679166
1705063623791348000,41.14334790039062,5.237576243832707,-3.362431775283813,2.1043749567225576
1705063623841773000,41.19377294921875,2.408731997551024,-1.4371946575716137,0.7789651421174406
1705063623892190000,41.24418994140625,1.2881800080157815,3.3261776818588373,1.652454049668461
1705063623942635000,41.29463500976563,1.10303204187043,4.15609939649254,2.5506468981042505
1705063623993065200,41.34506518554687,0.730770362464711,3.699276835002005,0.884505610801652
1705063624043480000,41.39547998046875,0.3938819385288283,2.2213958006463943,-0.9838030203778296
1705063624093895000,41.44589501953125,0.4774022985847667,-0.6979479239888489,-0.44569816008172924
1705063624144342000,41.49634204101562,-0.9849603006541728,-5.558563516944647,2.208256479218602
1705063624194749200,41.54674926757812,-3.909287658920884,-2.4416131074115635,1.6644595447607338
1705063624245203000,41.59720288085938,5.531310768359899,-0.8241658545207232,3.005132248818874
1705063624295618000,41.6476181640625,2.9967133800417183,0.2813949203760363,1.708212907899916
1705063624346032000,41.6980322265625,2.870601905559003,-4.286444563022256,1.4908667726568876
1705063624396477000,41.748476806640625,3.054694444367289,-2.8238901310056446,4.707976615422964
1705063624446893000,41.79889306640625,1.844674365352839,2.009010064289719,0.5926583613257855
1705063624497321200,41.8493212890625,2.528209148585796,5.081962488272786,0.13516225708839483
1705063624547767000,41.89976708984375,0.6568062777180225,3.9605636726498603,1.9568049530170857
1705063624598182000,41.95018188476563,0.05972372957470361,1.6378621913447975,2.959096766091883
1705063624648597000,42.00059692382813,-0.21134846573080868,-2.8479733096435664,3.040103901217878
1705063624699030300,42.0510302734375,-1.7630682414203882,-2.0595577637441456,2.09730165733546
1705063624749474000,42.10147412109375,1.4099585678607225,-4.273513477517664,1.0081052485939115
1705063624799894000,42.15189404296875,5.384890957602858,-0.4346544957589358,1.764241669113934
1705063624850305000,42.202304931640626,5.94252308679819,-4.346740626291931,2.9998429102391
1705063624900750000,42.25275,3.330757118603587,-2.0466236094996333,1.9998085207022724
1705063624951166200,42.303166259765625,1.732706859295815,2.2315400319114325,0.6750038323834539
1705063625001610000,42.35360986328125,1.3211555181615053,4.866899057139456,1.370417415589094
1705063625052025000,42.40402514648437,1.886742551884055,4.755344515797495,1.4995507221110165
1705063625102455000,42.454455078125,0.3871459813373163,2.6208915239363906,-0.7894829559352249
1705063625152887000,42.50488696289062,-0.5053151185134426,-0.6877307736180722,0.5701065935062244
1705063625203300900,42.55530078125,0.2609028615652583,-5.7545513684689995,1.9704782351911068
1705063625253754000,42.605754150390624,-3.5233421759471297,-2.528698101146519,1.7150712493620812
1705063625304176000,42.65617602539062,3.388831414170563,-0.5549463241774588,1.33502695325613
1705063625354591200,42.70659130859375,5.07953146173358,0.29658763066967947,3.0571503130868076
1705063625405019100,42.75701904296875,2.6858485647544263,-4.0444548387795685,1.3067156355291605
1705063625455452000,42.807451904296876,3.1948288912445304,-2.895314322011173,4.567648984061181
1705063625505895000,42.85789501953125,1.7101982364982367,1.9096486495666205,0.5583927748369053
1705063625556329700,42.908329833984375,2.2072858806207774,4.967337161183357,0.5629581465236843
1705063625606756900,42.9587568359375,1.3280800567276776,5.417770898419619,1.4903876108378171
1705063625657175800,43.00917578125,0.4910726581493392,1.9870039841867981,1.9785159956961869
1705063625707605000,43.05960498046875,0.1574017349552363,-3.0124183141738174,1.980548962828517
1705063625758036700,43.11003662109375,-0.8765257179636508,-2.278194231058657,4.121582502123713
1705063625808452900,43.160452880859374,-2.5737647388413545,-1.7942353869698942,1.899678313563764
1705063625858898000,43.21089794921875,4.989079621914029,-3.434160794454813,2.0441513741672037
1705063625909313800,43.26131372070312,3.8986408849611878,-1.6604690138198435,1.3765969810068606
1705063625959758800,43.3117587890625,2.711014862453937,-2.733041400822997,0.19542084702504797
1705063626010162000,43.36216186523438,1.9338459561035035,1.1894756689619272,0.7221407004810869
1705063626060603000,43.41260278320313,1.6963671334140003,4.128472553898394,1.270104691490531
1705063626111017700,43.46301782226563,1.0951332514446228,3.205991505771875,0.8881314731486141
1705063626161455900,43.51345581054687,1.0899030957061797,2.705333017425239,0.024522533602989276
1705063626211893800,43.563893798828126,-0.33233448695857076,0.976383757097274,-0.17147061058441176
1705063626262310000,43.61430981445312,0.16675485237520188,-2.3772787285365165,1.426432294408232
1705063626312748800,43.66474877929687,-2.6860931871652602,-3.524540153560042,2.074499020027369
1705063626363155000,43.715155029296874,3.331782954519987,-1.5051326138965784,0.46374501769747584
1705063626413598700,43.7655986328125,7.820916912531852,-0.9542269434120505,5.672873202213645
1705063626464031700,43.81603173828125,2.2529741573452946,-1.9492814256444573,-1.7210865641288458
1705063626514445800,43.86644580078125,4.25517790262103,-4.0478389282599085,2.43995949498564
1705063626564854800,43.916854736328126,2.713542042843997,-0.01999671532517532,3.095953214211762
1705063626615309800,43.967309814453124,1.8566668548330663,3.97507325951755,-0.4996469732165336
1705063626665720600,44.01772045898438,2.543795424774289,6.446584369325637,0.44050190661288796
1705063626716166700,44.06816674804688,0.4820006957583129,3.303241335168481,2.11415678441599
1705063626766582800,44.118582763671874,-0.03324687214972218,-0.252957948709093,2.551941321828961
1705063626816996900,44.16899682617188,0.3221604450771585,-3.514865439502895,3.6458413051515817
1705063626867443700,44.21944360351562,-1.3312426124118268,0.028086126102390696,1.0978251939423382
1705063626917874000,44.2698740234375,2.869605003476143,-4.032816423434019,0.8476616617247462
1705063626968286700,44.32028662109375,5.590002611303329,-1.164024416841194,2.073845232293755
1705063627018731800,44.37073168945312,5.828321538078785,-4.32572414174825,1.6815950962178408
1705063627069148000,44.42114794921875,3.0136028477832673,-2.7785093127951024,0.8876433243054896
1705063627119580000,44.47157983398437,0.33789044058527795,1.3214789048969744,0.5356641526130959
1705063627169994800,44.52199487304687,1.747895660599321,4.182426846925914,2.619512344537675
1705063627220441900,44.57244189453125,1.2011145957641303,5.3072570983022445,0.8903049447301775
1705063627270854700,44.62285473632812,0.6258201147586107,3.9309845269441603,-1.23283893680498
1705063627321300700,44.67330078125,-0.3276226925384253,-2.336455281369388,0.8821884929656982
1705063627371714800,44.72371484375,1.1772102808244527,-6.075776541990042,0.6450371486648917
1705063627422130000,44.7741298828125,1.0877872725959867,-3.764526136764884,0.40498062097448856
1705063627472576800,44.82457666015625,7.098684003722667,-1.1786353451915084,4.31449606076926
1705063627522985700,44.87498583984375,3.8710245637610554,-2.005571468143165,0.036686260597431096
1705063627573436000,44.92543579101562,3.3232287689253686,-3.513917052736878,2.894119559268653
1705063627623850800,44.97585083007812,2.4699618345394727,-0.44928485946208235,2.2956935012616215
1705063627674265900,45.02626586914062,3.319626068258285,3.4646240295186637,-0.043989875308796764
1705063627724694800,45.07669482421875,1.8212552035816012,6.6145601783305406,1.4673650471687316
1705063627775140900,45.127140869140625,0.0014769635176518931,3.2408924310222265,2.3006508314080536
1705063627825565700,45.17756567382813,-0.0860844840560574,0.6423547046478837,2.6242180380105973
1705063627875985000,45.22798486328125,0.656036023997888,-2.8311025466024873,2.7763211551010607
1705063627926432800,45.27843286132813,-0.3242642854886129,-2.3172455539867283,0.9003804946731776
1705063627976849000,45.328848876953124,2.6601968216255307,-3.4003932571485636,1.3336254158951342
1705063628027263000,45.37926293945313,3.8392654436677693,0.2698060067280196,1.1925613600175826
1705063628077709800,45.42970971679687,6.295619316354394,-5.364474777039885,2.784953082107007
1705063628128124700,45.48012475585937,4.548773018677532,-1.8199160639323293,1.667903547734767
1705063628178569700,45.53056982421875,1.40304849621132,0.0971012969045434,0.5707390461908654
1705063628228984800,45.58098486328125,1.48454473002851,2.787159944501519,1.5557611235022544
1705063628279400000,45.63139990234375,0.5694854294005781,4.09038773791492,1.4441126202665269
1705063628329846000,45.68184594726562,-0.32435313281584527,4.284048315535485,-0.4067417488954961
1705063628380260600,45.73226049804688,-0.8049847687106579,2.9037182854801413,-0.13513301272760145
1705063628430692900,45.78269287109375,1.1413589229814707,-4.101397499968111,1.343795512253791
1705063628481130800,45.833130859375,-3.0709923759564757,-3.0767315041303633,1.9838529728099703
1705063628531549700,45.8835498046875,6.9467638419836755,-2.9027327815741297,2.7285961118519304
1705063628581965800,45.9339658203125,3.707295890806615,0.11379041063524782,0.9571173310913145
1705063628632396800,45.98439672851563,1.7767713342107831,-4.625431310944259,0.7642208697110414
1705063628682842600,46.034842529296874,3.3499232991054653,-1.4502211662746964,2.705677593079209
1705063628733270800,46.085270751953125,3.2359301324397323,3.668658701637387,-0.2930061371874064
1705063628783672800,46.1356728515625,2.5293179866105318,5.857866781514883,0.006127362018960411
1705063628834118000,46.18611791992188,1.282050711480528,3.5133377915441986,2.4028043610677123
1705063628884532700,46.23653271484375,-0.1597662538631819,1.887070760925114,3.6363147673934697
1705063628934978800,46.286978759765624,1.3278690443255006,-2.731319691596925,2.513715051548183
1705063628985393700,46.3373935546875,-2.02210949209854,-2.2106306610040365,0.8103966376915573
1705063629035808800,46.387808837890624,2.736361485156417,-4.861414488248527,1.7248315958760678
1705063629086249700,46.438249755859374,4.776594224575161,0.43768546095266936,0.28929864270528777
1705063629136670000,46.488669921875,6.8244526365667575,-4.633846964851021,2.18015018254444
1705063629187118800,46.539118896484375,4.208541823652387,-0.7223939445897937,1.2864607830077408
1705063629237543000,46.58954296875,1.800806728184223,1.1901817714046685,0.443810994628258
1705063629287958800,46.63995874023438,0.6384134927414358,3.8583033216148612,1.9429846635878085
1705063629338404900,46.69040478515625,1.4841203671365975,4.327244483183324,1.4580071439757942
1705063629388821000,46.74082104492187,0.8160359587527811,2.9258097057789563,-0.10593323086146264
1705063629439243800,46.791243896484374,-0.33755890707597136,-0.06584943221365101,0.18641206779703498
1705063629489674800,46.8416748046875,1.0565434816136956,-1.6061114006884396,0.7382464704990387
1705063629540110800,46.89211083984375,1.060343458418548,-4.483009922173619,0.8648582957193255
1705063629590526700,46.94252661132813,4.322525930228829,-2.7981062859296797,2.8469416285082696
1705063629640941800,46.99294189453125,5.244707995408773,0.08656918056677095,1.1628406138841063
1705063629691373800,47.04337377929688,3.489077795034647,-3.8358702482715246,0.7846663494337349
1705063629741801700,47.0938017578125,4.697484739764034,-3.274351340770721,3.987077001044154
1705063629792246800,47.14424682617187,2.1825093128912147,3.5995895493254064,0.3810689264459535
1705063629842662000,47.19466186523437,2.5829110451102255,6.001841537207365,0.5791653676221147
1705063629893077800,47.24507788085938,1.251519525747001,3.9990865877896544,1.9011137531943618
1705063629943508700,47.2955087890625,0.32047157867476345,1.9869651134811341,3.3454651506528257
1705063629993950700,47.34595068359375,-0.4214189839476719,0.48071054634992033,2.0909702623568474
1705063630044379000,47.39637890625,-0.17683414691155774,-3.0979829664736984,3.1833298843696713
1705063630094812000,47.44681201171875,-1.4192217785075305,-0.5083109027959406,-0.15078455443833955
1705063630145214000,47.4972138671875,2.176032518092543,-4.253405339990556,1.1873087001863867
1705063630195659000,47.54765893554688,8.165129578408598,-2.2263171826966106,3.164855777785182
1705063630246075000,47.598074951171874,4.736439324319362,-4.447933640356362,0.7094576714534312
1705063630296504800,47.6485048828125,3.1695807604804633,-1.501803323343396,0.5811718851389364
1705063630346935800,47.69893579101562,1.3290306354507804,4.0678590952426195,2.064742180644721
1705063630397380900,47.749380859375,1.9829168610036372,5.284673510572314,1.8972550319395958
1705063630447795000,47.799794921875,1.8051966337062417,5.481045977500081,-0.7195875088669359
1705063630498267100,47.85026708984375,0.41727001104205846,0.6087819592613727,-0.2181020499105565
1705063630548714200,47.90071435546875,1.1481661187782883,-2.089999663759023,1.275758333338052
1705063630599148300,47.95114819335937,-1.9180377077274022,-4.50468896227926,0.24220649053221566
1705063630649575200,48.0015751953125,1.9603933328978715,-1.7857113042525945,1.8887869171932339
1705063630699987200,48.0519873046875,7.366361711451411,-0.12624216992398724,4.3811771489009255
1705063630750416400,48.10241650390625,2.333559706058353,-6.0737353915512555,-0.0027681826467684002
1705063630800833300,48.152833251953126,4.2325174502626055,-4.936217800298333,3.30080884732455
1705063630851264300,48.20326416015625,3.528360588631034,0.8288895220417529,2.2292532361485065
1705063630901703400,48.253703369140624,3.4127041649281975,4.726989943450689,-0.7160918487709015
1705063630952139300,48.30413916015625,1.5830951206296682,6.312738793459534,0.16388284060284494
1705063631002541300,48.354541259765625,0.6254634833406657,2.9800869471505282,2.808758905108273
1705063631052985000,48.40498510742187,0.3756640717277303,-1.7653741802752017,4.299936789540946
1705063631103400200,48.45540014648437,-0.2521647890374064,-3.361826210606098,3.1409912103340027
1705063631153846300,48.50584619140625,-1.5279532252527772,0.06332106908007991,0.0646905262358021
1705063631204271400,48.55627124023437,3.608984277397394,-3.769357210183143,0.8541974201690405
1705063631254677200,48.60667724609375,7.222896658846736,-0.8496774585265666,2.403991378895193
1705063631305122300,48.657122314453126,6.9335863805025815,-4.558975263740122,2.1306576912313697
1705063631355538400,48.70753833007812,3.4621260752230882,-3.037154403762519,1.3117238190799951
1705063631405982200,48.75798217773438,1.8789185802601276,2.612566178661585,0.5032723241068422
1705063631456412400,48.80841235351563,1.5947032869674265,3.7870194158628583,2.85090381013751
1705063631506834200,48.858834228515626,2.0090121101163327,4.653587145848572,0.9868177650891243
1705063631557242000,48.9092421875,0.27384748240485784,3.534434063325822,-1.083632344873622
1705063631607673000,48.959673095703124,-0.5057922710385173,-0.5888921041274443,0.35515440419502553
1705063631658114300,49.0101142578125,0.2971688828900456,-5.052340672469139,2.0695310223564505
1705063631708533200,49.060533203125,-0.364865833533369,-2.7839973888173697,1.735445052088052
1705063631758980400,49.11098046875,6.993667047455906,-0.9728996413085609,5.174038714423776
1705063631809409300,49.1614091796875,3.5036630774870514,-2.8953479320198294,-0.1468525213521905
1705063631859810300,49.21181030273438,4.923020465072989,-4.843419397352635,3.204708480224013
1705063631910256400,49.26225634765625,3.4585344804719087,-0.018635465450439367,3.922534678506851
1705063631960671200,49.312671142578125,3.1398525616928934,4.982471017429233,-0.39757629953473805
1705063632011115300,49.363115234375,2.3287540593422946,6.441635222485661,0.1633580130111426
1705063632061531400,49.41353149414063,0.5660640035845339,3.890848623649776,2.5042723926812407
1705063632111948300,49.4639482421875,0.8031610604148358,-0.4507338526939973,4.16489440510571
1705063632162392300,49.514392333984375,-0.3837470230814069,-5.1315995026230805,2.696766556870937
1705063632212803300,49.56480322265625,-0.7538929524421691,-0.5234557918924838,0.9576657587543129
1705063632263235300,49.6152353515625,2.131215763505548,-4.868868603646755,1.2083191933806985
1705063632313682400,49.66568237304688,6.609677666985988,0.6942848714366555,2.1497698034584523
1705063632364083200,49.71608325195312,5.773796167165041,-3.306081527030468,2.0343736381269992
1705063632414517200,49.766517333984375,3.5713866604089737,-2.416541648388654,1.8525832387812435
1705063632464943000,49.81694311523437,1.9858391781911253,0.37579127830397335,1.6108378446884453
1705063632515388200,49.86738818359375,0.6573837122797965,3.369326795494556,2.571257139934599
1705063632565803300,49.91780322265625,1.4758580040954052,4.530025940370559,1.955435710490495
1705063632616244200,49.968244140625,0.5845049385517835,3.19840119677335,0.5501473629305139
1705063632666658000,50.01865795898438,0.588725661519356,0.23268704010201616,0.27993164289044214
1705063632717079000,50.0690791015625,0.30295060809664426,-5.089901464578509,1.4861336066551505
1705063632767525000,50.11952514648438,-3.825196586304903,-3.6334301518678664,2.5220073713362217
1705063632817939200,50.169939208984374,4.550983680464327,-2.575696291425824,1.904837011501193
1705063632868386300,50.22038623046875,6.767589178094267,0.9362363825608044,2.902668484166264
1705063632918805200,50.27080517578125,2.0475506612166763,-1.9076161208257079,2.0062037746973336
1705063632969225200,50.32122509765625,3.5698169268742204,-2.7457974220216275,4.7221556551620365
1705063633019641000,50.37164111328125,2.18282100918889,2.8398642374679444,1.1243646066259592
1705063633070089200,50.42208911132813,3.2261490353986617,5.039691034254432,1.1172063323691486
1705063633120522200,50.472522216796875,2.0054276757583023,4.419666746293008,1.823937574533373
1705063633170936300,50.52293627929687,0.5205406350981444,1.8284521293483673,2.4626231622144577
1705063633221365200,50.573365234375,0.6319721345823258,-2.5397245220735667,2.627321556983888
1705063633271780400,50.6237802734375,-0.5019028989171609,-1.9450898191735146,2.745305254590511
1705063633322226200,50.67422607421875,-2.121625366730988,-2.6034005831703544,0.846222641897574
1705063633372653300,50.7246533203125,3.1219229372486472,-2.380913139516115,3.160321349225938
1705063633423073300,50.7750732421875,4.553317676369845,-0.8881257009949535,2.9957465808361765
1705063633473488400,50.82548828125,4.788882336001098,-3.243595844762027,2.6672236515223977
1705063633523933200,50.87593310546875,3.0172224995851513,-0.8560119222451001,0.8335019112080335
1705063633574359300,50.926359375,1.649707527439296,2.973698707418144,1.2015891544733195
1705063633624794400,50.97679443359375,1.4522028416112065,3.8457682496905323,2.541637369957566
1705063633675222300,51.02722216796875,1.4485029641799627,3.690880178056657,1.5059667266331611
1705063633725637000,51.07763720703125,0.3194356597557664,1.635586063106358,-0.6250339328169823
1705063633776052200,51.12805224609375,0.23684246101472525,-1.616938791912049,1.2239427328396588
1705063633826495200,51.1784951171875,-0.6577892243407666,-5.079895034348964,2.4793413650423286
1705063633876929300,51.22892919921875,1.0553170816238968,-2.12141669241637,0.691695439465344
1705063633927344400,51.27934448242188,4.933487498551607,0.23965010231398046,3.3382664713203907
1705063633977760300,51.32976025390625,4.1266327712506055,-1.5406342815190552,1.0422907190512865
1705063634028206300,51.38020629882813,3.369985551664233,-4.023639137504994,2.499624859136343
1705063634078620200,51.4306201171875,3.24369316765666,-1.161610852893442,4.491721928678452
1705063634129067300,51.4810673828125,2.2953066939011215,3.740679689492285,0.6323557270724326
1705063634179491300,51.5314912109375,3.1296582076758144,5.645883488479257,0.5846345928134397
1705063634229927400,51.58192749023438,0.7755271304927766,3.6424154223561285,1.6318540369711816
1705063634280341200,51.63234130859375,0.5800176005372777,0.742364208016172,3.5749312011480328
1705063634330756000,51.68275610351562,0.1461110644682776,-1.9645003298252819,2.900122014553845
1705063634381203200,51.733203125,-1.955223967435956,-3.5443089761301874,1.6363438957363365
1705063634431634200,51.78363427734375,2.043718243446946,-3.714239718595147,2.277654278963059
1705063634482047200,51.83404711914063,5.8972080273002385,-0.07119828242831863,3.4210964379593727
1705063634532461000,51.8844609375,7.189573650437593,-3.8574510886996984,2.2972703951895235
1705063634582908200,51.934908203125,3.5884590835019945,-1.0407280728444457,1.2581309067107735
1705063634633339100,51.98533911132812,2.229760455018282,0.6451402437131851,0.6304699863910674
1705063634683754200,52.03575415039062,1.5715337160430847,3.085980978512764,1.8847599997647106
1705063634734199300,52.08619921875,1.4917605066262185,4.1431458068951965,1.4585710614688694
1705063634784604400,52.1366044921875,0.6910666400425136,4.129187131908536,0.6524979860648512
1705063634835030300,52.1870302734375,0.3239272720865905,0.25927661207029595,1.2568486118152737
1705063634885475000,52.23747509765625,0.38237869387026874,-3.7537957761749623,1.88496151368618
1705063634935890200,52.28789013671875,-1.8666401134453712,-4.001506216152012,1.5241729760617018
1705063634986335200,52.338335205078124,3.234962456451356,-3.5852605797216293,1.839135728187114
1705063635036751400,52.38875146484375,6.154093707379698,1.993548875785619,3.7684246055081485
1705063635087180300,52.43918017578125,5.519751847991347,-3.119556208117306,1.3744194908373057
1705063635137612300,52.4896123046875,3.4945366449624298,-5.218801400735974,3.2189787053778764
1705063635188038400,52.540038330078126,4.03505221966207,0.3550282935973257,2.4876260860458017
1705063635238451200,52.590451171875,2.690470963858068,4.074736579796672,0.3590802724018693
1705063635288900400,52.640900390625,2.7119863378345963,6.342471668422221,0.36745855344031003
1705063635339314200,52.69131420898437,1.038840067140758,4.189596300163865,1.8505523174755274
1705063635389745200,52.7417451171875,0.9889711437307298,0.40560131015609946,3.7864424927577374
1705063635440177200,52.79217724609375,-0.3802073411805555,-4.496523191480338,3.665722648185491
1705063635490653000,52.84265283203125,-1.7617510213419794,0.06410596324692014,1.3397314776852727
1705063635541069000,52.893069091796875,-0.07237421717278193,-0.7705300528578459,0.5005986844507977
1705063635591485000,52.94348486328125,5.067736979043484,-3.896126271791756,2.2919411629907787
1705063635641929200,52.99392919921875,4.772179623003304,1.1272602550022304,3.374855495788157
1705063635692356000,53.04435620117187,5.8179310769677155,-3.153426329015195,1.7983818391248583
1705063635742791200,53.09479125976563,2.733020942556858,-3.3030949124351143,1.5654741237431764
1705063635793205200,53.145205322265625,1.1519742058243603,3.6939699607655405,2.140515214509517
1705063635843621400,53.19562133789063,1.5028015406005084,3.8881840806156394,4.311333212824166
1705063635894065200,53.246065185546875,1.4178199488855898,3.961347224242985,0.4851782298158854
1705063635944499200,53.29649926757813,0.2699053206503391,0.8203014341775328,-0.2598771717793308
1705063635994923000,53.346923095703126,2.1175562175959346,-0.7158240646801889,1.5072678723596036
1705063636045355000,53.39735498046875,-3.5054160586342213,-4.477213510854542,3.298291603806615
1705063636095757300,53.44775732421875,0.8060163037154823,-1.1470149029165506,3.2858275512918826
1705063636146202000,53.4982021484375,6.905754955247044,-1.8514046965211628,3.3463623917534946
1705063636196617200,53.5486171875,2.9418501554757355,-1.9750223083615301,1.0261786654230207
1705063636247063000,53.59906298828125,4.347630268608033,-4.752382158860564,2.394965484135598
1705063636297493200,53.6494931640625,2.713313202524185,-1.7012167654022574,3.0518142127558585
1705063636347923000,53.6999228515625,3.9310663600087166,4.586722810104489,0.812041336158663
1705063636398339000,53.750339111328124,2.139832492942363,6.643638388776779,1.3788760318547486
1705063636448754200,53.800754150390624,0.9920956324268132,3.5569422477319836,2.3470722447127104
1705063636499199200,53.85119921875,-0.14698498862544074,1.0319733962416648,3.8568876095980404
1705063636549613300,53.90161328125,1.436849205134809,-3.4888746736779805,4.132024108900129
1705063636600037000,53.952037109375,-1.6179276568189263,-1.1935913606524466,2.277707616585493
1705063636650474000,54.002473876953125,1.7859420442685483,-3.7439316770255564,0.5404365911792963
1705063636700900000,54.052900146484376,6.986557507711648,-0.5333232520427554,2.38089472707659
1705063636751319300,54.1033193359375,5.92997281730473,-3.83296926613301,2.107103797164559
1705063636801764400,54.15376440429687,4.46369585763365,-3.43529389013797,1.6725629178479313
1705063636852179000,54.20417895507813,2.6837404865592718,0.20056403686609117,0.9806862765967845
1705063636902617300,54.254617431640625,1.3792353666864334,3.7612107286065815,2.179481051111221
1705063636953027300,54.30502734375,1.7466772247202693,3.287130450583994,2.3134372477449476
1705063637003461000,54.35546118164063,0.36251762643940744,3.8653210914224383,0.032590129840618466
1705063637053887200,54.40588720703125,-0.11220202719895168,1.674219452883303,0.8803795438475907
1705063637104332300,54.45633227539062,1.4667951383262872,-5.43386278604269,2.104204276330769
1705063637154746000,54.50674609375,-1.7323374414615331,-3.3889071097552774,1.116982971942052
1705063637205167000,54.5571669921875,3.3725787830278273,-3.252633722220361,2.8306980574548244
1705063637255607000,54.60760693359375,6.0657549141913645,1.099725036214292,2.9276792990431186
1705063637306023200,54.65802319335938,3.9374765193119643,-2.716461729682982,1.7010994226329028
1705063637356469200,54.70846923828125,3.830086111912131,-3.4095486235067245,4.515750454519689
1705063637406883300,54.75888330078125,2.7610248017698527,1.094099524482712,1.595852749263495
1705063637457320200,54.8093203125,3.006256868934631,4.938557641422748,1.0632326039887965
1705063637507735300,54.8597353515625,2.054597072596848,4.49796491472125,2.4907331121504304
1705063637558173200,54.91017309570312,0.9943199574127792,2.1195205034062266,2.96824044201225
1705063637608586000,54.9605859375,0.013477775584941263,-0.2796779238577001,2.9851214341863987
1705063637659020300,55.011020263671874,-0.2141509193982929,-3.154269794102013,2.1936289650596676
1705063637709429000,55.06142895507813,-1.6042346470311284,-3.0475103780820962,1.0200343174491078
1705063637759881200,55.11188110351563,3.9646231771737335,-3.003047551499307,2.6225553654953835
1705063637810309000,55.16230908203125,4.1156972434774035,-1.749409133902192,3.800434777753055
1705063637860740000,55.212739990234375,6.046172261843085,-3.7780741851240394,2.922580222338438
1705063637911156200,55.26315625,3.743305654081702,-1.1522121792986988,1.004980029245466
1705063637961571300,55.3135712890625,1.7770501511521637,1.9698989739984272,2.2107167318522927
1705063638012017200,55.36401708984375,1.0095787552125752,4.191160480740666,3.4385946852490306
1705063638062432000,55.41443188476563,1.0063266946140677,4.46329516787827,1.3256602822348476
1705063638112860200,55.46486010742188,0.6570395019520073,1.712369296927005,0.13265706020127982
1705063638163291100,55.515291015625,1.3197925592452286,-1.3422852538213133,1.1217542049318552
1705063638213720000,55.56571997070313,-1.0024689232073725,-5.493555330461263,2.3469725837305186
1705063638264148200,55.61614819335937,2.8163518444553017,-3.217838010910153,2.425186288745701
1705063638314582000,55.66658203125,7.456459915527701,-0.19725341448076067,5.086245864680409
1705063638365014000,55.717013916015624,4.339308138203621,-1.874693656041473,-0.8094169790044426
1705063638415442200,55.767442138671875,4.144419772353768,-5.241608860349655,2.7372613566055892
1705063638465843200,55.81784326171875,3.69588222412765,-0.45836138843037183,4.0570024779245255
1705063638516289300,55.86828930664063,3.3866870956182478,4.4712005341753365,0.6361112802136689
1705063638566703000,55.918703125,2.5794515523061157,6.361192150983214,0.9331956996906549
1705063638617150000,55.96914990234375,1.0156641395408659,3.319512963272631,3.062384414348006
1705063638667565000,56.01956494140625,0.9494250960882753,-0.01246782907412853,3.981731840623915
1705063638718000000,56.07000024414062,-0.773530988239497,-5.119294147801399,3.3140491449087857
1705063638768425200,56.12042529296875,-1.1617710849564522,-0.40414497386794535,1.5306360345959662
1705063638818839000,56.17083911132813,4.784268120203912,-3.882845642197132,1.2645761373274027
1705063638869286100,56.2212861328125,6.516513645598292,-0.6919915728677064,3.9415667112350463
1705063638919700200,56.2717001953125,5.891915181589126,-4.700679736413061,2.8868159582570194
1705063638970122000,56.3221220703125,4.106114299356937,-2.7766549171000716,0.6686409462880343
1705063639020545300,56.37254516601563,1.763937717731297,1.885629329945147,1.3355853177912533
1705063639070983200,56.42298315429687,1.522389599776268,4.458298090243339,2.7896193203523754
1705063639121405200,56.4734052734375,2.099346753297001,3.135776398295164,1.880738927555084
1705063639171837200,56.52383715820312,0.9242311797294765,3.7516774688467383,2.30861114276275
1705063639222252000,56.574251953125,0.2858758103834465,-0.5155751581778749,0.6129827719520777
1705063639272697000,56.62469702148437,1.2068297585405408,-4.381132725237309,1.3258964290782809
1705063639323122000,56.675121826171875,-2.6757775448560714,-2.8744711482077836,2.915334488993883
1705063639373557000,56.72555688476562,4.4771398610964415,-2.2035997394539413,2.7258707785412666
1705063639423974100,56.77597412109375,8.229300729545951,-0.9731596804842352,3.787872525560856
1705063639474389000,56.826388916015624,2.8635101937323806,-2.540421272166073,0.0833581095657777
1705063639524834000,56.876833984375,3.8560678176477547,-3.4330458189502355,5.243629552522301
1705063639575249200,56.92724926757813,3.4488869466826317,1.1461834935937076,2.0047738880246877
1705063639625677000,56.977677001953126,3.339308381588757,4.404227769620716,1.1027934838742017
1705063639676109000,57.02810913085938,2.248837642062455,4.947217917740344,1.8594616001181303
1705063639726538200,57.078538330078125,1.5399603277802467,2.313775247527659,3.021889906874299
1705063639776953300,57.128953369140625,0.9542721707932651,-1.2479650481358169,3.840825240330398
1705063639827399200,57.17939916992187,-0.38258820843510327,-3.826723065219819,2.938009262138605
1705063639877807000,57.22980712890625,-2.5184642919018865,-2.7823636501356956,0.8663621244110167
1705063639928258300,57.28025830078125,4.050828173203766,-1.6650887825749814,1.802976619569212
1705063639978661000,57.3306611328125,5.904726732367277,-1.450085118804872,3.990965240654349
1705063640029107200,57.38110717773438,5.933888529443741,-3.83096523283422,2.517207277578115
1705063640079522000,57.43152197265625,3.479638643299043,-0.8372323299080133,0.9099211340218782
1705063640129967000,57.48196704101562,2.0659218919485807,2.768800696468353,2.400179711652547
1705063640180382200,57.53238232421875,1.3906319361001251,3.73320102417469,3.189144708128273
1705063640230797000,57.58279711914062,1.6257557200960815,3.434821011929214,1.7695329073898494
1705063640281243100,57.6332431640625,1.4052439604289828,2.194718075470626,-0.4601020215526223
1705063640331657200,57.6836572265625,1.3344327867552637,-0.8201585916407406,0.9587878215868025
1705063640382102300,57.734102294921875,-0.9404966703537851,-5.011925075450539,2.5331273157656193
1705063640432518100,57.78451806640625,1.429513017027825,-3.5002331030383704,2.1325622096784413
1705063640482962700,57.83496264648438,6.014686405733228,-0.8398223464012146,4.407147164198756
1705063640533378600,57.885378662109375,4.551413304053247,-0.7060280623309314,0.16391383852930738
1705063640583813600,57.93581372070312,3.634221594506502,-4.274917206835746,2.4086658004470167
1705063640634235600,57.98623559570313,3.8078973687186837,-1.809209668739885,5.058657016009092
1705063640684669400,58.03666943359375,2.2950224701322615,2.845342961139977,0.6063219988886267
1705063640735085600,58.08708544921875,3.7218519471645353,5.902479830223322,0.8708918037299066
1705063640785530600,58.13753051757813,1.590832290752977,4.180852729476988,2.3393888506032523
1705063640835955700,58.187955810546875,1.5001358285225928,1.0839391458004712,4.00833693895489
1705063640886390500,58.238390625,0.6079945717433467,-3.3316210419565437,4.020922864283621
1705063640936805400,58.28880541992187,-1.8001871349811553,-3.0282091730237006,0.6093355380235239
1705063640987220500,58.33922045898437,2.592729843813181,-5.2166462685287,2.0071274654135105
1705063641037653500,58.38965356445313,5.1260243328392505,0.08165206369971856,2.2091011133491993
1705063641088079400,58.440079345703126,6.954992741146683,-3.1480373294532296,2.5528292105793953
1705063641138510600,58.49051049804687,4.997908240535855,-1.9352071614541113,2.6266546175077554
1705063641188955600,58.54095556640625,3.1907334386244415,-1.2610773354262113,1.0884699210979043
1705063641239360500,58.59136059570312,2.3264804153218863,3.6469884293600914,1.7946049509346484
1705063641289785600,58.64178564453125,1.731275511318445,4.009564142662287,2.470854983986914
1705063641340239600,58.692239501953125,1.5018626523151992,3.5180312100574374,1.7777466089837253
1705063641390647600,58.7426474609375,0.8689364318784326,1.4335896188169717,0.42750305310171094
1705063641441092600,58.79309252929688,1.0561490754686296,-2.493033205786347,1.402271812750399
1705063641491506700,58.843506591796874,-1.3457494228005409,-3.017964257863164,2.559821261423826
1705063641541923600,58.893923583984375,2.706483648765087,-3.301737360346317,2.312555350343883
1705063641592368600,58.94436865234375,7.1074904105126855,0.16900029321443288,4.799725801576674
1705063641642799600,58.99479956054687,3.835224643844366,-3.460514840634167,0.3196896345168352
1705063641693215500,59.04521557617188,4.584119934129714,-4.658525479033589,3.713446230129897
1705063641743643600,59.0956435546875,3.5218665504366156,-0.7759096270043403,3.3094188547596333
1705063641794074600,59.14607470703125,3.3619708797737955,4.792572130429744,0.2787995883869007
1705063641844489500,59.196489501953124,3.066979340922832,6.002580372875928,1.498619724871218
1705063641894936600,59.2469365234375,1.7778667282320557,3.0928485261946914,3.234128928236663
1705063641945350700,59.2973505859375,0.33306082847174256,0.7585905356738716,3.81183879982084
1705063641995780400,59.3477802734375,1.379185974586755,-3.8324215691223738,3.253306799176335
1705063642046193700,59.39819360351562,-1.062176445999369,-1.8469269665852188,0.9441983013506978
1705063642096639700,59.4486396484375,4.4002930605202915,-5.764989760375022,0.9164305159159004
1705063642147072500,59.499072509765625,8.752308120083809,-0.3357894131854176,3.7796053402140735
1705063642197486600,59.54948657226562,6.603308716475963,-2.988873187935352,3.144049428860843
1705063642247902700,59.59990283203125,4.029124583178758,-1.9766876112252472,2.5658184560120105
1705063642298347500,59.650347412109376,1.903906452652812,2.120018369925767,1.6163598229803144
1705063642348777500,59.70077758789063,2.2573832059592007,4.26862482869327,2.1734160519838333
1705063642399208400,59.75120849609375,1.127384904295206,3.0878987948328254,2.2262616531170902
1705063642449623600,59.80162353515625,1.4087595673345028,2.563819975671172,0.6436702442258596
1705063642500038700,59.85203857421875,0.6529694029688835,-1.106920208415389,1.2180058170713484
1705063642550484700,59.90248461914062,0.6832421569619327,-3.976120430482924,1.634135279776156
1705063642600899600,59.95289965820312,-2.311773552316427,-2.787694782030582,2.4951199489325284
1705063642651328500,60.00332861328125,6.739748400488495,0.503886364351958,5.094587576568126
1705063642701759500,60.05375952148437,5.185158658853173,-1.793966360770166,3.145638451617956
1705063642752188400,60.1041884765625,3.4295907100602983,-5.296384406632185,2.4748653886720535
1705063642802603500,60.154603515625,4.855477207154035,-0.475160109148547,3.555611875911057
1705063642853048600,60.20504858398437,2.5710385287478563,3.244088304454088,0.27750883619030936
1705063642903481600,60.25548168945313,3.142292940582335,6.092222649878263,0.9055198303230106
1705063642953897500,60.3058974609375,1.8446992075331508,3.7769592096194624,3.1523721437871455
1705063643004311600,60.3563115234375,0.41160643232241273,0.3316167306106537,4.485401493485272
1705063643054755300,60.40675537109375,0.07378284186169039,-3.6584208007395267,3.1514915615603325
1705063643105170400,60.45717041015625,-0.5298739153064788,-0.9766439424034208,0.5582912506911903
1705063643155617500,60.507617431640625,4.841141515548527,-3.1341978969320654,2.1189378812126813
1705063643206032600,60.55803271484375,7.607094713631271,-2.2189140668332574,4.294277156344056
1705063643256460500,60.60846044921875,5.63421993869245,-3.2093235728040335,2.838723835261166
1705063643306893600,60.6588935546875,5.650023072502017,-3.628629765848815,2.9622391557708383
1705063643357308700,60.70930859375,2.5545298770174383,0.8583663764167576,1.4406719782933592
1705063643407753500,60.75975341796875,1.6145077653728424,4.353685330863296,2.8507962581098076
1705063643458158600,60.81015869140625,2.3596549551710484,3.976000311234593,2.9777088198423383
1705063643508596700,60.8605966796875,1.588654800583422,3.554447800567746,0.24904375267373396
1705063643559021600,60.911021484375,-0.05870424576727673,-1.4702546311303972,1.6051327649146319
1705063643609457400,60.96145751953125,2.3334284808941184,-4.06790381116718,1.046344378356263
1705063643659889400,61.01188940429687,-3.9836943728685377,-4.121285272742807,3.8966216540932654
1705063643710303500,61.06230346679688,5.929374266889691,-0.3501647792141884,4.348593560682237
1705063643760714500,61.112714599609376,5.789304701942205,-0.5624024488696828,1.7438462390780447
1705063643811172600,61.16317260742188,3.0263179524496198,-6.293447817534208,0.9388555520832538
1705063643861580500,61.21358056640625,4.483671600952745,-2.0958857991881668,5.095539178204536
1705063643912026600,61.26402661132813,2.825269602665305,4.5762543153211475,1.5134946379199623
1705063643962440400,61.3144404296875,3.4621997249811884,5.923169567030668,1.118909848351404
1705063644012855600,61.36485546875,1.737146741439402,3.680492639555037,2.4253506855271754
1705063644063301600,61.41530151367188,0.8296407057352364,0.5606352565340698,4.415354436051845
1705063644113716500,61.46571655273438,1.3956995947532356,-4.0596117836400865,4.00707758654356
1705063644164142600,61.516142578125,0.35645255424678324,-2.156512701847404,2.503476273867488
1705063644214589700,61.56658959960937,2.7835207112163305,-3.19774887034446,2.6603479205340146
1705063644265005600,61.617005615234376,5.121754984956979,-0.9895984818488359,1.2209434048932044
1705063644315420700,61.667420654296876,7.787124533045292,-4.58161058165729,3.736231770172715
1705063644365867500,61.71786743164063,5.531430010825395,-2.4009128482326862,2.6478797763660546
1705063644416298800,61.768298828125,2.080919846855104,0.4006478524671867,1.3107555585697293
1705063644466726700,61.8187265625,1.3828357292659579,4.021390774056315,2.4113196759566664
1705063644517127400,61.86912744140625,1.6013310345441103,4.56497450415492,2.9670465560525656
1705063644567574500,61.91957446289062,1.4213416932709515,3.00845993193686,0.9795531078483909
1705063644617989600,61.96998974609375,0.2547886347349733,0.48818201474174855,0.6268455122835934
1705063644668428500,62.02042846679687,1.189574014769867,-3.6244141939803955,2.0616483062826094
1705063644718855700,62.070855712890626,-2.338132274670899,-3.6743969530284404,3.710841600589454
1705063644769267500,62.12126733398438,4.564049498264492,-2.143802565617114,2.506346276345849
1705063644819709400,62.17170947265625,9.043788728204369,-1.6384506587572394,5.090756620103121
1705063644870124500,62.22212451171875,2.948716534113884,-4.560429554201662,-0.3186907962052151
1705063644920570600,62.27257055664062,5.394853548690676,-4.666883849795163,4.806705285200477
1705063644970968600,62.32296850585937,3.6011721423417327,1.103914742989093,2.3196895861379803
1705063645021414400,62.373414306640626,3.928666897651553,6.061336513227224,0.3985292528780177
1705063645071844600,62.4238447265625,2.4999326099112626,5.413686259454488,2.209911991340667
1705063645122275600,62.474275634765625,1.1254746867597103,2.2777008945837616,4.102999966728687
1705063645172707600,62.52470751953125,1.309623193538934,-1.1280602462735025,4.324342039740086
1705063645223122700,62.57512280273438,-0.20074587797271087,-5.140066302195191,2.7021093792036175
1705063645273537500,62.62553759765625,-0.7399479406546801,-0.320001476944983,1.6986783329658208
1705063645323961600,62.675961669921875,1.8859559315510093,-3.796986098603904,0.7964638277985155
1705063645374396700,62.726396728515624,7.953811471283435,-1.102823367555812,3.8187837966531513
1705063645424843500,62.776843505859375,6.567012245213985,-4.5528456749439234,2.107031316450238
1705063645475257600,62.82725756835937,4.058336064615846,-1.3748194499403237,1.5194161369234322
1705063645525710000,62.8777099609375,2.674621945080161,1.754742896145582,2.0778525682389737
1705063645576157200,62.9281572265625,1.7856955221615731,3.879950505277514,2.5947648567721244
1705063645626585300,62.97858544921875,2.385200169185549,3.4993080971479413,2.180253496788442
1705063645677016300,63.029016357421874,1.8130435478143392,3.127440823887288,0.44399018712006505
1705063645727416300,63.07941625976562,0.7867904289156198,0.9509701335731893,1.0807252252552657
1705063645777861000,63.12986108398437,0.9981859121259301,-5.0412932087540625,2.4016316640265285
1705063645828275200,63.18027514648438,0.5613220332218334,-4.612509870050848,2.289866256412864
1705063645878721300,63.23072119140625,5.143114583849907,-1.8321615052603184,2.7314100002288817
1705063645929150200,63.28115014648437,7.256344170418381,-0.9177157334208488,3.356176806542277
1705063645979568000,63.331568115234376,3.3728023626506327,-4.039835070024431,2.294967963466048
1705063646029984300,63.381984375,4.712297985753417,-2.7767206758126615,5.9363335845083
1705063646080429000,63.43242895507812,2.56296540466845,2.6690426836431027,1.501242182329297
1705063646130844200,63.48284423828125,3.2600688406571745,5.514149790200591,1.4418945058256387
1705063646181258200,63.53325830078125,2.3250480444312096,3.6016964584767814,2.8757921676784752
1705063646231705000,63.583705078125,1.3965763775877653,1.3650082500219345,3.5675673943817614
1705063646282133000,63.63413305664063,2.019313723900169,-1.3613101261563598,3.750280753791332
1705063646332564200,63.684564208984376,-0.24475032979613168,-3.939866044797003,2.624647661599517
1705063646382980000,63.73497998046875,-0.9556512040615082,-1.559265186100453,1.2573157909356056
