time,seconds_elapsed,z,y,x
1705063961495434200,0.037434326171875,-0.27799999713897705,-0.5209000110626221,-0.10029999911785126
1705063961555432700,0.0974326171875,0.13539999723434448,0.11019999533891678,-0.07169999927282333
1705063961615432700,0.1574326171875,0.1412999927997589,0.03579999879002571,-0.044199999421834946
1705063961675432700,0.2174326171875,0.09989999979734421,0.026399999856948853,0.07569999992847443
1705063961735432700,0.2774326171875,0.08339999616146088,-0.052799999713897705,0.016599999740719795
1705063961795432700,0.3374326171875,0.10809999704360962,-0.009800000116229057,-0.04529999941587448
1705063961855432700,0.3974326171875,0.05169999971985817,-0.07409999519586563,0.012000000104308128
1705063961915432700,0.4574326171875,0.1647000014781952,-0.07779999822378159,0.07649999856948853
1705063961975432700,0.5174326171875,0.22459998726844788,0.009499999694526196,-0.003999999724328518
1705063962035432700,0.5774326171875,0.01730000041425228,-0.20509999990463257,-0.20960000157356262
1705063962095432700,0.6374326171875,-0.5795999765396118,0.2897000014781952,-0.38850000500679016
1705063962155432700,0.6974326171875,-0.8044999837875366,-0.15449999272823334,-1.9885998964309692
1705063962215432700,0.7574326171875,-2.464599847793579,-1.066499948501587,-4.252599716186523
1705063962275432700,0.8174326171875,-0.7077999711036682,-2.3736000061035156,-3.4839999675750732
1705063962335432700,0.8774326171875,3.043799877166748,-3.740000009536743,-1.4645999670028687
1705063962395432700,0.9374326171875,2.363800048828125,-0.12269999831914902,0.8574000000953674
1705063962455432700,0.9974326171875,3.3028998374938965,5.473899841308594,0.7249999642372131
1705063962515432700,1.0574326171875,5.836599826812744,5.399199962615967,-0.7080999612808228
1705063962575432700,1.1174326171875,4.919899940490723,2.9173998832702637,2.7416000366210938
1705063962635434200,1.177434326171875,3.2455999851226807,-0.08720000088214874,0.8628999590873718
1705063962695432700,1.2374326171875,0.6281999945640564,0.0714000016450882,-0.7356999516487122
1705063962755434200,1.297434326171875,-0.2232999950647354,-2.5980000495910645,-1.8889999389648438
1705063962815434200,1.357434326171875,-0.6317999958992004,-2.6765999794006348,-2.1668999195098877
1705063962875432700,1.4174326171875,-0.38589999079704285,-1.9713999032974243,-0.7558000087738037
1705063962935432700,1.4774326171875,0.011399999260902405,-0.47909998893737793,-1.636799931526184
1705063962995432700,1.5374326171875,0.7012999653816223,0.056299999356269836,-0.10459999740123749
1705063963055432700,1.5974326171875,-0.29789999127388,0.12429999560117722,2.228800058364868
1705063963115432700,1.6574326171875,-0.20600000023841858,0.2821999788284302,1.647499918937683
1705063963175432700,1.7174326171875,0.85999995470047,-0.3619999885559082,1.1129999160766602
1705063963235432700,1.7774326171875,1.1151000261306763,-0.6868999600410461,0.20989999175071716
1705063963295432700,1.8374326171875,0.9519000053405762,-0.24799999594688416,0.20389999449253082
1705063963355432700,1.8974326171875,-0.06579999625682831,0.4301999807357788,-0.7002999782562256
1705063963415432700,1.9574326171875,0.258899986743927,-0.013399999588727951,0.04809999838471413
1705063963475432700,2.0174326171875,0.45249998569488525,0.02149999886751175,-0.7358999848365784
1705063963535432700,2.0774326171875,0.6676999926567078,0.4786999821662903,-0.5060999989509583
1705063963595432700,2.1374326171875,0.09160000085830688,-0.4138000011444092,-0.015699999406933784
1705063963655432700,2.1974326171875,-0.2833999991416931,-0.31859999895095825,-0.5740000009536743
1705063963715432700,2.2574326171875,-1.4351999759674072,-0.8885999917984009,-1.267899990081787
1705063963775432700,2.3174326171875,-1.6491999626159668,-0.7497999668121338,-0.35339999198913574
1705063963835432700,2.3774326171875,-1.5102999210357666,-0.7060999870300293,-0.9774999618530273
1705063963895432700,2.4374326171875,-1.353600025177002,-1.246399998664856,-0.6410999894142151
1705063963955432700,2.4974326171875,0.4124999940395355,-0.6261000037193298,-0.8804000020027161
1705063964015432700,2.5574326171875,1.2014999389648438,0.31129997968673706,-0.7094999551773071
1705063964075432700,2.6174326171875,1.0362999439239502,0.3782999813556671,0.3012999892234802
1705063964135432700,2.6774326171875,0.701200008392334,-0.30159997940063477,0.09519999474287033
1705063964195432700,2.7374326171875,1.3317999839782715,0.45239999890327454,-0.358599990606308
1705063964255432700,2.7974326171875,1.1050999164581299,0.9391999840736389,-0.5706999897956848
1705063964315432700,2.8574326171875,0.07090000063180923,-0.30329999327659607,0.1777999997138977
1705063964375432700,2.9174326171875,0.49379998445510864,-0.5637999773025513,-0.23199999332427979
1705063964435432700,2.9774326171875,0.2101999968290329,-0.9147999882698059,0.19370000064373016
1705063964495432700,3.0374326171875,0.2979999780654907,-0.14949999749660492,-0.3814999759197235
1705063964555432700,3.0974326171875,-0.25369998812675476,0.6270999908447266,-0.6459999680519104
1705063964615432700,3.1574326171875,-0.36789998412132263,1.4544999599456787,-1.494399905204773
1705063964675432700,3.2174326171875,0.031700000166893005,1.8310999870300293,-0.883899986743927
1705063964735432700,3.2774326171875,0.6606000065803528,1.4036999940872192,-0.29899999499320984
1705063964795432700,3.3374326171875,0.73089998960495,-0.4381999969482422,0.211899995803833
1705063964855432700,3.3974326171875,0.37469998002052307,0.2304999977350235,0.14639998972415924
1705063964915432700,3.4574326171875,-0.0037999998312443495,-0.5504999756813049,-1.2069000005722046
1705063964975432700,3.5174326171875,-0.2728999853134155,-0.9284999966621399,-0.673799991607666
1705063965035432700,3.5774326171875,0.15729999542236328,-0.3734000027179718,-0.4351999759674072
1705063965095432700,3.6374326171875,0.6898999810218811,-0.33489999175071716,-0.526199996471405
1705063965155432700,3.6974326171875,-0.7526999711990356,0.4306999742984772,-0.26489999890327454
1705063965215432700,3.7574326171875,0.011099999770522118,0.00019999999494757503,-0.7547999620437622
1705063965275432700,3.8174326171875,0.0568000003695488,-0.17799998819828033,0.47929999232292175
1705063965335432700,3.8774326171875,-0.05379999801516533,-1.180799961090088,0.06669999659061432
1705063965395432700,3.9374326171875,-0.7215999960899353,-0.41279998421669006,-0.05739999935030937
1705063965455432700,3.9974326171875,0.6520000100135803,0.15389999747276306,0.045399997383356094
1705063965515432700,4.0574326171875,0.5063999891281128,-0.20819999277591705,0.09619999676942825
1705063965575432700,4.1174326171875,0.2800000011920929,-0.25279998779296875,-0.22540000081062317
1705063965635432700,4.1774326171875,0.1979999989271164,0.0916999951004982,-0.3483999967575073
1705063965695432700,4.2374326171875,0.018699999898672104,-0.1964999884366989,-0.3407000005245209
1705063965755432700,4.2974326171875,0.022299999371170998,-0.020399998873472214,-0.7321999669075012
1705063965815432700,4.3574326171875,0.22499999403953552,-0.3440999984741211,0.08559999614953995
1705063965875432700,4.4174326171875,0.33879998326301575,0.8544999957084656,-0.5770999789237976
1705063965935432700,4.4774326171875,-0.4050000011920929,-1.1236000061035156,-0.6387999653816223
1705063965995432700,4.5374326171875,-0.07919999957084656,-1.225600004196167,0.36879998445510864
1705063966055432700,4.5974326171875,0.27410000562667847,-0.2768999934196472,0.21139998733997345
1705063966115432700,4.6574326171875,-0.1152999997138977,-1.3981999158859253,0.32019999623298645
1705063966175432700,4.7174326171875,0.5493000149726868,-1.0699999332427979,0.44829997420310974
1705063966235432700,4.7774326171875,-0.5902000069618225,-0.41119998693466187,-1.2553999423980713
1705063966295432700,4.8374326171875,1.6895999908447266,-0.39139997959136963,-0.5755000114440918
1705063966355432700,4.8974326171875,-2.0815000534057617,4.864500045776367,0.5636000037193298
1705063966415432700,4.9574326171875,0.5884000062942505,3.7841999530792236,-1.31659996509552
1705063966475432700,5.0174326171875,0.29679998755455017,-1.0633000135421753,-0.8734999895095825
1705063966535432700,5.0774326171875,0.07689999788999557,-0.8321999907493591,-0.36959999799728394
1705063966595432700,5.1374326171875,1.197700023651123,-1.691999912261963,0.8654999732971191
1705063966655432700,5.1974326171875,-0.01899999938905239,-4.6570000648498535,2.298799991607666
1705063966715432700,5.2574326171875,0.07669999450445175,-3.7572999000549316,0.5570999979972839
1705063966775432700,5.3174326171875,0.6060000061988831,3.027400016784668,-1.2652000188827515
1705063966835432700,5.3774326171875,1.1912999153137207,6.989500045776367,-3.504999876022339
1705063966895432700,5.4374326171875,-0.12019999325275421,1.3447999954223633,-1.9711999893188477
1705063966955432700,5.4974326171875,0.36739999055862427,-2.1636998653411865,1.5504999160766602
1705063967015503000,5.557503173828125,0.4511999785900116,-3.6308000087738037,3.1838998794555664
1705063967075432700,5.6174326171875,0.982699990272522,-2.8499999046325684,4.381700038909912
1705063967135432700,5.6774326171875,3.91129994392395,2.7881999015808105,-5.593299865722656
1705063967195432700,5.7374326171875,0.8894999623298645,2.301300048828125,-3.684199810028076
1705063967255432700,5.7974326171875,-1.2089999914169312,0.35029998421669006,-0.4804999828338623
1705063967315432700,5.8574326171875,-0.07660000026226044,-1.1691999435424805,0.4461999833583832
1705063967375432700,5.9174326171875,0.2433999925851822,-1.0621999502182007,1.6928999423980713
1705063967435432700,5.9774326171875,0.9283999800682068,-1.1833999156951904,0.7453999519348145
1705063967495432700,6.0374326171875,0.6682999730110168,-0.21739999949932098,-1.211300015449524
1705063967555432700,6.0974326171875,0.24399998784065247,2.318699836730957,-1.7522000074386597
1705063967615432700,6.1574326171875,-1.2502999305725098,0.7547999620437622,-1.9223999977111816
1705063967675432700,6.2174326171875,-1.483799934387207,0.616599977016449,-1.3687999248504639
1705063967735432700,6.2774326171875,-0.20479999482631683,-1.0780999660491943,-0.37529999017715454
1705063967795432700,6.3374326171875,0.7037000060081482,-1.1766999959945679,0.11050000041723251
1705063967855432700,6.3974326171875,0.9067999720573425,-5.441400051116943,0.4097999930381775
1705063967915432700,6.4574326171875,-0.4205999970436096,-3.546999931335449,1.8154000043869019
1705063967975432700,6.5174326171875,1.0241999626159668,-2.53439998626709,1.298699975013733
1705063968035432700,6.5774326171875,2.3173999786376953,0.7321999669075012,-1.0104999542236328
1705063968095432700,6.6374326171875,1.249400019645691,7.219499588012695,-1.8876999616622925
1705063968155432700,6.6974326171875,-1.3453999757766724,6.386899948120117,-2.488999843597412
1705063968215432700,6.7574326171875,-0.5370999574661255,2.988600015640259,-0.8333999514579773
1705063968275432700,6.8174326171875,-0.4438999891281128,-1.8901000022888184,0.32189998030662537
1705063968335432700,6.8774326171875,3.990000009536743,-4.972399711608887,1.6368999481201172
1705063968395432700,6.9374326171875,2.0520999431610107,-4.0493998527526855,1.6949999332427979
1705063968455432700,6.9974326171875,-0.7912999987602234,2.5033998489379883,-0.5952000021934509
1705063968515432700,7.0574326171875,-0.7009999752044678,4.821300029754639,-3.1059999465942383
1705063968575432700,7.1174326171875,-2.0827999114990234,-0.45979997515678406,0.3262999951839447
1705063968635432700,7.1774326171875,-0.06719999760389328,-0.6180999875068665,0.49539998173713684
1705063968695432700,7.2374326171875,0.35740000009536743,-0.3677999973297119,1.1363999843597412
1705063968755432700,7.2974326171875,0.7840999960899353,0.8725999593734741,0.3118000030517578
1705063968815432700,7.3574326171875,0.23559999465942383,0.6692000031471252,0.20269998908042908
1705063968875432700,7.4174326171875,0.9539999961853027,0.12939999997615814,1.1856999397277832
1705063968935432700,7.4774326171875,-0.03399999812245369,0.13409999012947083,1.1294000148773193
1705063968995432700,7.5374326171875,-1.0347999334335327,-0.9672999978065491,-0.15969999134540558
1705063969055432700,7.5974326171875,-4.582200050354004,-0.5848000049591064,-1.0533000230789185
1705063969115432700,7.6574326171875,-1.146299958229065,-0.06799999624490738,0.5299999713897705
1705063969175432700,7.7174326171875,0.3093999922275543,-1.0424000024795532,-0.14139999449253082
1705063969235432700,7.7774326171875,0.7444999814033508,-1.5672999620437622,-0.7009999752044678
1705063969295432700,7.8374326171875,1.2085999250411987,0.6735999584197998,-3.170499801635742
1705063969355432700,7.8974326171875,-0.36719998717308044,1.000999927520752,-1.1194000244140625
1705063969415432700,7.9574326171875,0.2320999950170517,0.1859000027179718,-0.23680000007152557
1705063969475432700,8.0174326171875,0.4976999759674072,-0.7335999608039856,1.1790000200271606
1705063969535432700,8.0774326171875,-0.289000004529953,-2.470099925994873,2.007200002670288
1705063969595432700,8.1374326171875,-0.5516999959945679,-2.6950998306274414,1.2648999691009521
1705063969655432700,8.1974326171875,0.8314999938011169,0.056699998676776886,-0.6789999604225159
1705063969715432700,8.2574326171875,-1.4025999307632446,0.273499995470047,-3.5774998664855957
1705063969775432700,8.3174326171875,-1.8978999853134155,-2.3833999633789062,-2.012199878692627
1705063969835432700,8.3774326171875,-0.2784999907016754,-3.1547999382019043,-0.3901999890804291
1705063969895432700,8.4374326171875,0.026499999687075615,-1.503499984741211,-0.8517000079154968
1705063969955432700,8.4974326171875,0.5559999942779541,2.497499942779541,-2.0859999656677246
1705063970015432700,8.5574326171875,-1.4071999788284302,2.4589998722076416,-0.6796999573707581
1705063970075432700,8.6174326171875,-0.6407999992370605,2.284600019454956,-0.07279999554157257
1705063970135432700,8.6774326171875,0.11019999533891678,1.2632999420166016,0.21089999377727509
1705063970195432700,8.7374326171875,-0.0965999960899353,0.19249999523162842,1.3739999532699585
1705063970255432700,8.7974326171875,-0.37700000405311584,-1.9555999040603638,1.8750998973846436
1705063970315432700,8.8574326171875,-0.8416999578475952,-2.624199867248535,0.8246999979019165
1705063970375432700,8.9174326171875,-0.7685999870300293,-2.6011998653411865,0.07209999859333038
1705063970435432700,8.9774326171875,-0.7475000023841858,-2.4047000408172607,-0.3490999937057495
1705063970495432700,9.0374326171875,0.11159999668598175,-1.9619998931884766,-0.726099967956543
1705063970555432700,9.0974326171875,-0.20639999210834503,-1.708400011062622,-1.2663999795913696
1705063970615432700,9.1574326171875,0.8827999830245972,-1.1448999643325806,-3.818199872970581
1705063970675432700,9.2174326171875,-0.13989999890327454,0.8041999936103821,-2.3327999114990234
1705063970735432700,9.2774326171875,0.5037999749183655,1.4090999364852905,-1.6425999402999878
1705063970795432700,9.3374326171875,0.22509999573230743,1.3037999868392944,0.9511999487876892
1705063970855432700,9.3974326171875,0.22379998862743378,0.202799990773201,2.0845999717712402
1705063970915432700,9.4574326171875,-0.7791999578475952,-2.0383999347686768,2.930299997329712
1705063970975432700,9.5174326171875,-0.39569997787475586,-3.8115999698638916,1.452799916267395
1705063971035432700,9.5774326171875,0.5282999873161316,-3.1116998195648193,0.1664000004529953
1705063971095432700,9.6374326171875,1.7874999046325684,-0.27079999446868896,0.3479999899864197
1705063971155432700,9.6974326171875,-1.2059999704360962,6.14139986038208,1.2698999643325806
1705063971215432700,9.7574326171875,-3.2293999195098877,6.821699619293213,3.700500011444092
1705063971275432700,9.8174326171875,0.5907999873161316,0.7833999991416931,1.4120999574661255
1705063971335432700,9.8774326171875,2.0516998767852783,1.6146999597549438,2.366999864578247
1705063971395432700,9.9374326171875,1.477199912071228,-0.400299996137619,-0.06469999998807907
1705063971455432700,9.9974326171875,1.771799921989441,-2.5850000381469727,-1.4732999801635742
1705063971515432700,10.0574326171875,1.5821999311447144,-2.5966999530792236,-1.7294999361038208
1705063971575432700,10.1174326171875,0.47599998116493225,-0.6833999752998352,-3.346400022506714
1705063971635432700,10.1774326171875,-1.0270999670028687,-0.49480000138282776,-3.8111000061035156
1705063971695432700,10.2374326171875,-1.067099928855896,-1.601599931716919,-4.727499961853027
1705063971755432700,10.2974326171875,-1.0454000234603882,-0.1696999967098236,-5.716700077056885
1705063971815432700,10.3574326171875,-0.3495999872684479,0.593999981880188,-5.203099727630615
1705063971875432700,10.4174326171875,0.06390000134706497,1.3114999532699585,-3.4445998668670654
1705063971935432700,10.4774326171875,0.7066999673843384,4.217099666595459,-2.1273000240325928
1705063971995432700,10.5374326171875,0.6507999897003174,4.911900043487549,-0.5465999841690063
1705063972055432700,10.5974326171875,1.2231999635696411,1.7884999513626099,0.7249999642372131
1705063972115432700,10.6574326171875,2.124300003051758,-0.04319999739527702,2.8039000034332275
1705063972175432700,10.7174326171875,2.831199884414673,0.11789999902248383,3.797799825668335
1705063972235432700,10.7774326171875,2.3942999839782715,1.0734999179840088,4.435499668121338
1705063972295432700,10.8374326171875,1.8687999248504639,2.3925998210906982,4.439899921417236
1705063972355432700,10.8974326171875,0.3060999810695648,2.0404000282287598,3.9998998641967773
1705063972415432700,10.9574326171875,-1.0128999948501587,1.0611000061035156,3.8474998474121094
1705063972475432700,11.0174326171875,-0.9454999566078186,2.3531999588012695,2.382499933242798
1705063972535432700,11.0774326171875,0.20629999041557312,3.870499849319458,1.0116000175476074
1705063972595432700,11.1374326171875,-0.32330000400543213,4.643499851226807,-0.45389997959136963
1705063972655432700,11.1974326171875,-0.4397999942302704,1.747999906539917,-0.6297999620437622
1705063972715432700,11.2574326171875,2.7730000019073486,-0.8447999954223633,-1.0378999710083008
1705063972775432700,11.3174326171875,4.176300048828125,-1.2876999378204346,-4.4274001121521
1705063972835432700,11.3774326171875,3.081399917602539,-1.2345999479293823,-5.242599964141846
1705063972895432700,11.4374326171875,1.9055999517440796,-0.40129998326301575,-5.297199726104736
1705063972955432700,11.4974326171875,2.042099952697754,0.2976999878883362,-4.938600063323975
1705063973015432700,11.5574326171875,1.7321999073028564,-1.0234999656677246,-5.342700004577637
1705063973075432700,11.6174326171875,0.6924999952316284,2.5650999546051025,-4.689599990844727
1705063973135432700,11.6774326171875,-0.8827999830245972,5.774600028991699,-0.6200000047683716
1705063973195432700,11.7374326171875,0.6563999652862549,3.571499824523926,-0.9110999703407288
1705063973255432700,11.7974326171875,1.448699951171875,0.5580999851226807,0.1078999936580658
1705063973315432700,11.8574326171875,2.3417999744415283,-0.6128000020980835,1.7827999591827393
1705063973375432700,11.9174326171875,3.4056999683380127,0.45399999618530273,3.068699836730957
1705063973435432700,11.9774326171875,3.2677998542785645,1.4305999279022217,3.537099838256836
1705063973495432700,12.0374326171875,3.035599946975708,1.6764999628067017,5.02239990234375
1705063973555432700,12.0974326171875,2.1838998794555664,3.2911999225616455,2.8757998943328857
1705063973615432700,12.1574326171875,-1.3328999280929565,4.143399715423584,2.2651000022888184
1705063973675432700,12.2174326171875,-2.5702998638153076,3.2486000061035156,1.309999942779541
1705063973735432700,12.2774326171875,-3.2849998474121094,5.394099712371826,2.5451998710632324
1705063973795432700,12.3374326171875,-1.9053999185562134,1.9117999076843262,1.8329999446868896
1705063973855432700,12.3974326171875,0.3034999966621399,-1.6304999589920044,0.6141999959945679
1705063973915432700,12.4574326171875,1.9548999071121216,-2.213099956512451,-0.11559999734163284
1705063973975432700,12.5174326171875,2.1155998706817627,-0.499099999666214,-1.235700011253357
1705063974035432700,12.5774326171875,1.6399999856948853,0.27959999442100525,-2.910399913787842
1705063974095434200,12.637434326171874,1.977099895477295,0.38040000200271606,-4.569200038909912
1705063974155432700,12.6974326171875,1.4812999963760376,0.22829999029636383,-5.706099987030029
1705063974215432700,12.7574326171875,1.9660999774932861,0.8551999926567078,-5.832699775695801
1705063974275432700,12.8174326171875,1.805999994277954,3.6736998558044434,-4.103399753570557
1705063974335432700,12.8774326171875,1.7662999629974365,2.785799980163574,-2.7725000381469727
1705063974395432700,12.9374326171875,1.8350999355316162,2.530099868774414,-1.5823999643325806
1705063974455432700,12.9974326171875,1.959299921989441,0.20389999449253082,0.07889999449253082
1705063974515432700,13.0574326171875,3.3192999362945557,-0.01860000006854534,1.3565999269485474
1705063974575432700,13.1174326171875,2.8694000244140625,3.48799991607666,1.7824000120162964
1705063974635432700,13.1774326171875,3.1935999393463135,4.919899940490723,4.011699676513672
1705063974695432700,13.2374326171875,2.261899948120117,5.165999889373779,0.9107999801635742
1705063974755432700,13.2974326171875,1.9860999584197998,2.2986998558044434,1.8877999782562256
1705063974815432700,13.3574326171875,1.0321999788284302,0.07339999824762344,0.6347999572753906
1705063974875432700,13.4174326171875,0.5910999774932861,0.9668999910354614,0.14909999072551727
1705063974935432700,13.4774326171875,-3.3055999279022217,-0.9851999878883362,-0.5717999935150146
1705063974995432700,13.5374326171875,-2.616999864578247,-2.6987998485565186,0.4039999842643738
1705063975055432700,13.5974326171875,-1.2491999864578247,-5.193899631500244,2.101099967956543
1705063975115432700,13.6574326171875,-2.475600004196167,-2.6820998191833496,2.730799913406372
1705063975175432700,13.7174326171875,-1.5360000133514404,-0.5927000045776367,0.3928999900817871
1705063975235432700,13.7774326171875,-0.13759998977184296,0.4292999804019928,-2.5486998558044434
1705063975295432700,13.8374326171875,-2.202899932861328,0.4366999864578247,-1.9249999523162842
1705063975355432700,13.8974326171875,-0.495199978351593,-1.523800015449524,-6.36959981918335
1705063975415432700,13.9574326171875,3.1877999305725098,1.9864999055862427,-2.2216999530792236
1705063975475432700,14.0174326171875,0.27869999408721924,-1.9882999658584595,2.163599967956543
1705063975535432700,14.0774326171875,1.0709999799728394,-2.1873998641967773,5.634999752044678
1705063975595432700,14.1374326171875,-4.275199890136719,2.1449999809265137,5.269199848175049
1705063975655432700,14.1974326171875,-2.5952999591827393,2.3701999187469482,3.9719998836517334
1705063975715432700,14.2574326171875,1.2529000043869019,0.33229997754096985,6.403899669647217
1705063975775432700,14.3174326171875,4.313699722290039,3.594099998474121,2.053799867630005
1705063975835432700,14.3774326171875,4.31820011138916,5.0316996574401855,-0.9300999641418457
1705063975895432700,14.4374326171875,2.0453999042510986,5.763799667358398,-1.5338000059127808
1705063975955432700,14.4974326171875,2.337899923324585,2.3668999671936035,-1.9023000001907349
1705063976015432700,14.5574326171875,1.0436999797821045,2.15559983253479,-5.083600044250488
1705063976075432700,14.6174326171875,0.6245999932289124,-3.301499843597412,-6.386600017547607
1705063976135432700,14.6774326171875,-0.3877999782562256,-6.467400074005127,-6.612199783325195
1705063976195432700,14.7374326171875,-1.9571999311447144,-3.4670000076293945,-5.885499954223633
1705063976255432700,14.7974326171875,-2.941999912261963,-1.5189999341964722,-5.013199806213379
1705063976315432700,14.8574326171875,-1.3392999172210693,0.1809999942779541,-4.352999687194824
1705063976375432700,14.9174326171875,0.3418000042438507,3.6945998668670654,-2.437299966812134
1705063976435432700,14.9774326171875,1.5419999361038208,4.491099834442139,-2.230299949645996
1705063976495432700,15.0374326171875,2.1989998817443848,9.79990005493164,-0.5435000061988831
1705063976555432700,15.0974326171875,2.006700038909912,4.795799732208252,3.2944998741149902
1705063976615432700,15.1574326171875,1.7389999628067017,0.24779999256134033,4.27679967880249
1705063976675432700,15.2174326171875,1.5140999555587769,-1.712399959564209,5.497999668121338
1705063976735432700,15.2774326171875,2.00219988822937,-1.2379000186920166,5.295000076293945
1705063976795432700,15.3374326171875,1.3443999290466309,-1.7798999547958374,4.628499984741211
1705063976855432700,15.3974326171875,0.9192999601364136,-0.6506999731063843,3.245999813079834
1705063976915432700,15.4574326171875,0.746999979019165,3.3213999271392822,1.8554999828338623
1705063976975432700,15.5174326171875,-0.19739998877048492,6.707699775695801,-0.06689999997615814
1705063977035432700,15.5774326171875,-2.1957998275756836,3.8772997856140137,1.702799916267395
1705063977095432700,15.6374326171875,-1.4032999277114868,6.210299968719482,1.7775999307632446
1705063977155432700,15.6974326171875,0.26089999079704285,1.7285000085830688,-0.6894999742507935
1705063977215432700,15.7574326171875,2.7040998935699463,-2.4241998195648193,-3.404099941253662
1705063977275432700,15.8174326171875,3.9926998615264893,-2.971599817276001,-3.8949999809265137
1705063977335432700,15.8774326171875,3.394199848175049,-2.386899948120117,-4.185299873352051
1705063977395432700,15.9374326171875,1.656999945640564,-1.1359000205993652,-5.749799728393555
1705063977455432700,15.9974326171875,1.0842000246047974,-0.0551999993622303,-5.736199855804443
1705063977515432700,16.0574326171875,1.5153999328613281,1.6140999794006348,-6.287600040435791
1705063977575432700,16.1174326171875,1.0637999773025513,3.072000026702881,-5.032099723815918
1705063977635432700,16.1774326171875,0.008700000122189522,8.051400184631348,-2.5013999938964844
1705063977695432700,16.2374326171875,0.3278000056743622,4.946499824523926,-0.6769999861717224
1705063977755432700,16.2974326171875,1.254499912261963,0.758899986743927,0.8441999554634094
1705063977815432700,16.3574326171875,2.9844000339508057,0.7532999515533447,2.7114999294281006
1705063977875432700,16.4174326171875,3.8994998931884766,1.4948999881744385,3.972599983215332
1705063977935432700,16.4774326171875,4.060199737548828,2.660799980163574,5.054299831390381
1705063977995432700,16.5374326171875,3.56499981880188,3.8043999671936035,5.117300033569336
1705063978055432700,16.5974326171875,0.5187000036239624,1.0198999643325806,4.35099983215332
1705063978115432700,16.6574326171875,-1.4226999282836914,1.903999924659729,3.6994998455047607
1705063978175432700,16.7174326171875,-0.7573999762535095,5.9644999504089355,0.32850000262260437
1705063978235432700,16.7774326171875,-1.5379999876022339,5.290299892425537,2.414299964904785
1705063978295432700,16.8374326171875,-0.614799976348877,1.1527999639511108,0.887999951839447
1705063978355432700,16.8974326171875,1.6069999933242798,-0.6315999627113342,-0.8233000040054321
1705063978415432700,16.9574326171875,3.084699869155884,0.3974999785423279,-3.1855998039245605
1705063978475432700,17.0174326171875,2.4609999656677246,0.5681999921798706,-5.6566996574401855
1705063978535432700,17.0774326171875,3.5630998611450195,1.7960999011993408,-6.269799709320068
1705063978595432700,17.1374326171875,3.643899917602539,0.2604999840259552,-8.052800178527832
1705063978655432700,17.1974326171875,4.3933000564575195,2.1059000492095947,-6.27839994430542
1705063978715432700,17.2574326171875,2.077899932861328,5.512399673461914,-3.4843997955322266
1705063978775432700,17.3174326171875,0.6049999594688416,6.463899612426758,-2.2214999198913574
1705063978835432700,17.3774326171875,0.6640999913215637,3.0367000102996826,-0.2466999888420105
1705063978895432700,17.4374326171875,1.0049999952316284,0.6218000054359436,2.1538000106811523
1705063978955432700,17.4974326171875,2.341399908065796,0.587399959564209,3.8249998092651367
1705063979015432700,17.5574326171875,3.0334999561309814,1.2709999084472656,4.579999923706055
1705063979075432700,17.6174326171875,3.531099796295166,2.5915000438690186,4.120699882507324
1705063979135432700,17.6774326171875,0.8143999576568604,1.2440999746322632,5.546799659729004
1705063979195432700,17.7374326171875,-0.8654999732971191,4.458799839019775,3.8362998962402344
1705063979255432700,17.7974326171875,-0.30629998445510864,5.366399765014648,2.510699987411499
1705063979315432700,17.8574326171875,0.08549999445676804,5.562900066375732,1.8641999959945679
1705063979375432700,17.9174326171875,-0.5134999752044678,1.9164999723434448,0.8341999650001526
1705063979435432700,17.9774326171875,1.5586999654769897,0.644599974155426,-0.5960999727249146
1705063979495432700,18.0374326171875,2.554999828338623,0.0071000000461936,-2.6833999156951904
1705063979555432700,18.0974326171875,2.767199993133545,-1.3485000133514404,-4.384500026702881
1705063979615432700,18.1574326171875,2.7662999629974365,-0.44020000100135803,-6.098199844360352
1705063979675432700,18.2174326171875,2.1703999042510986,0.9017999768257141,-5.777899742126465
1705063979735432700,18.2774326171875,2.5116000175476074,3.2293999195098877,-5.9542999267578125
1705063979795432700,18.3374326171875,1.0460000038146973,2.8063998222351074,-2.4196999073028564
1705063979855432700,18.3974326171875,-0.4804999828338623,3.3815999031066895,-1.132200002670288
1705063979915432700,18.4574326171875,-0.26440000534057617,2.501699924468994,0.17819999158382416
1705063979975432700,18.5174326171875,0.3203999996185303,-2.809000015258789,2.662099838256836
1705063980035432700,18.5774326171875,1.6727999448776245,-3.804799795150757,2.774099826812744
1705063980095432700,18.6374326171875,2.4498000144958496,-2.182800054550171,1.9150999784469604
1705063980155432700,18.6974326171875,2.0327000617980957,1.2799999713897705,2.8738999366760254
1705063980215432700,18.7574326171875,0.47849997878074646,1.6890000104904175,1.9422999620437622
1705063980275432700,18.8174326171875,-0.8317999839782715,3.5871999263763428,1.1955000162124634
1705063980335432700,18.8774326171875,-0.8561999797821045,4.962399959564209,0.7694000005722046
1705063980395432700,18.9374326171875,-2.1118998527526855,4.486999988555908,1.2821999788284302
1705063980455432700,18.9974326171875,-0.17189998924732208,-1.636699914932251,0.8755999803543091
1705063980515432700,19.0574326171875,2.2070000171661377,-4.985799789428711,-0.148499995470047
1705063980575432700,19.1174326171875,1.7839999198913574,-5.290299892425537,-1.2728999853134155
1705063980635432700,19.1774326171875,0.9161999821662903,-3.1396000385284424,-2.381899833679199
1705063980695432700,19.2374326171875,-0.2092999964952469,0.3301999866962433,-3.3713998794555664
1705063980755432700,19.2974326171875,0.4708999991416931,2.666800022125244,-3.690199851989746
1705063980815432700,19.3574326171875,2.0685999393463135,4.738199710845947,-4.367000102996826
1705063980875432700,19.4174326171875,0.39489999413490295,7.809899806976318,-1.278499960899353
1705063980935432700,19.4774326171875,0.4553999900817871,0.8107999563217163,-0.8876999616622925
1705063980995432700,19.5374326171875,1.2226999998092651,-3.4238998889923096,0.42319998145103455
1705063981055432700,19.5974326171875,1.8315999507904053,-4.32889986038208,1.3919999599456787
1705063981115432700,19.6574326171875,2.440999984741211,-2.0780999660491943,1.805999994277954
1705063981175432700,19.7174326171875,2.7510998249053955,4.986299991607666,1.1789000034332275
1705063981235432700,19.7774326171875,-0.22829999029636383,4.578099727630615,4.7891998291015625
1705063981295432700,19.8374326171875,-0.11389999836683273,4.301199913024902,4.751199722290039
1705063981355432700,19.8974326171875,0.46949997544288635,3.455399990081787,3.321199893951416
1705063981415432700,19.9574326171875,0.01119999960064888,6.122299671173096,0.21719999611377716
1705063981475432700,20.0174326171875,-0.5216999650001526,0.5633000135421753,-0.061799999326467514
1705063981535432700,20.0774326171875,2.1503000259399414,-2.8041000366210938,-0.7477999925613403
1705063981595432700,20.1374326171875,2.5717999935150146,-3.3766000270843506,-2.740799903869629
1705063981655432700,20.1974326171875,1.9538999795913696,-1.0009000301361084,-4.9923996925354
1705063981715432700,20.2574326171875,0.211899995803833,0.11679999530315399,-5.330999851226807
1705063981775432700,20.3174326171875,0.3141999840736389,1.7692999839782715,-5.923599720001221
1705063981835432700,20.3774326171875,0.9650999903678894,2.2676000595092773,-7.156799793243408
1705063981895432700,20.4374326171875,-0.34579998254776,3.2947998046875,-3.5558998584747314
1705063981955432700,20.4974326171875,0.8039000034332275,4.197199821472168,-2.8336000442504883
1705063982015432700,20.5574326171875,0.6549999713897705,3.130999803543091,-1.6160999536514282
1705063982075432700,20.6174326171875,1.0109000205993652,0.033299997448921204,1.4397999048233032
1705063982135432700,20.6774326171875,2.967099905014038,0.17249999940395355,2.48829984664917
1705063982195432700,20.7374326171875,3.469099998474121,1.5714999437332153,3.059999942779541
1705063982255432700,20.7974326171875,3.0789999961853027,4.308499813079834,4.876399993896484
1705063982315432700,20.8574326171875,-0.36159998178482056,0.7142999768257141,8.097999572753906
1705063982375432700,20.9174326171875,-0.866599977016449,3.3661999702453613,5.642999649047852
1705063982435432700,20.9774326171875,0.34610000252723694,8.479599952697754,2.193199872970581
1705063982495432700,21.0374326171875,-0.281499981880188,6.171499729156494,1.911199927330017
1705063982555432700,21.0974326171875,0.627299964427948,0.5148000121116638,-0.1151999980211258
1705063982615432700,21.1574326171875,2.097399950027466,-2.386199951171875,-1.9483000040054321
1705063982675432700,21.2174326171875,3.142400026321411,-0.3247999846935272,-3.82919979095459
1705063982735432700,21.2774326171875,1.6608999967575073,0.5496999621391296,-6.009999752044678
1705063982795432700,21.3374326171875,0.808899998664856,1.284999966621399,-7.000799655914307
1705063982855434200,21.397434326171876,1.426800012588501,-0.07129999995231628,-7.7718000411987305
1705063982915432700,21.4574326171875,1.8538999557495117,0.370199978351593,-7.4375
1705063982975432700,21.5174326171875,1.06659996509552,5.945799827575684,-4.558399677276611
1705063983035432700,21.5774326171875,0.5895000100135803,7.878299713134766,-2.713599920272827
1705063983095432700,21.6374326171875,0.3507999777793884,2.8925998210906982,0.4973999857902527
1705063983155432700,21.6974326171875,1.0691999197006226,-0.6261000037193298,2.060499906539917
1705063983215432700,21.7574326171875,2.873699903488159,0.18150000274181366,2.9600000381469727
1705063983275432700,21.8174326171875,3.652899980545044,2.6499998569488525,3.1023998260498047
1705063983335432700,21.8774326171875,3.3071999549865723,3.1634998321533203,4.43619966506958
1705063983395432700,21.9374326171875,0.1665000021457672,4.125999927520752,8.392199516296387
1705063983455432700,21.9974326171875,-1.5824999809265137,2.7187998294830322,7.423499584197998
1705063983515432700,22.0574326171875,-0.9380999803543091,8.501599311828613,4.289700031280518
1705063983575432700,22.1174326171875,-1.868399977684021,7.0077996253967285,-0.2865999937057495
1705063983635432700,22.1774326171875,0.6078000068664551,2.0376999378204346,-0.5856999754905701
1705063983695432700,22.2374326171875,2.5832998752593994,-0.9387999773025513,-3.2461998462677
1705063983755432700,22.2974326171875,3.1039998531341553,-0.5257999897003174,-5.537399768829346
1705063983815432700,22.3574326171875,3.7167999744415283,0.19409999251365662,-7.227499961853027
1705063983875432700,22.4174326171875,3.926999807357788,2.341899871826172,-7.573899745941162
1705063983935432700,22.4774326171875,4.099299907684326,2.017400026321411,-8.225699424743652
1705063983995432700,22.5374326171875,2.521899938583374,2.0996999740600586,-5.740099906921387
1705063984055432700,22.5974326171875,0.965499997138977,8.408900260925293,-3.515899896621704
1705063984115432700,22.6574326171875,0.4139999747276306,6.2440996170043945,-1.6548999547958374
1705063984175432700,22.7174326171875,0.5934999585151672,2.7822999954223633,0.45260000228881836
1705063984235432700,22.7774326171875,2.0665998458862305,2.2816998958587646,2.357800006866455
1705063984295432700,22.8374326171875,3.575699806213379,2.9228999614715576,3.749799966812134
1705063984355432700,22.8974326171875,4.090699672698975,3.051299810409546,5.990599632263184
1705063984415432700,22.9574326171875,2.177500009536743,3.3036999702453613,7.2388997077941895
1705063984475432700,23.0174326171875,-1.3212999105453491,2.6359000205993652,6.908599853515625
1705063984535432700,23.0774326171875,-1.7325999736785889,4.4691996574401855,4.888299942016602
1705063984595432700,23.1374326171875,0.6060000061988831,7.73799991607666,1.503600001335144
1705063984655432700,23.1974326171875,0.4478999972343445,4.3364996910095215,1.6723999977111816
1705063984715432700,23.2574326171875,0.8473999500274658,1.4208999872207642,0.00559999980032444
1705063984775432700,23.3174326171875,1.705399990081787,1.9946999549865723,-1.9404999017715454
1705063984835432700,23.3774326171875,2.32889986038208,3.1023998260498047,-3.0332000255584717
1705063984895432700,23.4374326171875,3.823899984359741,1.4643999338150024,-6.309499740600586
1705063984955432700,23.4974326171875,2.9505999088287354,1.2688000202178955,-8.879899978637695
1705063985015432700,23.5574326171875,2.470099925994873,2.2283999919891357,-8.831799507141113
1705063985075432700,23.6174326171875,2.5291998386383057,2.5083999633789062,-6.790799617767334
1705063985135432700,23.6774326171875,0.630899965763092,5.417699813842773,-4.3389997482299805
1705063985195432700,23.7374326171875,0.38439998030662537,4.479700088500977,-2.400399923324585
1705063985255432700,23.7974326171875,1.4223999977111816,1.1715999841690063,0.05719999969005585
1705063985315432700,23.8574326171875,2.937999963760376,1.9411998987197876,1.462399959564209
1705063985375432700,23.9174326171875,3.8875999450683594,4.003499984741211,2.6970999240875244
1705063985435432700,23.9774326171875,4.275700092315674,5.599299907684326,4.322999954223633
1705063985495432700,24.0374326171875,2.374799966812134,4.053100109100342,5.617199897766113
1705063985555432700,24.0974326171875,-0.2848999798297882,3.7020998001098633,5.060400009155273
1705063985615432700,24.1574326171875,0.04349999874830246,4.744899749755859,4.776000022888184
1705063985675432700,24.2174326171875,0.32330000400543213,4.863499641418457,3.736999988555908
1705063985735432700,24.2774326171875,0.5105000138282776,1.7445999383926392,1.176800012588501
1705063985795432700,24.3374326171875,0.3337000012397766,-0.09479999542236328,-0.8050999641418457
1705063985855432700,24.3974326171875,1.4383999109268188,0.6272000074386597,-0.494299978017807
1705063985915432700,24.4574326171875,0.6825999617576599,2.213099956512451,-2.809199810028076
1705063985975432700,24.5174326171875,1.2595000267028809,1.3801000118255615,-8.186399459838867
1705063986035432700,24.5774326171875,1.2972999811172485,1.778499960899353,-8.508099555969238
1705063986095432700,24.6374326171875,0.8989999890327454,1.5652999877929688,-8.006199836730957
1705063986155432700,24.6974326171875,1.9519000053405762,3.2588999271392822,-6.691699981689453
1705063986215432700,24.7574326171875,1.4106999635696411,4.304699897766113,-4.065099716186523
1705063986275432700,24.8174326171875,1.9117999076843262,2.0855000019073486,-1.796299934387207
1705063986335432700,24.8774326171875,2.2971999645233154,0.7660999894142151,0.8111000061035156
1705063986395432700,24.9374326171875,3.522899866104126,1.7206999063491821,2.3578999042510986
1705063986455432700,24.9974326171875,4.098700046539307,3.8844997882843018,2.4171998500823975
1705063986515432700,25.0574326171875,4.0696001052856445,5.401099681854248,4.117099761962891
1705063986575432700,25.1174326171875,1.0273000001907349,1.647499918937683,6.031899929046631
1705063986635432700,25.1774326171875,-0.915399968624115,4.389199733734131,5.772199630737305
1705063986695432700,25.2374326171875,-0.9821999669075012,4.763599872589111,3.7795000076293945
1705063986755432700,25.2974326171875,0.04129999876022339,6.310199737548828,2.57069993019104
1705063986815432700,25.3574326171875,-0.1160999983549118,0.9425999522209167,0.32760000228881836
1705063986875432700,25.4174326171875,1.5085999965667725,-1.333899974822998,0.18079999089241028
1705063986935432700,25.4774326171875,1.8834999799728394,-0.18459999561309814,-2.4231998920440674
1705063986995432700,25.5374326171875,0.8747999668121338,1.1068999767303467,-5.455399990081787
1705063987055432700,25.5974326171875,2.2455999851226807,2.0927999019622803,-6.672199726104736
1705063987115432700,25.6574326171875,2.250699996948242,0.752299964427948,-8.041500091552734
1705063987175432700,25.7174326171875,2.3062000274658203,0.9745000004768372,-6.890699863433838
1705063987235432700,25.7774326171875,2.4682998657226562,4.750799655914307,-4.727299690246582
1705063987295432700,25.8374326171875,0.9847999811172485,5.961899757385254,-2.3352999687194824
1705063987355432700,25.8974326171875,0.9023999571800232,3.7219998836517334,0.8610999584197998
1705063987415432700,25.9574326171875,0.7286999821662903,0.4152999818325043,1.9117000102996826
1705063987475432700,26.0174326171875,2.243299961090088,-0.23510000109672546,3.5010998249053955
1705063987535432700,26.0774326171875,3.5396997928619385,1.3342000246047974,2.9838998317718506
1705063987595432700,26.1374326171875,3.6122000217437744,2.600800037384033,4.534599781036377
1705063987655432700,26.1974326171875,1.3133999109268188,1.6730999946594238,6.304699897766113
1705063987715432700,26.2574326171875,-0.41669997572898865,3.0829999446868896,5.757499694824219
1705063987775432700,26.3174326171875,-0.6753999590873718,2.66159987449646,4.372499942779541
1705063987835432700,26.3774326171875,0.05159999802708626,6.746899604797363,0.5072000026702881
1705063987895432700,26.4374326171875,-1.5938999652862549,3.212100028991699,0.5612999796867371
1705063987955432700,26.4974326171875,0.9714999794960022,-0.5835999846458435,0.28119999170303345
1705063988015432700,26.5574326171875,1.9151999950408936,-1.4233999252319336,-3.2523999214172363
1705063988075432700,26.6174326171875,2.842599868774414,-0.7382000088691711,-4.899799823760986
1705063988135432700,26.6774326171875,4.6026997566223145,1.758099913597107,-5.0518999099731445
1705063988195432700,26.7374326171875,3.435699939727783,1.9991999864578247,-5.604099750518799
1705063988255432700,26.7974326171875,3.9305999279022217,2.0722999572753906,-6.327600002288818
1705063988315432700,26.8574326171875,3.3904998302459717,2.93179988861084,-3.5832998752593994
1705063988375432700,26.9174326171875,0.31439998745918274,7.83329963684082,-1.3112000226974487
1705063988435432700,26.9774326171875,-0.4189999997615814,4.696399688720703,-0.0494999997317791
1705063988495432700,27.0374326171875,-0.15799999237060547,-0.2742999792098999,0.8689000010490417
1705063988555432700,27.0974326171875,1.6283999681472778,-1.334299921989441,2.6993000507354736
1705063988615432700,27.1574326171875,3.0253000259399414,-0.30959999561309814,3.920099973678589
1705063988675432700,27.2174326171875,3.195499897003174,2.2523999214172363,3.9739999771118164
1705063988735432700,27.2774326171875,1.0981999635696411,3.365499973297119,5.7440996170043945
1705063988795432700,27.3374326171875,-0.009599999524652958,4.594699859619141,3.990299940109253
1705063988855432700,27.3974326171875,-0.17870000004768372,4.816400051116943,2.771199941635132
1705063988915432700,27.4574326171875,0.5429999828338623,6.445199966430664,1.5931999683380127
1705063988975432700,27.5174326171875,0.04639999940991402,1.6222000122070312,2.0515999794006348
1705063989035432700,27.5774326171875,1.521899938583374,-1.139299988746643,0.11019999533891678
1705063989095432700,27.6374326171875,3.487499952316284,-1.518399953842163,-2.1285998821258545
1705063989155432700,27.6974326171875,3.368000030517578,-0.2158999890089035,-4.223599910736084
1705063989215432700,27.7574326171875,1.826200008392334,1.3401999473571777,-5.913399696350098
1705063989275432700,27.8174326171875,2.012899875640869,2.2254998683929443,-5.459799766540527
1705063989335432700,27.8774326171875,2.723299980163574,2.169800043106079,-6.9593000411987305
1705063989395432700,27.9374326171875,1.974199891090393,3.1397998332977295,-5.201200008392334
1705063989455434200,27.997434326171874,-0.05350000038743019,5.0742998123168945,-2.38100004196167
1705063989515432700,28.0574326171875,-0.07849999517202377,2.6708998680114746,-1.1898999214172363
1705063989575432700,28.1174326171875,0.1867000013589859,-0.6396999955177307,-0.8210999965667725
1705063989635432700,28.1774326171875,2.5139000415802,-0.2572999894618988,1.591499924659729
1705063989695432700,28.2374326171875,3.8107998371124268,1.0891000032424927,2.9880998134613037
1705063989755432700,28.2974326171875,3.698499917984009,3.935299873352051,3.563199996948242
1705063989815432700,28.3574326171875,1.6151999235153198,3.2022998332977295,5.6554999351501465
1705063989875432700,28.4174326171875,0.44200000166893005,4.812699794769287,5.627099990844727
1705063989935432700,28.4774326171875,-0.065700002014637,3.72379994392395,4.039000034332275
1705063989995432700,28.5374326171875,0.5130999684333801,6.298199653625488,1.9010999202728271
1705063990055432700,28.5974326171875,-0.7247999906539917,1.8948999643325806,1.6394999027252197
1705063990115432700,28.6574326171875,1.0857999324798584,-1.30649995803833,0.47919997572898865
1705063990175432700,28.7174326171875,2.548799991607666,-1.4016000032424927,-1.1261999607086182
1705063990235432700,28.7774326171875,1.364799976348877,1.3367999792099,-2.9539999961853027
1705063990295432700,28.8374326171875,1.1104999780654907,1.5029000043869019,-5.497799873352051
1705063990355432700,28.8974326171875,2.4614999294281006,0.28049999475479126,-6.696300029754639
1705063990415432700,28.9574326171875,2.4062998294830322,2.7575998306274414,-6.911499977111816
1705063990475432700,29.0174326171875,1.7383999824523926,3.756500005722046,-5.326200008392334
1705063990535432700,29.0774326171875,0.8539999723434448,4.978399753570557,-3.6554999351501465
1705063990595432700,29.1374326171875,0.9692999720573425,1.965399980545044,-1.601699948310852
1705063990655432700,29.1974326171875,1.2078999280929565,-0.4869000017642975,1.0760999917984009
1705063990715432700,29.2574326171875,2.4512999057769775,0.08339999616146088,1.8513998985290527
1705063990775432700,29.3174326171875,3.3389999866485596,1.7565999031066895,2.6250998973846436
1705063990835432700,29.3774326171875,3.354300022125244,4.230099678039551,3.1405999660491943
1705063990895432700,29.4374326171875,1.1288999319076538,2.8452999591827393,6.014499664306641
1705063990955432700,29.4974326171875,-0.5924000144004822,2.688999891281128,3.9373998641967773
1705063991015432700,29.5574326171875,-0.7267999649047852,4.717499732971191,2.7207999229431152
1705063991075432700,29.6174326171875,-0.852899968624115,5.571700096130371,2.2348999977111816
1705063991135432700,29.6774326171875,-0.9264999628067017,0.21539999544620514,2.4112000465393066
1705063991195432700,29.7374326171875,0.9598999619483948,-2.0299999713897705,0.540399968624115
1705063991255432700,29.7974326171875,2.1008999347686768,-1.7609999179840088,-2.8158998489379883
1705063991315432700,29.8574326171875,0.4821999967098236,-0.204599991440773,-4.06850004196167
1705063991375432700,29.9174326171875,2.0176000595092773,1.9081999063491821,-3.8715999126434326
1705063991435432700,29.9774326171875,3.1956000328063965,0.46209999918937683,-5.7170000076293945
1705063991495432700,30.0374326171875,3.4198999404907227,1.2441999912261963,-4.9197998046875
1705063991555432700,30.0974326171875,3.697399854660034,5.901299953460693,-4.156399726867676
1705063991615432700,30.1574326171875,1.2493000030517578,5.2855000495910645,-1.431999921798706
1705063991675432700,30.2174326171875,0.8449999690055847,2.8838000297546387,-0.39309999346733093
1705063991735432700,30.2774326171875,0.45899999141693115,-0.7329999804496765,1.3208999633789062
1705063991795432700,30.3374326171875,1.9147999286651611,-0.7871999740600586,3.1559998989105225
1705063991855432700,30.3974326171875,2.4667999744415283,0.32899999618530273,3.813999891281128
1705063991915432700,30.4574326171875,2.415299892425537,1.3753999471664429,3.9091999530792236
1705063991975432700,30.5174326171875,1.143899917602539,1.5097999572753906,4.585099697113037
1705063992035432700,30.5774326171875,-0.6326999664306641,2.5414998531341553,3.5750999450683594
1705063992095432700,30.6374326171875,-1.476599931716919,1.5699999332427979,3.50819993019104
1705063992155432700,30.6974326171875,0.34049999713897705,5.940000057220459,0.9889999628067017
1705063992215432700,30.7574326171875,-1.5135999917984009,3.81499981880188,2.553299903869629
1705063992275432700,30.8174326171875,1.3348000049591064,-0.32749998569488525,1.7111999988555908
1705063992335432700,30.8774326171875,3.7022998332977295,-2.287799835205078,-1.7763999700546265
1705063992395432700,30.9374326171875,3.305999994277954,-1.2436000108718872,-4.400099754333496
1705063992455432700,30.9974326171875,2.8050999641418457,0.8728999495506287,-2.708400011062622
1705063992515432700,31.0574326171875,3.408599853515625,1.8608999252319336,-4.123199939727783
1705063992575432700,31.1174326171875,4.389999866485596,0.8477999567985535,-6.1280999183654785
1705063992635432700,31.1774326171875,3.2015998363494873,1.7913999557495117,-3.9595999717712402
1705063992695432700,31.2374326171875,1.601099967956543,6.578099727630615,-1.949299931526184
1705063992755432700,31.2974326171875,0.8562999963760376,4.798399925231934,-1.993499994277954
1705063992815432700,31.3574326171875,0.6538999676704407,-0.5299000144004822,0.5717999935150146
1705063992875432700,31.4174326171875,1.7268999814987183,-1.7365999221801758,2.5058000087738037
1705063992935432700,31.4774326171875,2.706199884414673,-0.6681999564170837,3.348099946975708
1705063992995432700,31.5374326171875,3.312700033187866,2.4117000102996826,3.192999839782715
1705063993055432700,31.5974326171875,2.408599853515625,3.3949999809265137,4.47059965133667
1705063993115432700,31.6574326171875,-0.16189999878406525,3.654099941253662,2.765399932861328
1705063993175432700,31.7174326171875,-1.6385999917984009,2.172600030899048,2.6982998847961426
1705063993235432700,31.7774326171875,-0.49149999022483826,5.072999954223633,1.4155999422073364
1705063993295432700,31.8374326171875,-0.9513999819755554,1.4871000051498413,3.2898998260498047
1705063993355432700,31.8974326171875,0.7440999746322632,-1.2150999307632446,1.2379000186920166
1705063993415432700,31.9574326171875,1.997499942779541,-2.6705000400543213,-0.7114999890327454
1705063993475432700,32.0174326171875,1.8690999746322632,-1.9648000001907349,-3.670300006866455
1705063993535432700,32.0774326171875,1.4613999128341675,2.009500026702881,-3.560499906539917
1705063993595432700,32.1374326171875,2.568699836730957,2.1777000427246094,-3.2792999744415283
1705063993655432700,32.1974326171875,4.239200115203857,1.9117999076843262,-4.680500030517578
1705063993715432700,32.2574326171875,3.718400001525879,3.8589999675750732,-3.3922998905181885
1705063993775432700,32.3174326171875,2.1782000064849854,3.691699981689453,-1.5496000051498413
1705063993835432700,32.3774326171875,1.0503000020980835,2.711099863052368,-0.5724999904632568
1705063993895432700,32.4374326171875,-0.16929998993873596,-1.4063999652862549,0.36980000138282776
1705063993955432700,32.4974326171875,1.4164999723434448,-2.4514000415802,2.1765999794006348
1705063994015432700,32.5574326171875,2.6357998847961426,-1.6663999557495117,2.6786999702453613
1705063994075432700,32.6174326171875,2.927500009536743,0.9934999942779541,2.5637998580932617
1705063994135432700,32.6774326171875,2.491799831390381,2.8282999992370605,2.9250998497009277
1705063994195432700,32.7374326171875,-0.833899974822998,2.7237000465393066,3.841599941253662
1705063994255432700,32.7974326171875,-1.638700008392334,2.222599983215332,2.9719998836517334
1705063994315432700,32.8574326171875,-0.37389999628067017,5.868599891662598,0.41669997572898865
1705063994375432700,32.9174326171875,-0.578000009059906,1.802299976348877,2.0974998474121094
1705063994435432700,32.9774326171875,1.55239999294281,-1.9880999326705933,1.6114000082015991
1705063994495432700,33.0374326171875,3.453399896621704,-2.911799907684326,0.12060000002384186
1705063994555432700,33.0974326171875,3.4179999828338623,-1.886299967765808,-1.858699917793274
1705063994615432700,33.1574326171875,2.0782999992370605,1.9550999402999878,-3.3486998081207275
1705063994675432700,33.2174326171875,2.010499954223633,2.035599946975708,-3.440999984741211
1705063994735432700,33.2774326171875,3.9826998710632324,2.049499988555908,-5.414299964904785
1705063994795432700,33.3374326171875,2.832399845123291,2.559499979019165,-4.355099678039551
1705063994855432700,33.3974326171875,2.6957998275756836,3.901599884033203,-2.964200019836426
1705063994915432700,33.4574326171875,0.6983000040054321,5.257699966430664,-1.6607999801635742
1705063994975432700,33.5174326171875,0.11599999666213989,1.2759000062942505,0.7791000008583069
1705063995035432700,33.5774326171875,1.0484999418258667,-1.2714999914169312,1.3452999591827393
1705063995095432700,33.6374326171875,2.6118998527526855,-1.2869999408721924,2.9463999271392822
1705063995155432700,33.6974326171875,3.2458999156951904,0.6341999769210815,3.323899984359741
1705063995215432700,33.7574326171875,2.9270999431610107,3.1058998107910156,3.6549999713897705
1705063995275432700,33.8174326171875,-0.186599999666214,2.197999954223633,4.468699932098389
1705063995335432700,33.8774326171875,-0.2013999968767166,3.811699867248535,2.4570999145507812
1705063995395432700,33.9374326171875,-0.32499998807907104,3.2672998905181885,0.8513000011444092
1705063995455432700,33.9974326171875,-0.5511000156402588,5.117099761962891,0.42969998717308044
1705063995515432700,34.0574326171875,-0.335099995136261,1.8425999879837036,2.295599937438965
1705063995575432700,34.1174326171875,2.268899917602539,-0.3564999997615814,1.375
1705063995635432700,34.1774326171875,4.2617998123168945,-0.19919998943805695,-2.16129994392395
1705063995695432700,34.2374326171875,3.82669997215271,-1.6380000114440918,-3.7278997898101807
1705063995755432700,34.2974326171875,3.566499948501587,0.8055999875068665,-5.355400085449219
1705063995815432700,34.3574326171875,2.256899833679199,1.9081999063491821,-5.311100006103516
1705063995875432700,34.4174326171875,2.5637998580932617,0.5679999589920044,-6.6352996826171875
1705063995935432700,34.4774326171875,1.2618999481201172,5.633999824523926,-3.819199800491333
1705063995995432700,34.5374326171875,0.7124999761581421,5.464600086212158,-2.5157999992370605
1705063996055432700,34.5974326171875,0.5552999973297119,1.3173999786376953,-0.438400000333786
1705063996115432700,34.6574326171875,1.198799967765808,-1.132599949836731,1.0601999759674072
1705063996175432700,34.7174326171875,2.978600025177002,-0.07800000160932541,2.270699977874756
1705063996235432700,34.7774326171875,3.0242998600006104,2.06850004196167,2.54830002784729
1705063996295432700,34.8374326171875,3.6484999656677246,5.316199779510498,3.19599986076355
1705063996355432700,34.8974326171875,-0.4797999858856201,3.3695998191833496,7.387499809265137
1705063996415432700,34.9574326171875,0.3847000002861023,3.996999979019165,4.4344000816345215
1705063996475432700,35.0174326171875,0.6186000108718872,5.630399703979492,3.3132998943328857
1705063996535432700,35.0774326171875,1.0084999799728394,3.6477999687194824,-0.06319999694824219
1705063996595432700,35.1374326171875,0.667199969291687,-1.833299994468689,-0.5709999799728394
1705063996655432700,35.1974326171875,1.9817999601364136,-1.6258000135421753,0.006899999920278788
1705063996715432700,35.2574326171875,0.7716999650001526,2.918299913406372,-3.0500998497009277
1705063996775432700,35.3174326171875,0.8613999485969543,1.36899995803833,-4.647599697113037
1705063996835432700,35.3774326171875,2.020900011062622,1.424799919128418,-7.59060001373291
1705063996895432700,35.4374326171875,1.2443000078201294,0.9751999974250793,-7.76639986038208
1705063996955432700,35.4974326171875,1.549799919128418,1.1380000114440918,-6.330699920654297
1705063997015432700,35.5574326171875,1.605199933052063,4.683499813079834,-5.869799613952637
1705063997075434200,35.617434326171875,0.28110000491142273,8.080299377441406,-3.001699924468994
1705063997135432700,35.6774326171875,2.0032999515533447,2.9809999465942383,-0.43609997630119324
1705063997195432700,35.7374326171875,2.419100046157837,1.1718000173568726,1.444000005722046
1705063997255432700,35.7974326171875,2.943199872970581,2.015399932861328,4.3403000831604
1705063997315432700,35.8574326171875,2.9902000427246094,3.9196999073028564,4.386899948120117
1705063997375432700,35.9174326171875,2.1854000091552734,2.664799928665161,6.714099884033203
1705063997435432700,35.9774326171875,-0.916700005531311,1.326799988746643,7.008699893951416
1705063997495432700,36.0374326171875,-0.07939999550580978,2.8020999431610107,6.876199722290039
1705063997555432700,36.0974326171875,1.0351999998092651,9.465999603271484,3.3723998069763184
1705063997615432700,36.1574326171875,0.4829999804496765,5.838699817657471,1.7858999967575073
1705063997675432700,36.2174326171875,1.6485999822616577,0.49609997868537903,0.3700999915599823
1705063997735432700,36.2774326171875,2.0304999351501465,-1.062999963760376,-0.9248999953269958
1705063997795432700,36.3374326171875,1.142799973487854,2.51419997215271,-2.933799982070923
1705063997855432700,36.3974326171875,0.3507999777793884,2.1569998264312744,-5.044300079345703
1705063997915432700,36.4574326171875,3.0088000297546387,1.4512999057769775,-6.567699909210205
1705063997975432700,36.5174326171875,2.3406999111175537,0.9847999811172485,-7.973499774932861
1705063998035432700,36.5774326171875,2.069499969482422,1.25,-8.571700096130371
1705063998095432700,36.6374326171875,2.337399959564209,4.901299953460693,-5.405399799346924
1705063998155432700,36.6974326171875,0.4122999906539917,6.636999607086182,-3.753999948501587
1705063998215432700,36.7574326171875,0.2992999851703644,2.9746999740600586,-0.34219998121261597
1705063998275432700,36.8174326171875,1.098699927330017,-0.4333999752998352,1.395900011062622
1705063998335432700,36.8774326171875,2.478600025177002,-0.16210000216960907,1.9941999912261963
1705063998395432700,36.9374326171875,3.9393999576568604,3.7059998512268066,2.1185998916625977
1705063998455432700,36.9974326171875,3.2020998001098633,4.868499755859375,4.707399845123291
1705063998515432700,37.0574326171875,0.3483999967575073,2.415599822998047,7.427499771118164
1705063998575432700,37.1174326171875,0.1793999969959259,4.2052998542785645,6.412099838256836
1705063998635432700,37.1774326171875,1.5384999513626099,5.7829999923706055,3.8566999435424805
1705063998695432700,37.2374326171875,0.5490999817848206,4.545799732208252,2.0535998344421387
1705063998755432700,37.2974326171875,0.7594000101089478,-0.10589999705553055,0.8499999642372131
1705063998815432700,37.3574326171875,2.049099922180176,-1.865899920463562,-0.4343999922275543
1705063998875432700,37.4174326171875,2.876699924468994,-0.18400000035762787,-2.196500062942505
1705063998935432700,37.4774326171875,1.7500998973846436,2.284600019454956,-3.3625998497009277
1705063998995432700,37.5374326171875,1.5511999130249023,2.2611000537872314,-6.174099922180176
1705063999055432700,37.5974326171875,1.8940999507904053,1.0812000036239624,-7.8282999992370605
1705063999115432700,37.6574326171875,1.9320999383926392,0.14880000054836273,-7.452600002288818
1705063999175432700,37.7174326171875,0.9843999743461609,4.936800003051758,-5.490299701690674
1705063999235432700,37.7774326171875,0.8248999714851379,5.741999626159668,-3.8671000003814697
1705063999295432700,37.8374326171875,1.1398999691009521,2.100299835205078,-1.1151999235153198
1705063999355432700,37.8974326171875,2.001699924468994,0.2450999915599823,0.5805000066757202
1705063999415432700,37.9574326171875,3.2684998512268066,0.7906999588012695,1.4477999210357666
1705063999475432700,38.0174326171875,3.3020999431610107,4.214900016784668,2.357599973678589
1705063999535432700,38.0774326171875,3.361999988555908,5.013700008392334,4.983099937438965
1705063999595432700,38.1374326171875,2.0866000652313232,2.4024999141693115,7.374300003051758
1705063999655432700,38.1974326171875,-0.1890999972820282,1.7556999921798706,6.132400035858154
1705063999715432700,38.2574326171875,1.5116000175476074,7.8491997718811035,4.003200054168701
1705063999775432700,38.3174326171875,0.8301999568939209,5.681600093841553,2.3912999629974365
1705063999835432700,38.3774326171875,1.1825000047683716,0.5963999629020691,-0.0851999968290329
1705063999895432700,38.4374326171875,1.5175999402999878,-1.2411999702453613,-0.43549999594688416
1705063999955432700,38.4974326171875,0.7720999717712402,2.2393999099731445,-4.791199684143066
1705064000015432700,38.5574326171875,1.6492999792099,2.552799940109253,-2.948499917984009
1705064000075432700,38.6174326171875,6.0278000831604,4.50469970703125,-5.796599864959717
1705064000135432700,38.6774326171875,4.946599960327148,2.072700023651123,-9.336699485778809
1705064000195432700,38.7374326171875,5.22629976272583,1.5432000160217285,-5.4116997718811035
1705064000255432700,38.7974326171875,2.3861000537872314,7.1803998947143555,-3.6058998107910156
1705064000315432700,38.8574326171875,0.8761000037193298,6.056999683380127,-0.8847000002861023
1705064000375432700,38.9174326171875,0.05959999933838844,0.4292999804019928,0.5117999911308289
1705064000435432700,38.9774326171875,1.7383999824523926,-0.32850000262260437,1.2039999961853027
1705064000495432700,39.0374326171875,4.0991997718811035,1.570599913597107,1.4851999282836914
1705064000555432700,39.0974326171875,5.03279972076416,3.611299991607666,2.5394999980926514
1705064000615432700,39.1574326171875,3.2761998176574707,4.655099868774414,6.217700004577637
1705064000675432700,39.2174326171875,0.32259997725486755,3.9549999237060547,7.608099937438965
1705064000735432700,39.2774326171875,0.12759999930858612,3.818499803543091,5.0854997634887695
1705064000795432700,39.3374326171875,1.1746000051498413,7.376499652862549,3.2751998901367188
1705064000855432700,39.3974326171875,1.4987999200820923,2.8578999042510986,2.1641998291015625
1705064000915432700,39.4574326171875,1.9888999462127686,-0.9575999975204468,-0.07149999588727951
1705064000975432700,39.5174326171875,2.1196000576019287,-0.5898999571800232,-2.0420000553131104
1705064001035432700,39.5774326171875,0.5834999680519104,2.372299909591675,-3.5329999923706055
1705064001095432700,39.6374326171875,0.9747999906539917,2.94599986076355,-4.995899677276611
1705064001155432700,39.6974326171875,2.363499879837036,2.4275999069213867,-7.796099662780762
1705064001215432700,39.7574326171875,3.7070999145507812,2.1262998580932617,-8.380599975585938
1705064001275432700,39.8174326171875,2.0114998817443848,2.7047998905181885,-5.417299747467041
1705064001335432700,39.8774326171875,0.8756999969482422,4.961999893188477,-4.043900012969971
1705064001395432700,39.9374326171875,0.884399950504303,4.250699996948242,-1.7856999635696411
1705064001455432700,39.9974326171875,1.3529999256134033,0.5527999997138977,-0.01759999990463257
1705064001515432700,40.0574326171875,2.7468998432159424,-0.23799999058246613,1.0648999214172363
1705064001575432700,40.1174326171875,3.912299871444702,1.6330000162124634,1.1368999481201172
1705064001635432700,40.1774326171875,3.0105998516082764,5.138700008392334,3.3504998683929443
1705064001695432700,40.2374326171875,1.242799997329712,5.965199947357178,6.197999954223633
1705064001755432700,40.2974326171875,-0.9343000054359436,2.4786999225616455,5.866999626159668
1705064001815432700,40.3574326171875,0.2126999944448471,2.546299934387207,4.793600082397461
1705064001875432700,40.4174326171875,1.5683999061584473,3.374499797821045,2.8831000328063965
1705064001935432700,40.4774326171875,0.4554999768733978,1.9539999961853027,0.519599974155426
1705064001995432700,40.5374326171875,0.8170999884605408,-1.4585999250411987,0.29739999771118164
1705064002055432700,40.5974326171875,1.712399959564209,-0.3513000011444092,-0.4738999903202057
1705064002115432700,40.6574326171875,-1.8085999488830566,3.060999870300293,-3.6564998626708984
1705064002175432700,40.7174326171875,2.287099838256836,1.0255999565124512,-6.380099773406982
1705064002235432700,40.7774326171875,5.986700057983398,0.9222999811172485,-7.074999809265137
1705064002295432700,40.8374326171875,4.106199741363525,3.814199924468994,-6.539000034332275
1705064002355432700,40.8974326171875,2.8997998237609863,3.6604998111724854,-3.4241998195648193
1705064002415432700,40.9574326171875,2.3222999572753906,6.967299938201904,-2.0844998359680176
1705064002475432700,41.0174326171875,1.0756999254226685,3.3088998794555664,-0.4536999762058258
1705064002535432700,41.0774326171875,1.0428999662399292,0.054999999701976776,1.1448999643325806
1705064002595432700,41.1374326171875,2.5046000480651855,-0.10319999605417252,3.003000020980835
1705064002655432700,41.1974326171875,3.388399839401245,1.1927999258041382,3.5779998302459717
1705064002715432700,41.2574326171875,3.917799949645996,3.7761998176574707,4.039000034332275
1705064002775432700,41.3174326171875,0.6746000051498413,2.124799966812134,6.239500045776367
1705064002835432700,41.3774326171875,-0.952299952507019,4.088399887084961,5.178999900817871
1705064002895432700,41.4374326171875,-1.668299913406372,3.017899990081787,5.2144999504089355
1705064002955432700,41.4974326171875,0.03749999776482582,5.9502997398376465,2.341599941253662
1705064003015432700,41.5574326171875,0.01549999974668026,4.1128997802734375,0.13120000064373016
1705064003075432700,41.6174326171875,0.8550999760627747,0.4830999970436096,-1.2479000091552734
1705064003135432700,41.6774326171875,1.138700008392334,0.349700003862381,-3.588099956512451
1705064003195432700,41.7374326171875,2.7951998710632324,-1.1801999807357788,-3.012699842453003
1705064003255432700,41.7974326171875,5.4004998207092285,-0.045099999755620956,-5.030900001525879
1705064003315432700,41.8574326171875,2.605599880218506,1.482699990272522,-7.295499801635742
1705064003375432700,41.9174326171875,3.696199893951416,1.2804999351501465,-6.144499778747559
1705064003435432700,41.9774326171875,2.3569998741149902,5.038099765777588,-3.3349997997283936
1705064003495432700,42.0374326171875,1.3056999444961548,5.164999961853027,-0.875
1705064003555432700,42.0974326171875,1.0204999446868896,5.485799789428711,-2.248499870300293
1705064003615432700,42.1574326171875,1.2817000150680542,1.1937999725341797,0.5151999592781067
1705064003675432700,42.2174326171875,2.967399835586548,-0.44200000166893005,3.642699956893921
1705064003735432700,42.2774326171875,3.274600028991699,-0.25589999556541443,4.381899833679199
1705064003795432700,42.3374326171875,3.3320999145507812,2.676100015640259,3.892899990081787
1705064003855432700,42.3974326171875,1.419600009918213,2.967099905014038,6.36329984664917
1705064003915432700,42.4574326171875,-1.4872000217437744,3.581699848175049,4.924599647521973
1705064003975432700,42.5174326171875,-2.4955999851226807,3.947199821472168,3.927299976348877
1705064004035432700,42.5774326171875,-1.0872999429702759,7.598999977111816,1.2079999446868896
1705064004095432700,42.6374326171875,-0.9596999883651733,3.8018999099731445,1.9772999286651611
1705064004155432700,42.6974326171875,2.0562000274658203,0.8718999624252319,0.9031999707221985
1705064004215432700,42.7574326171875,4.116199970245361,0.2352999895811081,-1.1410999298095703
1705064004275432700,42.8174326171875,4.932399749755859,0.15160000324249268,-2.876199960708618
1705064004335432700,42.8774326171875,4.86299991607666,0.522599995136261,-3.7174999713897705
1705064004395432700,42.9374326171875,4.601399898529053,3.4197998046875,-4.240600109100342
1705064004455432700,42.9974326171875,5.103399753570557,2.0157999992370605,-5.900899887084961
1705064004515432700,43.0574326171875,3.9423999786376953,3.53059983253479,-4.979700088500977
1705064004575432700,43.1174326171875,1.5154999494552612,5.862299919128418,-2.098599910736084
1705064004635432700,43.1774326171875,0.30300000309944153,4.644599914550781,-1.959299921989441
1705064004695432700,43.2374326171875,-0.22379998862743378,0.24539999663829803,-0.2572999894618988
1705064004755432700,43.2974326171875,1.5377999544143677,-0.6405999660491943,1.523800015449524
1705064004815434200,43.35743432617188,2.9844000339508057,0.2441999912261963,2.752699851989746
1705064004875432700,43.4174326171875,3.282899856567383,2.064499855041504,3.672499895095825
1705064004935432700,43.4774326171875,0.7739999890327454,2.6243999004364014,7.139699935913086
1705064004995432700,43.5374326171875,-0.4043999910354614,3.3279998302459717,5.539999961853027
1705064005055432700,43.5974326171875,-1.3756999969482422,4.193900108337402,3.3300998210906982
1705064005115432700,43.6574326171875,0.7346999645233154,6.173599720001221,1.8854999542236328
1705064005175432700,43.7174326171875,0.8924999833106995,3.0618999004364014,0.738099992275238
1705064005235432700,43.7774326171875,1.7223999500274658,0.01249999925494194,0.2620999813079834
1705064005295432700,43.8374326171875,3.7163000106811523,-0.4373999834060669,-1.103600025177002
1705064005355432700,43.8974326171875,5.001399993896484,-1.430799961090088,-3.5878000259399414
1705064005415432700,43.9574326171875,3.766199827194214,1.8829998970031738,-5.517600059509277
1705064005475432700,44.0174326171875,2.463599920272827,2.476300001144409,-5.020599842071533
1705064005535432700,44.0774326171875,3.5745999813079834,2.0527000427246094,-6.451299667358398
1705064005595432700,44.1374326171875,1.3295999765396118,3.364300012588501,-3.819999933242798
1705064005655432700,44.1974326171875,0.08399999886751175,5.280200004577637,-2.446899890899658
1705064005715432700,44.2574326171875,0.3840000033378601,2.440199851989746,-0.038599997758865356
1705064005775432700,44.3174326171875,0.5579999685287476,-0.5095999836921692,0.7770000100135803
1705064005835432700,44.3774326171875,2.9138998985290527,0.8567000031471252,1.661099910736084
1705064005895432700,44.4374326171875,3.8895998001098633,2.98009991645813,2.4351999759674072
1705064005955432700,44.4974326171875,3.903599977493286,5.640999794006348,3.1034998893737793
1705064006015432700,44.5574326171875,0.8923999667167664,2.024399995803833,8.002399444580078
1705064006075432700,44.6174326171875,1.3259999752044678,2.0339999198913574,7.484499931335449
1705064006135432700,44.6774326171875,-0.2953000068664551,2.604599952697754,4.4716997146606445
1705064006195432700,44.7374326171875,0.25619998574256897,6.821699619293213,3.0081000328063965
1705064006255432700,44.7974326171875,0.4186999797821045,2.0088000297546387,-0.2724999785423279
1705064006315432700,44.8574326171875,1.8701999187469482,-1.375499963760376,-0.1412999927997589
1705064006375432700,44.9174326171875,2.8386998176574707,-0.35580000281333923,-1.9715999364852905
1705064006435432700,44.9774326171875,1.3349000215530396,0.07739999890327454,-4.716700077056885
1705064006495432700,45.0374326171875,1.4987999200820923,2.0211000442504883,-5.948699951171875
1705064006555432700,45.0974326171875,2.6582000255584717,1.4584999084472656,-6.824599742889404
1705064006615432700,45.1574326171875,3.121799945831299,1.7069998979568481,-6.628999710083008
1705064006675432700,45.2174326171875,1.9499999284744263,4.218499660491943,-4.150300025939941
1705064006735432700,45.2774326171875,1.128600001335144,6.285599708557129,-2.3264000415802
1705064006795432700,45.3374326171875,-0.01730000041425228,2.525099992752075,1.5256999731063843
1705064006855432700,45.3974326171875,0.9097999930381775,0.010400000028312206,1.0562000274658203
1705064006915432700,45.4574326171875,2.889400005340576,-0.08819999545812607,2.580399990081787
1705064006975432700,45.5174326171875,3.5660998821258545,0.7040999531745911,3.4945998191833496
1705064007035432700,45.5774326171875,3.2351999282836914,2.4319000244140625,4.9303998947143555
1705064007095432700,45.6374326171875,0.41509997844696045,2.0262999534606934,5.564599990844727
1705064007155432700,45.6974326171875,-0.5564000010490417,3.498699903488159,4.218699932098389
1705064007215432700,45.7574326171875,-0.050599999725818634,6.402699947357178,2.2812998294830322
1705064007275432700,45.8174326171875,-0.495199978351593,5.721399784088135,2.3589999675750732
1705064007335432700,45.8774326171875,0.6972000002861023,0.2985999882221222,1.0145000219345093
1705064007395432700,45.9374326171875,2.6285998821258545,-2.5597000122070312,-0.23499999940395355
1705064007455432700,45.9974326171875,3.608599901199341,-0.958899974822998,-2.6473000049591064
1705064007515432700,46.0574326171875,2.4126999378204346,1.6552999019622803,-3.303799867630005
1705064007575432700,46.1174326171875,2.7233998775482178,3.6459999084472656,-3.7309999465942383
1705064007635432700,46.1774326171875,4.953199863433838,3.3977999687194824,-5.69219970703125
1705064007695432700,46.2374326171875,3.3302998542785645,3.857599973678589,-4.857500076293945
1705064007755432700,46.2974326171875,0.857699990272522,5.8094000816345215,-2.197000026702881
1705064007815432700,46.3574326171875,-1.2971999645233154,1.3883999586105347,-0.20319999754428864
1705064007875432700,46.4174326171875,-1.1282999515533447,-3.6582999229431152,-2.009000062942505
1705064007935432700,46.4774326171875,1.3745999336242676,-3.6903998851776123,-2.2879998683929443
1705064007995432700,46.5374326171875,5.338299751281738,-0.6420999765396118,0.8114999532699585
1705064008055432700,46.5974326171875,4.309499740600586,4.426700115203857,1.7618999481201172
1705064008115432700,46.6574326171875,1.007099986076355,6.4298996925354,5.664299964904785
1705064008175432700,46.7174326171875,0.15489999949932098,5.067800045013428,7.564999580383301
1705064008235432700,46.7774326171875,0.7893999814987183,4.813699722290039,6.060999870300293
1705064008295432700,46.8374326171875,1.4739999771118164,4.574599742889404,2.5292999744415283
1705064008355432700,46.8974326171875,1.260200023651123,0.9695999622344971,2.148099899291992
1705064008415432700,46.9574326171875,1.4697999954223633,-2.5628998279571533,0.2733999788761139
1705064008475432700,47.0174326171875,1.9555999040603638,-2.1880998611450195,-1.0511000156402588
1705064008535432700,47.0774326171875,0.9296000003814697,1.2522000074386597,-3.725399971008301
1705064008595432700,47.1374326171875,0.512499988079071,1.8865000009536743,-6.052099704742432
1705064008655432700,47.1974326171875,1.7460999488830566,1.4864000082015991,-6.722499847412109
1705064008715432700,47.2574326171875,3.3457000255584717,1.0519999265670776,-6.854599952697754
1705064008775432700,47.3174326171875,2.934199810028076,4.571899890899658,-4.5142998695373535
1705064008835432700,47.3774326171875,1.7186999320983887,6.420599937438965,-2.4896998405456543
1705064008895432700,47.4374326171875,1.5911999940872192,4.1219000816345215,-1.314099907875061
1705064008955432700,47.4974326171875,1.8004999160766602,0.7590000033378601,-0.10809999704360962
1705064009015432700,47.5574326171875,3.553999900817871,0.7006999850273132,1.9066998958587646
1705064009075432700,47.6174326171875,4.57289981842041,1.4395999908447266,2.5570998191833496
1705064009135432700,47.6774326171875,4.898499965667725,2.983599901199341,3.6194000244140625
1705064009195432700,47.7374326171875,3.072399854660034,5.019799709320068,6.59559965133667
1705064009255432700,47.7974326171875,0.7299000024795532,6.06119966506958,7.850299835205078
1705064009315432700,47.8574326171875,-0.7475000023841858,3.2433998584747314,5.82289981842041
1705064009375432700,47.9174326171875,0.5169000029563904,7.384999752044678,2.261399984359741
1705064009435432700,47.9774326171875,0.43299999833106995,3.220899820327759,0.7935999631881714
1705064009495432700,48.0374326171875,1.2879999876022339,0.05209999904036522,-0.2678999900817871
1705064009555432700,48.0974326171875,1.941999912261963,-0.31129997968673706,-2.1347999572753906
1705064009615432700,48.1574326171875,1.6863999366760254,3.1782000064849854,-4.905699729919434
1705064009675432700,48.2174326171875,3.672499895095825,1.1446999311447144,-5.772799968719482
1705064009735432700,48.2774326171875,4.927000045776367,1.3062999248504639,-8.103400230407715
1705064009795432700,48.3374326171875,3.985299825668335,0.9781999588012695,-7.3237996101379395
1705064009855432700,48.3974326171875,4.450999736785889,3.586099863052368,-5.408499717712402
1705064009915432700,48.4574326171875,1.7569999694824219,8.786299705505371,-2.385699987411499
1705064009975432700,48.5174326171875,0.9386000037193298,5.571899890899658,-1.1761000156402588
1705064010035432700,48.5774326171875,0.648099958896637,0.7432000041007996,-0.2809000015258789
1705064010095432700,48.6374326171875,2.996999979019165,1.1374999284744263,1.1579999923706055
1705064010155432700,48.6974326171875,4.489699840545654,3.1878998279571533,2.466099977493286
1705064010215432700,48.7574326171875,4.28249979019165,3.182499885559082,5.908199787139893
1705064010275432700,48.8174326171875,2.270900011062622,1.8917999267578125,7.91949987411499
1705064010335432700,48.8774326171875,1.3783999681472778,4.41540002822876,8.330599784851074
1705064010395432700,48.9374326171875,1.0188000202178955,6.080699920654297,3.181999921798706
1705064010455432700,48.9974326171875,1.0938999652862549,7.844599723815918,2.2642998695373535
1705064010515432700,49.0574326171875,1.315500020980835,1.2324999570846558,1.0322999954223633
1705064010575432700,49.1174326171875,2.1252999305725098,-1.0871999263763428,-0.38189998269081116
1705064010635432700,49.1774326171875,1.1409000158309937,-0.0142000000923872,-4.0406999588012695
1705064010695432700,49.2374326171875,-0.11299999803304672,1.423799991607666,-5.42519998550415
1705064010755432700,49.2974326171875,1.1376999616622925,1.3941999673843384,-5.752599716186523
1705064010815432700,49.3574326171875,2.5132999420166016,0.4867999851703644,-7.441699981689453
1705064010875432700,49.4174326171875,4.602499961853027,5.745500087738037,-6.988699913024902
1705064010935432700,49.4774326171875,0.8801999688148499,7.59529972076416,-1.823599934577942
1705064010995432700,49.5374326171875,0.03969999775290489,6.267899990081787,-2.9313998222351074
1705064011055432700,49.5974326171875,0.8842999935150146,0.8463000059127808,-0.8335999846458435
1705064011115432700,49.6574326171875,1.96999990940094,-1.403499960899353,2.1670000553131104
1705064011175432700,49.7174326171875,3.0212998390197754,-0.7709999680519104,2.7353999614715576
1705064011235432700,49.7774326171875,4.080899715423584,2.5302000045776367,2.9208998680114746
1705064011295432700,49.8374326171875,2.9667999744415283,4.394700050354004,4.490200042724609
1705064011355432700,49.8974326171875,1.0773999691009521,6.670599937438965,6.501899719238281
1705064011415432700,49.9574326171875,-0.49309998750686646,6.2403998374938965,6.246899604797363
1705064011475432700,50.0174326171875,1.3451999425888062,8.530499458312988,1.0900999307632446
1705064011535432700,50.0774326171875,1.3114999532699585,1.6547999382019043,1.8813999891281128
1705064011595432700,50.1374326171875,1.9401999711990356,-2.1758999824523926,0.23309999704360962
1705064011655432700,50.1974326171875,2.4870998859405518,-1.0318999290466309,-1.1164000034332275
1705064011715432700,50.2574326171875,2.5279998779296875,3.00819993019104,-2.8713998794555664
1705064011775432700,50.3174326171875,2.8424999713897705,1.7232999801635742,-4.18209981918335
1705064011835432700,50.3774326171875,4.2017998695373535,3.8108999729156494,-5.692299842834473
1705064011895432700,50.4374326171875,3.8384997844696045,1.323599934577942,-7.068399906158447
1705064011955432700,50.4974326171875,2.839399814605713,4.328000068664551,-5.391200065612793
1705064012015432700,50.5574326171875,0.8868999481201172,6.6454997062683105,-2.7291998863220215
1705064012075432700,50.6174326171875,-0.12219999730587006,3.9403998851776123,-0.6661999821662903
1705064012135432700,50.6774326171875,-0.6441999673843384,-0.8833000063896179,0.07679999619722366
1705064012195432700,50.7374326171875,2.1129000186920166,-1.8213999271392822,1.6550999879837036
1705064012255432700,50.7974326171875,4.3919997215271,0.15049999952316284,2.134999990463257
1705064012315432700,50.8574326171875,4.340399742126465,5.771299839019775,1.451200008392334
1705064012375432700,50.9174326171875,-1.9727998971939087,4.185699939727783,8.307099342346191
1705064012435432700,50.9774326171875,-1.0620999336242676,6.841300010681152,7.603399753570557
1705064012495432700,51.0374326171875,1.6740999221801758,8.071199417114258,2.668299913406372
1705064012555432700,51.0974326171875,2.7655999660491943,4.8024001121521,2.5810999870300293
1705064012615432700,51.1574326171875,2.115000009536743,0.6890999674797058,1.459399938583374
1705064012675432700,51.2174326171875,2.0306999683380127,-0.6796000003814697,-0.8477999567985535
1705064012735432700,51.2774326171875,1.7263000011444092,1.9957998991012573,-3.2221999168395996
1705064012795432700,51.3374326171875,2.3101999759674072,0.6061999797821045,-5.453399658203125
1705064012855432700,51.3974326171875,2.3158998489379883,3.0174999237060547,-7.470099925994873
1705064012915432700,51.4574326171875,1.0645999908447266,0.6606999635696411,-8.751699447631836
1705064012975432700,51.5174326171875,3.0794999599456787,-0.41110000014305115,-7.74399995803833
1705064013035432700,51.5774326171875,2.101799964904785,6.87939977645874,-4.984099864959717
1705064013095432700,51.6374326171875,0.423799991607666,10.866600036621094,-3.047600030899048
1705064013155432700,51.6974326171875,0.937999963760376,5.543099880218506,-0.23739999532699585
1705064013215432700,51.7574326171875,2.0871999263763428,0.8122999668121338,2.104099988937378
1705064013275432700,51.8174326171875,3.659799814224243,1.0429999828338623,3.4663000106811523
1705064013335432700,51.8774326171875,4.468100070953369,3.0986998081207275,3.4384000301361084
1705064013395432700,51.9374326171875,4.170499801635742,3.995499849319458,4.978300094604492
1705064013455432700,51.9974326171875,0.9937999844551086,2.571899890899658,7.195399761199951
1705064013515432700,52.0574326171875,1.285599946975708,3.6085000038146973,7.2652997970581055
1705064013575432700,52.1174326171875,2.2539000511169434,11.009099960327148,5.271599769592285
1705064013635432700,52.1774326171875,-0.6602999567985535,8.296899795532227,-1.066499948501587
1705064013695432700,52.2374326171875,1.0406999588012695,1.171199917793274,0.3481999933719635
1705064013755432700,52.2974326171875,2.057499885559082,0.42289999127388,-0.3301999866962433
1705064013815432700,52.3574326171875,1.072700023651123,2.163599967956543,-2.9484000205993652
1705064013875432700,52.4174326171875,4.85129976272583,2.6064000129699707,-4.419899940490723
1705064013935432700,52.4774326171875,4.6493000984191895,2.735100030899048,-8.840399742126465
1705064013995432700,52.5374326171875,3.530900001525879,0.7602999806404114,-9.652999877929688
1705064014055432700,52.5974326171875,4.60890007019043,1.1626999378204346,-7.0046000480651855
1705064014115432700,52.6574326171875,2.1636998653411865,8.885099411010742,-3.473099946975708
1705064014175432700,52.7174326171875,-0.03879999741911888,9.480199813842773,-2.9564998149871826
1705064014235432700,52.7774326171875,0.8179000020027161,4.347399711608887,0.20099999010562897
1705064014295432700,52.8374326171875,1.889699935913086,1.0037000179290771,2.909600019454956
1705064014355432700,52.8974326171875,3.658399820327759,1.833299994468689,3.97379994392395
1705064014415432700,52.9574326171875,5.249300003051758,4.349100112915039,4.961100101470947
1705064014475432700,53.0174326171875,3.067699909210205,3.1967999935150146,6.274999618530273
1705064014535432700,53.0774326171875,-0.7917999625205994,1.7304999828338623,7.214799880981445
1705064014595432700,53.1374326171875,0.15330000221729279,6.699999809265137,4.1682000160217285
1705064014655432700,53.1974326171875,0.5360999703407288,10.708999633789062,3.361799955368042
1705064014715432700,53.2574326171875,-0.23969998955726624,6.4355998039245605,3.1633999347686768
1705064014775432700,53.3174326171875,-0.3499999940395355,0.33379998803138733,-0.060099996626377106
1705064014835432700,53.3774326171875,2.4103000164031982,-1.1852999925613403,-1.1425999402999878
1705064014895432700,53.4374326171875,2.909600019454956,1.1683999300003052,-5.067999839782715
1705064014955432700,53.4974326171875,0.9480999708175659,4.1468000411987305,-5.598799705505371
1705064015015432700,53.5574326171875,3.5017998218536377,2.643199920654297,-7.738099575042725
1705064015075432700,53.6174326171875,5.445899963378906,1.4026999473571777,-9.394000053405762
1705064015135432700,53.6774326171875,4.142600059509277,3.970599889755249,-5.275599956512451
1705064015195432700,53.7374326171875,1.7773000001907349,8.65250015258789,-3.3596999645233154
1705064015255432700,53.7974326171875,-0.2700999975204468,7.935400009155273,-0.7981999516487122
1705064015315432700,53.8574326171875,0.527999997138977,1.8693000078201294,0.26899999380111694
1705064015375432700,53.9174326171875,2.1417999267578125,0.2718999981880188,3.9121999740600586
1705064015435432700,53.9774326171875,3.9426000118255615,1.3466999530792236,4.134999752044678
1705064015495432700,54.0374326171875,4.8480000495910645,2.4694998264312744,4.364200115203857
1705064015555432700,54.0974326171875,3.0637998580932617,4.218599796295166,6.70989990234375
1705064015615432700,54.1574326171875,-0.09239999949932098,4.712399959564209,5.886399745941162
1705064015675432700,54.2174326171875,0.5601999759674072,6.30649995803833,3.5869998931884766
1705064015735432700,54.2774326171875,-1.514299988746643,8.04010009765625,2.8130998611450195
1705064015795432700,54.3374326171875,-0.5198999643325806,4.90179967880249,1.681899905204773
1705064015855432700,54.3974326171875,2.7468998432159424,1.2343999147415161,2.08270001411438
1705064015915432700,54.4574326171875,3.773699998855591,0.14589999616146088,-0.7336999773979187
1705064015975432700,54.5174326171875,3.1649999618530273,2.065700054168701,-4.006400108337402
1705064016035432700,54.5774326171875,3.423499822616577,2.2483999729156494,-4.769000053405762
1705064016095432700,54.6374326171875,4.6626996994018555,3.296799898147583,-7.297499656677246
1705064016155432700,54.6974326171875,4.905900001525879,1.167199969291687,-8.238900184631348
1705064016215432700,54.7574326171875,3.7886998653411865,3.824899911880493,-5.7947998046875
1705064016275432700,54.8174326171875,1.6739000082015991,6.046599864959717,-3.336199998855591
1705064016335432700,54.8774326171875,0.2692999839782715,6.31689977645874,-1.8042999505996704
1705064016395432700,54.9374326171875,0.9377999901771545,1.2493000030517578,1.004599928855896
1705064016455432700,54.9974326171875,3.058199882507324,0.32999998331069946,2.4802000522613525
1705064016515432700,55.0574326171875,4.1529998779296875,2.1185998916625977,2.7463998794555664
1705064016575432700,55.1174326171875,4.952699661254883,4.884900093078613,3.5421998500823975
1705064016635432700,55.1774326171875,1.440999984741211,4.195399761199951,7.838899612426758
1705064016695432700,55.2374326171875,0.36959999799728394,5.199599742889404,5.614299774169922
1705064016755432700,55.2974326171875,0.5938999652862549,9.045999526977539,4.4430999755859375
1705064016815432700,55.3574326171875,1.0399999618530273,6.351399898529053,2.106099843978882
1705064016875432700,55.4174326171875,1.7460999488830566,1.6262999773025513,0.8815000057220459
1705064016935432700,55.4774326171875,2.0511999130249023,-0.7822999954223633,-0.9228000044822693
1705064016995432700,55.5374326171875,1.6883999109268188,0.5895999670028687,-2.9986000061035156
1705064017055432700,55.5974326171875,-0.0005999999702908099,2.023900032043457,-5.874300003051758
1705064017115432700,55.6574326171875,2.92549991607666,1.955299973487854,-5.719699859619141
1705064017175432700,55.7174326171875,3.8101999759674072,1.1638000011444092,-8.052800178527832
1705064017235432700,55.7774326171875,3.924499988555908,2.888000011444092,-6.361199855804443
1705064017295432700,55.8374326171875,2.937000036239624,6.011899948120117,-3.465399980545044
1705064017355432700,55.8974326171875,1.601699948310852,6.234099864959717,-1.379599928855896
1705064017415432700,55.9574326171875,1.5872999429702759,2.0690999031066895,-0.14999999105930328
1705064017475432700,56.0174326171875,2.1935999393463135,0.40139999985694885,1.7974998950958252
1705064017535432700,56.0774326171875,3.6004998683929443,1.6204999685287476,2.9600000381469727
1705064017595432700,56.1374326171875,4.244499683380127,2.9873998165130615,3.580899953842163
1705064017655432700,56.1974326171875,3.6266000270843506,2.657899856567383,5.6250996589660645
1705064017715432700,56.2574326171875,0.7033999562263489,1.7213999032974243,6.61929988861084
1705064017775432700,56.3174326171875,-0.670199990272522,5.2191996574401855,4.672199726104736
1705064017835432700,56.3774326171875,0.15649999678134918,9.006599426269531,2.3264000415802
1705064017895432700,56.4374326171875,0.9298999905586243,6.239099979400635,2.2999000549316406
1705064017955432700,56.4974326171875,1.0120999813079834,0.7182999849319458,-0.12939999997615814
1705064018015432700,56.5574326171875,2.298099994659424,-1.3109999895095825,-0.9229999780654907
1705064018075432700,56.6174326171875,2.366299867630005,0.2736999988555908,-3.126199960708618
1705064018135432700,56.6774326171875,1.5088999271392822,2.169600009918213,-4.744800090789795
1705064018195432700,56.7374326171875,5.188899993896484,1.5525999069213867,-6.235099792480469
1705064018255432700,56.7974326171875,4.382599830627441,0.6259999871253967,-8.585100173950195
1705064018315432700,56.8574326171875,4.047699928283691,0.3481999933719635,-5.9375
1705064018375432700,56.9174326171875,3.4652998447418213,9.05579948425293,-4.207099914550781
1705064018435432700,56.9774326171875,1.0505999326705933,8.481599807739258,-2.4335999488830566
1705064018495432700,57.0374326171875,1.1574000120162964,4.23859977722168,-0.19839999079704285
1705064018555432700,57.0974326171875,1.013100028038025,1.8115999698638916,2.563699960708618
1705064018615432700,57.1574326171875,2.1750998497009277,0.5970999598503113,4.666399955749512
1705064018675432700,57.2174326171875,3.5042998790740967,1.1769999265670776,5.336199760437012
1705064018735432700,57.2774326171875,3.004999876022339,3.4452998638153076,6.235199928283691
1705064018795432700,57.3374326171875,-1.2897999286651611,2.3767998218536377,8.507999420166016
1705064018855432700,57.3974326171875,-1.779099941253662,5.846999645233154,4.676300048828125
1705064018915432700,57.4574326171875,-0.462799996137619,10.56719970703125,2.983099937438965
1705064018975432700,57.5174326171875,0.13859999179840088,6.63129997253418,1.1495000123977661
1705064019035432700,57.5774326171875,1.7845999002456665,0.9316999912261963,0.1639000028371811
1705064019095432700,57.6374326171875,2.983099937438965,2.2825000286102295,-3.4865000247955322
1705064019155432700,57.6974326171875,0.5794000029563904,-0.07129999995231628,-6.6402997970581055
1705064019215432700,57.7574326171875,3.2518999576568604,-0.5516999959945679,-8.05739974975586
1705064019275432700,57.8174326171875,4.849400043487549,1.0163999795913696,-7.243299961090088
1705064019335432700,57.8774326171875,4.344699859619141,3.034899950027466,-6.877999782562256
1705064019395432700,57.9374326171875,3.1960999965667725,5.5092997550964355,-3.897199869155884
1705064019455432700,57.9974326171875,0.09059999883174896,8.93489933013916,-0.9254999756813049
1705064019515432700,58.0574326171875,0.16849999129772186,4.2855000495910645,-0.15469999611377716
1705064019575432700,58.1174326171875,-0.3870999813079834,0.849299967288971,0.8833999633789062
1705064019635432700,58.1774326171875,1.8881999254226685,-0.319599986076355,2.4094998836517334
1705064019695432700,58.2374326171875,3.23799991607666,-0.5719000101089478,4.17140007019043
1705064019755432700,58.2974326171875,3.770900011062622,1.6159999370574951,3.357999801635742
1705064019815432700,58.3574326171875,1.462399959564209,4.056099891662598,6.482100009918213
1705064019875432700,58.4174326171875,1.3917999267578125,6.255300045013428,6.341399669647217
1705064019935432700,58.4774326171875,0.8326999545097351,7.047499656677246,4.193699836730957
1705064019995432700,58.5374326171875,0.6218999624252319,7.691399574279785,2.4714999198913574
1705064020055432700,58.5974326171875,1.3830000162124634,2.527400016784668,1.9287999868392944
1705064020115432700,58.6574326171875,2.9677000045776367,0.5051000118255615,0.6743999719619751
1705064020175434200,58.717434326171876,3.7386999130249023,0.926099956035614,-1.2161999940872192
1705064020235432700,58.7774326171875,4.209499835968018,1.309399962425232,-2.1861000061035156
1705064020295432700,58.8374326171875,5.406499862670898,2.73799991607666,-4.1118998527526855
1705064020355432700,58.8974326171875,3.45389986038208,1.0170999765396118,-7.959299564361572
1705064020415432700,58.9574326171875,4.080399990081787,2.117300033569336,-8.106900215148926
1705064020475432700,59.0174326171875,0.8023999929428101,5.564199924468994,-5.901599884033203
1705064020535432700,59.0774326171875,-1.1651999950408936,5.795899868011475,-3.158900022506714
1705064020595432700,59.1374326171875,-0.44279998540878296,5.495199680328369,-2.3290998935699463
1705064020655432700,59.1974326171875,0.8490999937057495,2.019199848175049,-0.01209999993443489
1705064020715432700,59.2574326171875,3.063499927520752,1.212899923324585,1.7638999223709106
1705064020775432700,59.3174326171875,4.9532999992370605,2.4565000534057617,2.7893998622894287
1705064020835432700,59.3774326171875,4.689199924468994,3.697499990463257,4.323800086975098
1705064020895432700,59.4374326171875,2.3808000087738037,3.8015999794006348,7.8531999588012695
1705064020955432700,59.4974326171875,0.5828999876976013,6.917199611663818,8.15429973602295
1705064021015432700,59.5574326171875,-0.6521999835968018,9.553199768066406,5.2804999351501465
1705064021075432700,59.6174326171875,0.7858999967575073,8.005899429321289,0.4023999869823456
1705064021135432700,59.6774326171875,0.7358999848365784,1.0295000076293945,0.24449999630451202
1705064021195432700,59.7374326171875,0.8120999932289124,-0.7548999786376953,-1.354599952697754
1705064021255432700,59.7974326171875,1.4053000211715698,2.993499994277954,-1.8460999727249146
1705064021315432700,59.8574326171875,2.070199966430664,0.8393999934196472,-5.03849983215332
1705064021375432700,59.9174326171875,4.048099994659424,1.0164999961853027,-8.335100173950195
1705064021435432700,59.9774326171875,3.5195000171661377,1.919600009918213,-8.246299743652344
1705064021495432700,60.0374326171875,3.6903998851776123,0.5568999648094177,-7.667099952697754
1705064021555432700,60.0974326171875,3.3695998191833496,6.588099956512451,-4.815799713134766
1705064021615432700,60.1574326171875,1.0326999425888062,9.168899536132812,-3.4422998428344727
1705064021675432700,60.2174326171875,1.194599986076355,3.5717999935150146,-0.4602999985218048
1705064021735432700,60.2774326171875,2.4493000507354736,1.6207000017166138,1.7680000066757202
1705064021795432700,60.3374326171875,3.7323999404907227,3.5325000286102295,2.6022000312805176
1705064021855432700,60.3974326171875,4.916199684143066,5.82480001449585,3.8107998371124268
1705064021915432700,60.4574326171875,3.5356998443603516,5.131799697875977,7.309000015258789
1705064021975432700,60.5174326171875,0.7229999899864197,0.7770999670028687,10.464900016784668
1705064022035432700,60.5774326171875,-0.5687999725341797,5.542900085449219,5.009900093078613
1705064022095432700,60.6374326171875,0.7674999833106995,8.477099418640137,5.6265997886657715
1705064022155432700,60.6974326171875,2.5908000469207764,6.164899826049805,1.2458999156951904
1705064022215432700,60.7574326171875,2.2170000076293945,3.549999952316284,-0.5586999654769897
1705064022275432700,60.8174326171875,1.7770999670028687,2.245800018310547,-3.3875999450683594
1705064022335432700,60.8774326171875,0.26659998297691345,2.606099843978882,-4.710799694061279
1705064022395432700,60.9374326171875,1.1741999387741089,0.39419999718666077,-7.971399784088135
1705064022455432700,60.9974326171875,1.7907999753952026,2.2042999267578125,-9.91189956665039
1705064022515432700,61.0574326171875,2.0262999534606934,0.37770000100135803,-10.548799514770508
1705064022575432700,61.1174326171875,2.279899835586548,6.615200042724609,-5.913699626922607
1705064022635432700,61.1774326171875,1.904599905014038,8.023599624633789,-4.711100101470947
1705064022695432700,61.2374326171875,1.6085000038146973,4.560499668121338,-2.0876998901367188
1705064022755432700,61.2974326171875,3.011199951171875,3.700899839401245,0.8869999647140503
1705064022815432700,61.3574326171875,4.426300048828125,4.646399974822998,2.485100030899048
1705064022875432700,61.4174326171875,5.101999759674072,7.20389986038208,3.43999981880188
1705064022935432700,61.4774326171875,3.721299886703491,5.744899749755859,7.064699649810791
1705064022995432700,61.5374326171875,1.817099928855896,1.5403000116348267,10.59119987487793
1705064023055432700,61.5974326171875,1.1280999183654785,4.658599853515625,6.663699626922607
1705064023115432700,61.6574326171875,2.317199945449829,9.04990005493164,3.282899856567383
1705064023175432700,61.7174326171875,1.7695999145507812,5.442999839782715,2.1675000190734863
1705064023235432700,61.7774326171875,1.4442999362945557,0.5336999893188477,-1.1333999633789062
1705064023295432700,61.8374326171875,-0.1670999974012375,-0.5870999693870544,-3.9392998218536377
1705064023355432700,61.8974326171875,0.5187999606132507,6.442999839782715,-1.9925999641418457
1705064023415432700,61.9574326171875,0.664900004863739,3.063999891281128,-5.998600006103516
1705064023475432700,62.0174326171875,2.121000051498413,0.6132000088691711,-11.481199264526367
1705064023535432700,62.0774326171875,3.673299789428711,0.6298999786376953,-9.353799819946289
1705064023595432700,62.1374326171875,3.3541998863220215,0.4043000042438507,-8.07859992980957
1705064023655432700,62.1974326171875,2.17330002784729,9.310799598693848,-5.339600086212158
1705064023715432700,62.2574326171875,0.9075999855995178,8.268899917602539,-2.811699867248535
1705064023775432700,62.3174326171875,2.164299964904785,3.628199815750122,0.6944999694824219
1705064023835432700,62.3774326171875,3.563199996948242,1.3011999130249023,3.3981997966766357
1705064023895432700,62.4374326171875,4.243899822235107,3.9972000122070312,3.0813000202178955
1705064023955432700,62.4974326171875,4.990499973297119,6.483500003814697,4.2469000816345215
1705064024015432700,62.5574326171875,1.5792999267578125,2.2918999195098877,8.965399742126465
1705064024075432700,62.6174326171875,-0.9835000038146973,3.2901999950408936,8.710000038146973
1705064024135432700,62.6774326171875,1.5399999618530273,11.956899642944336,4.876299858093262
1705064024195432700,62.7374326171875,0.4617999792098999,8.201399803161621,3.6741998195648193
1705064024255432700,62.7974326171875,1.4688999652862549,3.2583999633789062,-0.21979999542236328
1705064024315432700,62.8574326171875,1.9418998956680298,2.2400999069213867,-1.121500015258789
1705064024375432700,62.9174326171875,-0.06679999828338623,4.982399940490723,-2.648399829864502
1705064024435432700,62.9774326171875,2.667099952697754,1.531000018119812,-6.479499816894531
1705064024495432700,63.0374326171875,3.5192999839782715,-1.0281000137329102,-8.82859992980957
1705064024555432700,63.0974326171875,3.451900005340576,0.9110999703407288,-11.487799644470215
1705064024615432700,63.1574326171875,4.961199760437012,-0.032999999821186066,-7.986199855804443
1705064024675432700,63.2174326171875,3.73009991645813,8.199199676513672,-6.367199897766113
1705064024735432700,63.2774326171875,0.7432000041007996,11.764399528503418,-4.876199722290039
1705064024795432700,63.3374326171875,0.31290000677108765,6.505199909210205,0.8362999558448792
1705064024855432700,63.3974326171875,2.4921000003814697,3.366999864578247,1.699199914932251
1705064024915432700,63.4574326171875,3.753000020980835,2.6952998638153076,3.0209999084472656
1705064024975432700,63.5174326171875,5.797699928283691,4.446399688720703,3.796599864959717
1705064025035432700,63.5774326171875,5.140699863433838,5.581399917602539,5.846499919891357
1705064025095432700,63.6374326171875,1.9371999502182007,2.8487000465393066,8.02139949798584
1705064025155432700,63.6974326171875,0.04910000041127205,6.630199909210205,5.387199878692627
1705064025215432700,63.7574326171875,0.7523999810218811,8.777799606323242,1.8635998964309692
1705064025275432700,63.8174326171875,1.9423999786376953,4.539400100708008,2.546099901199341
1705064025335432700,63.8774326171875,1.3980000019073486,2.9907000064849854,0.576200008392334
1705064025395432700,63.9374326171875,-1.5130999088287354,2.3392999172210693,-2.4391000270843506
1705064025455432700,63.9974326171875,0.97079998254776,3.0169999599456787,-1.6114000082015991
1705064025515432700,64.0574326171875,2.346799850463867,0.7795000076293945,-5.13599967956543
1705064025575432700,64.1174326171875,3.0817999839782715,0.7947999835014343,-9.135099411010742
1705064025635432700,64.1774326171875,3.773399829864502,1.5963000059127808,-8.805399894714355
1705064025695432700,64.2374326171875,4.5782999992370605,-0.29889997839927673,-7.932699680328369
1705064025755432700,64.2974326171875,3.4928998947143555,7.809199810028076,-6.194799900054932
1705064025815432700,64.3574326171875,0.9651999473571777,7.789499759674072,-3.569899797439575
1705064025875432700,64.4174326171875,0.9745999574661255,4.181299686431885,-0.9309999942779541
1705064025935432700,64.4774326171875,1.3496999740600586,1.639699935913086,0.5328999757766724
1705064025995432700,64.5374326171875,2.4233999252319336,0.23639999330043793,3.14739990234375
1705064026055432700,64.5974326171875,3.8847999572753906,1.9591000080108643,3.4636998176574707
1705064026115432700,64.6574326171875,4.177099704742432,4.1215996742248535,4.863199710845947
1705064026175432700,64.7174326171875,0.6961999535560608,2.823199987411499,9.165399551391602
1705064026235432700,64.7774326171875,-0.39969998598098755,5.8491997718811035,6.908400058746338
1705064026295432700,64.8374326171875,0.42669999599456787,10.190799713134766,2.1401000022888184
1705064026355432700,64.8974326171875,0.7960000038146973,5.255300045013428,1.9991999864578247
1705064026415432700,64.9574326171875,1.8398998975753784,0.8716999888420105,-0.25439998507499695
1705064026475432700,65.0174326171875,2.6160998344421387,1.3112000226974487,-3.2089998722076416
1705064026535432700,65.0774326171875,2.180500030517578,2.5550999641418457,-3.9788999557495117
1705064026595432700,65.1374326171875,4.431999683380127,-0.8483999967575073,-6.985899925231934
1705064026655432700,65.1974326171875,6.116399765014648,-0.1386999934911728,-7.33929967880249
1705064026715432700,65.2574326171875,3.468899965286255,4.398799896240234,-6.250799655914307
1705064026775432700,65.3174326171875,2.916800022125244,4.546199798583984,-4.4253997802734375
1705064026835503000,65.37750317382813,1.0465999841690063,7.970999717712402,-1.9077999591827393
1705064026895432700,65.4374326171875,0.29749998450279236,6.307799816131592,0.18709999322891235
1705064026955432700,65.4974326171875,-0.3933999836444855,0.98089998960495,1.4200999736785889
1705064027015432700,65.5574326171875,1.671199917793274,-0.6225999593734741,3.0862998962402344
1705064027075432700,65.6174326171875,3.0939998626708984,-0.7098000049591064,3.8970999717712402
1705064027135432700,65.6774326171875,3.562999963760376,-0.3682999908924103,5.125999927520752
1705064027195432700,65.7374326171875,1.4637999534606934,4.484499931335449,4.761199951171875
1705064027255432700,65.7974326171875,-1.5554999113082886,3.601300001144409,6.579599857330322
1705064027315432700,65.8574326171875,-0.34119999408721924,3.6150999069213867,2.2753000259399414
1705064027375432700,65.9174326171875,-0.34860000014305115,8.245200157165527,1.681999921798706
1705064027435432700,65.9774326171875,0.798799991607666,6.1305999755859375,0.5192999839782715
1705064027495432700,66.0374326171875,2.3492000102996826,2.777599811553955,0.8887999653816223
1705064027555432700,66.0974326171875,4.2322998046875,-0.023499999195337296,0.2613999843597412
1705064027615432700,66.1574326171875,5.640599727630615,-0.8496999740600586,-2.162899971008301
1705064027675432700,66.2174326171875,5.47599983215332,-0.5428999662399292,-3.097399950027466
1705064027735432700,66.2774326171875,4.799299716949463,3.551499843597412,-4.342299938201904
1705064027795460900,66.3374609375,4.076600074768066,0.30480000376701355,-6.711599826812744
1705064027855432700,66.3974326171875,3.432799816131592,1.5679999589920044,-4.442599773406982
1705064027915432700,66.4574326171875,1.044700026512146,6.147799968719482,-3.1661999225616455
1705064027975432700,66.5174326171875,-0.7572999596595764,5.197400093078613,-0.8237999677658081
1705064028035432700,66.5774326171875,-0.17649999260902405,2.3315000534057617,-0.2944999933242798
1705064028095432700,66.6374326171875,0.33570000529289246,-0.6259999871253967,1.4378999471664429
1705064028155432700,66.6974326171875,2.592099905014038,-0.8549999594688416,3.4139997959136963
1705064028215432700,66.7574326171875,3.295099973678589,0.375900000333786,3.696899890899658
1705064028275432700,66.8174326171875,3.097599983215332,2.115000009536743,3.5137999057769775
1705064028335432700,66.8774326171875,-0.5752999782562256,2.1364998817443848,5.8339996337890625
1705064028395432700,66.9374326171875,-0.12709999084472656,6.5706000328063965,2.70389986038208
1705064028455432700,66.9974326171875,0.2222999930381775,7.579699993133545,3.39739990234375
1705064028515432700,67.0574326171875,0.9731999635696411,6.368000030517578,1.4426000118255615
1705064028575432700,67.1174326171875,1.548799991607666,0.4973999857902527,0.6588000059127808
1705064028635432700,67.1774326171875,2.7754998207092285,-2.6377999782562256,0.5803999900817871
1705064028695432700,67.2374326171875,4.213500022888184,-2.137699842453003,-0.8765999674797058
1705064028755432700,67.2974326171875,3.80049991607666,0.5396000146865845,-3.5571999549865723
1705064028815432700,67.3574326171875,2.932799816131592,3.389899969100952,-2.763200044631958
1705064028875432700,67.4174326171875,4.385499954223633,0.8484999537467957,-4.4004998207092285
1705064028935432700,67.4774326171875,4.873600006103516,0.4869000017642975,-6.099400043487549
1705064028995432700,67.5374326171875,2.563499927520752,8.338199615478516,-3.2007999420166016
1705064029055432700,67.5974326171875,0.5746999979019165,5.847799777984619,-2.473299980163574
1705064029115432700,67.6574326171875,0.011399999260902405,1.2107999324798584,0.20069999992847443
1705064029175432700,67.7174326171875,-0.17649999260902405,-1.090499997138977,1.8106999397277832
1705064029235432700,67.7774326171875,2.5901999473571777,-0.43939998745918274,2.1958999633789062
1705064029295432700,67.8374326171875,3.0485999584198,1.1460000276565552,2.985999822616577
1705064029355432700,67.8974326171875,2.2588999271392822,3.25219988822937,5.281499862670898
1705064029415432700,67.9574326171875,-0.07229999452829361,5.299900054931641,8.79889965057373
1705064029475432700,68.0174326171875,-0.030399998649954796,5.969299793243408,8.044499397277832
1705064029535432700,68.0774326171875,0.5336999893188477,8.631599426269531,2.9268999099731445
1705064029595432700,68.1374326171875,0.597000002861023,3.36929988861084,0.924299955368042
1705064029655432700,68.1974326171875,2.745499849319458,-1.197700023651123,0.42729997634887695
1705064029715432700,68.2574326171875,3.408399820327759,-1.9852999448776245,-2.6784000396728516
1705064029775432700,68.3174326171875,1.6430999040603638,0.2696000039577484,-4.009999752044678
1705064029835432700,68.3774326171875,4.007800102233887,1.5823999643325806,-4.030600070953369
1705064029895432700,68.4374326171875,3.733299970626831,1.9347999095916748,-6.966599941253662
1705064029955432700,68.4974326171875,3.948699951171875,2.6589999198913574,-6.345799922943115
1705064030015432700,68.5574326171875,2.495699882507324,5.787899971008301,-3.1240999698638916
1705064030075432700,68.6174326171875,-0.007400000002235174,6.045899868011475,-1.0119999647140503
1705064030135432700,68.6774326171875,0.7756999731063843,2.026099920272827,-0.21899999678134918
1705064030195432700,68.7374326171875,1.3555999994277954,-0.7541999816894531,1.2770999670028687
1705064030255432700,68.7974326171875,3.4289000034332275,0.06019999831914902,2.567699909210205
1705064030315432700,68.8574326171875,4.679199695587158,2.610299825668335,2.521199941635132
1705064030375432700,68.9174326171875,2.9976999759674072,5.0376996994018555,5.704099655151367
1705064030435432700,68.9774326171875,0.9402999877929688,3.7126998901367188,8.071100234985352
1705064030495432700,69.0374326171875,0.3147999942302704,4.820099830627441,7.6514997482299805
1705064030555432700,69.0974326171875,-0.013700000010430813,8.387100219726562,1.9291999340057373
1705064030615432700,69.1574326171875,-1.3150999546051025,4.286200046539307,0.8780999779701233
1705064030675432700,69.2174326171875,1.489799976348877,-0.840399980545044,0.8596999645233154
1705064030735432700,69.2774326171875,2.8127999305725098,-1.7843999862670898,-0.6111999750137329
1705064030795432700,69.3374326171875,1.1151999235153198,1.021299958229065,-4.385900020599365
1705064030855432700,69.3974326171875,1.1171000003814697,1.1452999114990234,-3.6908998489379883
1705064030915432700,69.4574326171875,5.623300075531006,1.8763999938964844,-4.212699890136719
1705064030975432700,69.5174326171875,5.311899662017822,3.162400007247925,-6.687399864196777
1705064031035432700,69.5774326171875,4.0278000831604,5.512199878692627,-4.0725998878479
1705064031095432700,69.6374326171875,2.391199827194214,5.777899742126465,-2.5810999870300293
1705064031155432700,69.6974326171875,1.340999960899353,2.5032999515533447,-0.3271999955177307
1705064031215432700,69.7574326171875,1.0546000003814697,-0.08209999650716782,1.5368999242782593
1705064031275432700,69.8174326171875,2.6208999156951904,-0.07449999451637268,1.3234000205993652
1705064031335432700,69.8774326171875,4.021100044250488,2.66159987449646,1.7759000062942505
1705064031395432700,69.9374326171875,3.721400022506714,5.368199825286865,4.343899726867676
1705064031455432700,69.9974326171875,0.7633999586105347,3.0376999378204346,8.923099517822266
1705064031515432700,70.0574326171875,-0.11189999431371689,3.7166998386383057,6.953099727630615
1705064031575432700,70.1174326171875,0.6348999738693237,7.9940996170043945,3.2754998207092285
1705064031635432700,70.1774326171875,1.489799976348877,5.39139986038208,3.0367000102996826
1705064031695432700,70.2374326171875,1.7809998989105225,1.0095000267028809,0.29319998621940613
1705064031755432700,70.2974326171875,2.165299892425537,-0.8301999568939209,-0.6534000039100647
1705064031815432700,70.3574326171875,2.371000051498413,1.080899953842163,-2.3869998455047607
1705064031875432700,70.4174326171875,2.078700065612793,0.5482000112533569,-5.410899639129639
1705064031935432700,70.4774326171875,2.3557000160217285,3.025099992752075,-6.920199871063232
1705064031995432700,70.5374326171875,1.8804999589920044,0.16939999163150787,-7.697499752044678
1705064032055432700,70.5974326171875,2.964099884033203,1.1452999114990234,-6.838299751281738
1705064032115432700,70.6574326171875,1.6549999713897705,5.04449987411499,-3.9547998905181885
1705064032175432700,70.7174326171875,1.3331999778747559,7.609399795532227,-2.9398000240325928
1705064032235432700,70.7774326171875,0.62909996509552,5.062699794769287,0.03370000049471855
1705064032295432700,70.8374326171875,1.9573999643325806,0.47749999165534973,2.4517998695373535
1705064032355432700,70.8974326171875,3.8112998008728027,0.6024999618530273,3.898599863052368
1705064032415432700,70.9574326171875,4.951200008392334,2.644899845123291,3.5546000003814697
1705064032475432700,71.0174326171875,5.134699821472168,5.648299694061279,5.321599960327148
1705064032535432700,71.0774326171875,1.7050999402999878,5.395699977874756,7.2216997146606445
1705064032595432700,71.1374326171875,-1.5168999433517456,4.409299850463867,8.089200019836426
1705064032655432700,71.1974326171875,0.35830000042915344,6.10159969329834,0.5424999594688416
1705064032715432700,71.2574326171875,0.4315999746322632,5.668799877166748,1.1876999139785767
1705064032775432700,71.3174326171875,-0.31029999256134033,2.1506998538970947,-0.4253999888896942
1705064032835432700,71.3774326171875,1.5786999464035034,1.4190999269485474,-0.0004999999655410647
1705064032895432700,71.4374326171875,3.0993998050689697,1.8715999126434326,-2.5737998485565186
1705064032955432700,71.4974326171875,3.961099863052368,0.4194999933242798,-6.0665998458862305
1705064033015432700,71.5574326171875,3.89520001411438,2.241999864578247,-6.937899589538574
1705064033075432700,71.6174326171875,3.8232998847961426,2.6693999767303467,-6.068699836730957
1705064033135432700,71.6774326171875,3.7858998775482178,3.2064998149871826,-6.330100059509277
1705064033195432700,71.7374326171875,0.37369999289512634,6.773299694061279,-2.74399995803833
1705064033255432700,71.7974326171875,0.12879998981952667,5.382599830627441,-1.091599941253662
1705064033315432700,71.8574326171875,0.5945000052452087,1.5032999515533447,-0.07499999552965164
1705064033375432700,71.9174326171875,2.401099920272827,0.1419999897480011,0.9452999830245972
1705064033435432700,71.9774326171875,4.694999694824219,1.3916000127792358,2.4178998470306396
1705064033495432700,72.0374326171875,5.667900085449219,3.4510998725891113,3.124699831008911
1705064033555432700,72.0974326171875,4.009999752044678,5.242000102996826,5.777699947357178
1705064033615432700,72.1574326171875,2.138000011444092,3.7228000164031982,7.607399940490723
1705064033675432700,72.2174326171875,-0.43199998140335083,4.110199928283691,6.708099842071533
1705064033735432700,72.2774326171875,-0.007199999876320362,8.536099433898926,0.3578999936580658
1705064033795432700,72.3374326171875,0.3511999845504761,5.329400062561035,2.9879000186920166
1705064033855432700,72.3974326171875,0.05469999834895134,0.8557999730110168,0.07939999550580978
1705064033915432700,72.4574326171875,0.6805999875068665,-1.9886999130249023,-1.2827999591827393
1705064033975432700,72.5174326171875,1.2767000198364258,-0.49639999866485596,-4.209399700164795
1705064034035432700,72.5774326171875,-0.04490000009536743,-0.05219999700784683,-4.894999980926514
1705064034095432700,72.6374326171875,3.122299909591675,1.2347999811172485,-5.648799896240234
1705064034155432700,72.6974326171875,4.046599864959717,0.4194999933242798,-7.476999759674072
1705064034215432700,72.7574326171875,3.748699903488159,2.140899896621704,-4.55620002746582
1705064034275432700,72.8174326171875,3.9721999168395996,6.91949987411499,-3.152599811553955
1705064034335432700,72.8774326171875,1.8341999053955078,8.17140007019043,-1.500499963760376
1705064034395432700,72.9374326171875,1.215499997138977,3.206699848175049,2.7418999671936035
1705064034455432700,72.9974326171875,1.395900011062622,-0.10419999808073044,3.2542998790740967
1705064034515432700,73.0574326171875,2.566999912261963,0.07360000163316727,3.7614998817443848
1705064034575432700,73.1174326171875,3.3759000301361084,1.4989999532699585,4.2291998863220215
1705064034635432700,73.1774326171875,3.3713998794555664,1.427799940109253,5.379899978637695
1705064034695432700,73.2374326171875,1.5037999153137207,2.889699935913086,5.154099941253662
1705064034755432700,73.2974326171875,0.14729999005794525,5.741099834442139,3.009199857711792
1705064034815432700,73.3574326171875,1.348699927330017,9.52549934387207,1.931899905204773
1705064034875432700,73.4174326171875,1.1236000061035156,5.546099662780762,1.4291999340057373
1705064034935432700,73.4774326171875,1.6409000158309937,0.6216999888420105,0.6794999837875366
1705064034995432700,73.5374326171875,3.2944998741149902,-0.9429999589920044,-0.43050000071525574
1705064035055432700,73.5974326171875,3.7530999183654785,-0.05979999899864197,-2.200500011444092
1705064035115432700,73.6574326171875,3.6689000129699707,2.1224000453948975,-3.3974997997283936
1705064035175432700,73.7174326171875,5.336400032043457,2.7351999282836914,-4.702300071716309
1705064035235432700,73.7774326171875,4.501800060272217,1.7483999729156494,-6.964200019836426
1705064035295432700,73.8374326171875,3.471299886703491,1.118899941444397,-5.592899799346924
1705064035355432700,73.8974326171875,2.4544999599456787,6.211099624633789,-3.733599901199341
1705064035415432700,73.9574326171875,0.18799999356269836,7.732199668884277,-1.621999979019165
1705064035475432700,74.0174326171875,-0.43719998002052307,2.794600009918213,1.4430999755859375
1705064035535434200,74.07743432617187,0.7143999934196472,-0.2087000012397766,1.5565999746322632
1705064035595432700,74.1374326171875,2.803499937057495,1.3327000141143799,2.3966000080108643
1705064035655432700,74.1974326171875,3.359499931335449,3.7326998710632324,4.389899730682373
1705064035715432700,74.2574326171875,2.2662999629974365,3.5344998836517334,6.14169979095459
1705064035775432700,74.3174326171875,0.8244999647140503,2.311300039291382,6.384599685668945
1705064035835432700,74.3774326171875,0.47769999504089355,5.475399971008301,5.067299842834473
1705064035895432700,74.4374326171875,2.1953999996185303,8.256199836730957,3.87719988822937
1705064035955432700,74.4974326171875,1.8588999509811401,8.342599868774414,1.6025999784469604
1705064036015432700,74.5574326171875,1.3042999505996704,2.3994998931884766,0.43199998140335083
1705064036075432700,74.6174326171875,2.049099922180176,0.2628999948501587,-0.24309998750686646
1705064036135432700,74.6774326171875,2.592900037765503,2.1993000507354736,-1.9819999933242798
1705064036195432700,74.7374326171875,3.5744998455047607,2.216599941253662,-4.138299942016602
1705064036255432700,74.7974326171875,4.27209997177124,2.664799928665161,-7.072299957275391
1705064036315432700,74.8574326171875,1.9995999336242676,1.0713000297546387,-9.98009967803955
1705064036375432700,74.9174326171875,2.909799814224243,0.5437999963760376,-9.531000137329102
1705064036435432700,74.9774326171875,1.3090999126434326,4.879899978637695,-5.308099746704102
1705064036495432700,75.0374326171875,0.14219999313354492,8.294499397277832,-3.6678998470306396
1705064036555432700,75.0974326171875,0.06589999794960022,6.915299892425537,-0.9274999499320984
1705064036615432700,75.1574326171875,1.2065999507904053,3.172999858856201,1.9113999605178833
1705064036675432700,75.2174326171875,3.275099992752075,2.661099910736084,3.6820998191833496
1705064036735432700,75.2774326171875,4.653299808502197,3.599900007247925,4.157899856567383
1705064036795432700,75.3374326171875,5.40339994430542,4.733500003814697,5.6479997634887695
1705064036855432700,75.3974326171875,2.0165998935699463,3.302500009536743,8.46969985961914
1705064036915432700,75.4574326171875,0.33809998631477356,6.396999835968018,6.02679967880249
1705064036975432700,75.5174326171875,1.2958999872207642,8.923699378967285,3.7784998416900635
1705064037035432700,75.5774326171875,1.659500002861023,7.654899597167969,2.7639000415802
1705064037095432700,75.6374326171875,0.6943999528884888,2.470399856567383,0.6459999680519104
1705064037155432700,75.6974326171875,0.020499998703598976,0.17479999363422394,-2.294100046157837
1705064037215432700,75.7574326171875,1.4951999187469482,2.907599925994873,-2.1280999183654785
1705064037275432700,75.8174326171875,0.026799999177455902,1.9635999202728271,-6.777299880981445
1705064037335432700,75.8774326171875,5.079099655151367,3.0058000087738037,-6.531799793243408
1705064037395432700,75.9374326171875,3.734099864959717,0.9106999635696411,-9.295499801635742
1705064037455432700,75.9974326171875,4.9544997215271,1.9259999990463257,-8.207799911499023
1705064037515432700,76.0574326171875,3.360499858856201,4.903199672698975,-4.088500022888184
1705064037575432700,76.1174326171875,1.854200005531311,9.715399742126465,-2.498499870300293
1705064037635432700,76.1774326171875,1.055999994277954,7.013199806213379,0.553600013256073
1705064037695432700,76.2374326171875,1.771799921989441,2.6201999187469482,2.3884999752044678
1705064037755432700,76.2974326171875,3.2060999870300293,2.0358998775482178,3.7723000049591064
1705064037815432700,76.3574326171875,4.841099739074707,2.598599910736084,4.2941999435424805
1705064037875432700,76.4174326171875,4.513599872589111,4.136699676513672,6.505300045013428
1705064037935432700,76.4774326171875,0.9574999809265137,3.096099853515625,8.255399703979492
1705064037995432700,76.5374326171875,0.786899983882904,4.928699970245361,4.016900062561035
1705064038055432700,76.5974326171875,0.786899983882904,8.148900032043457,3.478299856185913
1705064038115432700,76.6574326171875,2.26639986038208,7.421499729156494,3.36329984664917
1705064038175432700,76.7174326171875,1.1546999216079712,3.021199941635132,0.33730000257492065
