time,seconds_elapsed,z,y,x
1702211348941836800,0.0508369140625,-0.2619999945163727,-0.15240000188350677,0.04969999939203262
1702211349001836800,0.1108369140625,-0.08709999918937683,-0.015099999494850636,-0.09339999407529831
1702211349061836800,0.1708369140625,-0.031099999323487282,-0.15539999306201935,-0.09319999814033508
1702211349121836800,0.2308369140625,-0.2231999933719635,-0.033399999141693115,0.0746999979019165
1702211349181836800,0.2908369140625,-0.29829999804496765,-0.07909999787807465,0.06399999558925629
1702211349241836800,0.3508369140625,-0.32659998536109924,-0.1046999990940094,-0.05859999731183052
1702211349301836800,0.4108369140625,-0.18369999527931213,-0.1889999955892563,-0.16259999573230743
1702211349361836800,0.4708369140625,-0.4050000011920929,0.3021000027656555,0.30820000171661377
1702211349421836800,0.5308369140625,-0.4204999804496765,-0.00559999980032444,0.7084999680519104
1702211349481836800,0.5908369140625,-0.4120999872684479,-0.7708999514579773,-0.5288999676704407
1702211349541836800,0.6508369140625,-0.17819999158382416,0.1152999997138977,-0.22439999878406525
1702211349601836800,0.7108369140625,0.1720999926328659,0.38499999046325684,-0.33319997787475586
1702211349661836800,0.7708369140625,-0.524399995803833,1.1585999727249146,0.20669999718666077
1702211349721836800,0.8308369140625,0.07769999653100967,-1.314099907875061,0.7015999555587769
1702211349781836800,0.8908369140625,-0.8477999567985535,1.2314000129699707,-1.497499942779541
1702211349841836800,0.9508369140625,-1.4081999063491821,0.0414000004529953,-0.41519999504089355
1702211349901836800,1.0108369140625,0.16339999437332153,-0.9866999983787537,0.15410000085830688
1702211349961836800,1.0708369140625,1.3952000141143799,1.6929999589920044,4.333699703216553
1702211350021836800,1.1308369140625,0.17180000245571136,-1.3650999069213867,0.11569999903440475
1702211350081836800,1.1908369140625,-0.013700000010430813,0.9369999766349792,-0.9733999967575073
1702211350141836800,1.2508369140625,0.7841999530792236,0.12870000302791595,1.2409999370574951
1702211350201836800,1.3108369140625,0.7569999694824219,-0.40539997816085815,0.35580000281333923
1702211350261836800,1.3708369140625,-0.015399999916553497,-0.2581999897956848,0.08720000088214874
1702211350321836800,1.4308369140625,-0.957099974155426,-0.12889999151229858,-0.2613999843597412
1702211350381836800,1.4908369140625,-1.0144000053405762,0.013799999840557575,-0.41830000281333923
1702211350441836800,1.5508369140625,-1.129699945449829,-0.21939998865127563,-0.009399999864399433
1702211350501836800,1.6108369140625,-1.2750999927520752,-0.31849998235702515,-0.11239999532699585
1702211350561836800,1.6708369140625,-0.8301999568939209,-0.4728999733924866,-0.22709999978542328
1702211350621836800,1.7308369140625,0.2766000032424927,-0.4641999900341034,-0.25519999861717224
1702211350681836800,1.7908369140625,0.3944000005722046,-0.13089999556541443,-0.28299999237060547
1702211350741836800,1.8508369140625,0.27879998087882996,-0.057999998331069946,0.11879999935626984
1702211350801836800,1.9108369140625,-0.22669999301433563,-0.15070000290870667,-0.10989999771118164
1702211350861836800,1.9708369140625,-0.23759999871253967,-0.15600000321865082,-0.2786000072956085
1702211350921836800,2.0308369140625,-0.1551000028848648,-0.14409999549388885,-0.22379998862743378
1702211350981836800,2.0908369140625,-0.14569999277591705,-0.15639999508857727,-0.010400000028312206
1702211351041836800,2.1508369140625,-0.2102999985218048,-0.19119998812675476,-0.15320000052452087
1702211351101836800,2.2108369140625,-0.26579999923706055,-0.22100000083446503,0.022699998691678047
1702211351161836800,2.2708369140625,-0.3100999891757965,-0.10599999874830246,0.0802999958395958
1702211351221836800,2.3308369140625,-0.20009998977184296,-0.19599999487400055,0.171999990940094
1702211351281836800,2.3908369140625,0.16329999268054962,-0.1224999949336052,0.18599998950958252
1702211351341836800,2.4508369140625,0.01529999915510416,0.004699999932199717,0.01599999889731407
1702211351401836800,2.5108369140625,-0.18789999186992645,-0.03949999809265137,-0.13210000097751617
1702211351461836800,2.5708369140625,-0.17180000245571136,-0.22869999706745148,-0.0502999983727932
1702211351521836800,2.6308369140625,-0.3863999843597412,-0.19139999151229858,-0.12189999967813492
1702211351581836800,2.6908369140625,-0.3279999792575836,-0.1428000032901764,0.023099999874830246
1702211351641836800,2.7508369140625,-0.29440000653266907,-0.08020000159740448,-0.07899999618530273
1702211351701836800,2.8108369140625,0.05509999766945839,-0.13329999148845673,-0.012799999676644802
1702211351761836800,2.8708369140625,-0.05159999802708626,-0.12409999966621399,0.04439999908208847
1702211351821836800,2.9308369140625,-0.33079999685287476,-0.1331000030040741,0.10659999400377274
1702211351881836800,2.9908369140625,-0.5432000160217285,-0.08969999849796295,0.04149999842047691
1702211351941836800,3.0508369140625,-0.6025999784469604,-0.18940000236034393,0.17149999737739563
1702211352001836800,3.1108369140625,-1.0507999658584595,-0.08729999512434006,0.23969998955726624
1702211352061836800,3.1708369140625,-3.9283998012542725,-0.5529999732971191,-1.1469999551773071
1702211352121836800,3.2308369140625,-7.037099838256836,-2.145699977874756,-2.41129994392395
1702211352181836800,3.2908369140625,-8.886499404907227,-4.569299697875977,-3.916299819946289
1702211352241836800,3.3508369140625,-7.056699752807617,-7.985099792480469,-4.907299995422363
1702211352301836800,3.4108369140625,-2.2726998329162598,-11.23129940032959,-4.111999988555908
1702211352361836800,3.4708369140625,0.9898999929428101,-15.63949966430664,-0.9691999554634094
1702211352421836800,3.5308369140625,-3.9069998264312744,-19.7987003326416,5.76639986038208
1702211352481836800,3.5908369140625,-3.3536999225616455,-7.950799942016602,14.598799705505371
1702211352541836800,3.6508369140625,-4.519000053405762,-7.743199825286865,5.275899887084961
1702211352601836800,3.7108369140625,-3.176800012588501,-4.250199794769287,6.026199817657471
1702211352661836800,3.7708369140625,-5.6305999755859375,-1.802899956703186,10.30009937286377
1702211352721836800,3.8308369140625,-8.560599327087402,1.2487999200820923,11.477499961853027
1702211352781836800,3.8908369140625,-11.070699691772461,3.624799966812134,10.919699668884277
1702211352841836800,3.9508369140625,-8.716400146484375,0.3669999837875366,11.645499229431152
1702211352901836800,4.0108369140625,-4.9816999435424805,-2.6967999935150146,12.59689998626709
1702211352961836800,4.0708369140625,-4.0792999267578125,-5.481800079345703,9.673699378967285
1702211353021836800,4.1308369140625,-2.473599910736084,-8.39639949798584,8.314800262451172
1702211353081836800,4.1908369140625,-0.8211999535560608,-11.639399528503418,4.3684000968933105
1702211353141836800,4.2508369140625,0.9413999915122986,-11.84939956665039,1.990399956703186
1702211353201836800,4.3108369140625,0.18310000002384186,-10.543299674987793,1.3859000205993652
1702211353261836800,4.3708369140625,-0.11409999430179596,-11.979399681091309,-1.2080999612808228
1702211353321836800,4.4308369140625,-2.741799831390381,-9.342700004577637,-4.558499813079834
1702211353381836800,4.4908369140625,-6.991299629211426,-3.794600009918213,-8.061800003051758
1702211353441836800,4.5508369140625,-5.5106000900268555,-3.0841000080108643,-10.69629955291748
1702211353501836800,4.6108369140625,-1.4211000204086304,-3.1211998462677,-10.452699661254883
1702211353561836800,4.6708369140625,1.5759999752044678,-3.817699909210205,-9.905200004577637
1702211353621836800,4.7308369140625,-0.18949998915195465,-7.215199947357178,-9.657699584960938
1702211353681836800,4.7908369140625,-1.2103999853134155,-9.735099792480469,-2.722899913787842
1702211353741836800,4.8508369140625,-0.760699987411499,-13.610199928283691,-0.877299964427948
1702211353801836800,4.9108369140625,-5.470900058746338,-17.510799407958984,4.186699867248535
1702211353861836800,4.9708369140625,-4.440899848937988,-4.425300121307373,12.425299644470215
1702211353921836800,5.0308369140625,-2.228299856185913,-2.3225998878479004,5.732399940490723
1702211353981836800,5.0908369140625,-0.4399999976158142,-1.5751999616622925,3.0867998600006104
1702211354041836800,5.1508369140625,-2.20770001411438,-0.2692999839782715,6.405699729919434
1702211354101836800,5.2108369140625,-6.688299655914307,2.4902000427246094,6.463599681854248
1702211354161836800,5.2708369140625,-10.746199607849121,1.072700023651123,6.507899761199951
1702211354221836800,5.3308369140625,-6.866799831390381,-3.0414998531341553,6.153299808502197
1702211354281836800,5.3908369140625,-2.3966000080108643,-3.0274999141693115,4.773799896240234
1702211354341836800,5.4508369140625,-1.3959999084472656,-0.7734000086784363,4.09060001373291
1702211354401836800,5.5108369140625,-0.8270999789237976,-3.321699857711792,0.27219998836517334
1702211354461836800,5.5708369140625,2.8733999729156494,-2.1450998783111572,-2.6133999824523926
1702211354521836800,5.6308369140625,4.734399795532227,-0.5184000134468079,-2.613100051879883
1702211354581836800,5.6908369140625,2.773699998855591,-1.2961000204086304,-3.5797998905181885
1702211354641836800,5.7508369140625,1.9157999753952026,-1.2876999378204346,-3.2200000286102295
1702211354701836800,5.8108369140625,2.5464999675750732,-1.055799961090088,-3.363799810409546
1702211354761836800,5.8708369140625,2.0058000087738037,-1.3514000177383423,-4.024499893188477
1702211354821836800,5.9308369140625,2.5414998531341553,-2.6248998641967773,-3.6190998554229736
1702211354881836800,5.9908369140625,-0.15410000085830688,-5.893099784851074,-1.2135999202728271
1702211354941836800,6.0508369140625,-6.277499675750732,-6.982499599456787,7.400899887084961
1702211355001836800,6.1108369140625,-2.426800012588501,-0.43039998412132263,7.672499656677246
1702211355061836800,6.1708369140625,-1.8325999975204468,1.3971999883651733,1.0429999828338623
1702211355121836800,6.2308369140625,-1.4009000062942505,4.292200088500977,-0.1770000010728836
1702211355181836800,6.2908369140625,-1.4947999715805054,4.017399787902832,-0.4763000011444092
1702211355241836800,6.3508369140625,-2.7177000045776367,1.3464999198913574,1.5648999214172363
1702211355301836800,6.4108369140625,-4.182399749755859,-0.738099992275238,4.727200031280518
1702211355361836800,6.4708369140625,-3.3524999618530273,-1.2120999097824097,4.914599895477295
1702211355421836800,6.5308369140625,-2.9951999187469482,-3.878000020980835,0.9429000020027161
1702211355481836800,6.5908369140625,-1.3590999841690063,-3.0741000175476074,-0.8597999811172485
1702211355541836800,6.6508369140625,-1.4462999105453491,-1.7376999855041504,-1.695199966430664
1702211355601836800,6.7108369140625,0.7843999862670898,-1.5267000198364258,-4.1529998779296875
1702211355661836800,6.7708369140625,3.012399911880493,-0.2304999977350235,-6.291999816894531
1702211355721836800,6.8308369140625,3.2674999237060547,0.9918999671936035,-5.174599647521973
1702211355781836800,6.8908369140625,3.3645999431610107,-0.4603999853134155,-3.0730998516082764
1702211355841836800,6.9508369140625,3.2022998332977295,-1.6766999959945679,-1.5819000005722046
1702211355901836800,7.0108369140625,1.8615999221801758,-0.2750000059604645,-0.29249998927116394
1702211355961836800,7.0708369140625,-1.1376999616622925,-1.0943000316619873,-0.19200000166893005
1702211356021836800,7.1308369140625,-1.6972999572753906,-0.25220000743865967,1.413599967956543
1702211356081836800,7.1908369140625,-3.819199800491333,-4.346399784088135,3.482800006866455
1702211356141836800,7.2508369140625,-6.2490997314453125,-2.5360000133514404,10.852999687194824
1702211356201836800,7.3108369140625,-4.794099807739258,1.0479999780654907,6.045899868011475
1702211356261836800,7.3708369140625,-3.525899887084961,0.31119999289512634,2.668599843978882
1702211356321836800,7.4308369140625,-1.3865000009536743,1.1100000143051147,2.349799871444702
1702211356381836800,7.4908369140625,-1.44569993019104,-0.19709999859333038,1.3070999383926392
1702211356441836800,7.5508369140625,-0.5029000043869019,-2.3304998874664307,0.6728000044822693
1702211356501836800,7.6108369140625,1.14329993724823,-3.6345999240875244,-0.5543999671936035
1702211356561836800,7.6708369140625,1.6447999477386475,-4.795599937438965,-2.5334999561309814
1702211356621836800,7.7308369140625,3.777899980545044,-5.062900066375732,-6.515999794006348
1702211356681836800,7.7908369140625,3.114499807357788,-5.639199733734131,-9.346799850463867
1702211356741836800,7.8508369140625,2.7015998363494873,-3.6554999351501465,-5.077699661254883
1702211356801836800,7.9108369140625,1.1358000040054321,-3.2914998531341553,-3.6290998458862305
1702211356861836800,7.9708369140625,1.7738999128341675,-4.263700008392334,-3.7921998500823975
1702211356921836800,8.0308369140625,2.524399995803833,-2.229300022125244,-0.08749999850988388
1702211356981836800,8.0908369140625,1.559999942779541,-2.360999822616577,2.303499937057495
1702211357041836800,8.1508369140625,0.7148000001907349,-1.9031999111175537,4.905900001525879
1702211357101836800,8.2108369140625,-0.7335999608039856,-1.0723999738693237,5.083600044250488
1702211357161836800,8.2708369140625,-2.3135998249053955,0.05819999799132347,4.597799777984619
1702211357221836800,8.3308369140625,-4.624899864196777,-0.02239999920129776,4.65939998626709
1702211357281836800,8.3908369140625,-5.362599849700928,0.43860000371932983,6.932799816131592
1702211357341836800,8.4508369140625,-7.708799839019775,-0.9558999538421631,9.696999549865723
1702211357401836800,8.5108369140625,-4.985300064086914,1.0455999374389648,8.827199935913086
1702211357461836800,8.5708369140625,-3.0035998821258545,-1.2755999565124512,4.2179999351501465
1702211357521836800,8.6308369140625,-2.325500011444092,-4.932499885559082,2.5467000007629395
1702211357581836800,8.6908369140625,-0.00559999980032444,-4.997399806976318,3.892899990081787
1702211357641836800,8.7508369140625,-0.08639999479055405,-8.160799980163574,0.4822999835014343
1702211357701836800,8.8108369140625,1.8664000034332275,-5.6479997634887695,-3.114300012588501
1702211357761836800,8.8708369140625,4.026199817657471,-4.4319000244140625,-10.650599479675293
1702211357821836800,8.9308369140625,2.297299861907959,-6.059799671173096,-10.791299819946289
1702211357881836800,8.9908369140625,1.8671998977661133,-2.2132999897003174,-7.496099948883057
1702211357941835300,9.050835205078124,0.8384999632835388,-7.489999771118164,-9.874699592590332
1702211358001836800,9.1108369140625,2.129499912261963,-7.854300022125244,-6.063399791717529
1702211358061836800,9.1708369140625,1.1520999670028687,-8.088299751281738,-1.9904999732971191
1702211358121836800,9.2308369140625,1.5296999216079712,-3.8541998863220215,0.9195999503135681
1702211358181836800,9.2908369140625,-0.12189999967813492,-2.585099935531616,3.371799945831299
1702211358241836800,9.3508369140625,-1.8574999570846558,-2.9134998321533203,5.924099922180176
1702211358301836800,9.4108369140625,-3.5560998916625977,-1.1722999811172485,7.646699905395508
1702211358361836800,9.4708369140625,-6.447199821472168,0.4513999819755554,6.909299850463867
1702211358421836800,9.5308369140625,-9.181699752807617,1.3398000001907349,6.3180999755859375
1702211358481836800,9.5908369140625,-8.885899543762207,0.2721000015735626,8.153599739074707
1702211358541836800,9.6508369140625,-5.654099941253662,0.696399986743927,8.91349983215332
1702211358601836800,9.7108369140625,-6.0005998611450195,-2.0348000526428223,5.272599697113037
1702211358661836800,9.7708369140625,-5.114599704742432,-6.306399822235107,5.995800018310547
1702211358721836800,9.8308369140625,-1.0663999319076538,-6.515199661254883,5.730599880218506
1702211358781836800,9.8908369140625,1.1606999635696411,-5.946699619293213,1.9164999723434448
1702211358841836800,9.9508369140625,2.6569998264312744,-6.3404998779296875,-0.7471999526023865
1702211358901836800,10.0108369140625,4.0904998779296875,-7.1489996910095215,-2.6917998790740967
1702211358961836800,10.0708369140625,4.402599811553955,-7.773900032043457,-7.388599872589111
1702211359021836800,10.1308369140625,5.582200050354004,-6.615599632263184,-9.28219985961914
1702211359081836800,10.1908369140625,3.3071999549865723,-7.549699783325195,-9.415999412536621
1702211359141836800,10.2508369140625,2.4910998344421387,-8.333399772644043,-5.725599765777588
1702211359201836800,10.3108369140625,1.6004999876022339,-8.38539981842041,-3.9470999240875244
1702211359261836800,10.3708369140625,2.4672999382019043,-5.171799659729004,-1.699299931526184
1702211359321836800,10.4308369140625,0.25110000371932983,-3.450500011444092,0.7267999649047852
1702211359381836800,10.4908369140625,-1.0506999492645264,-4.591599941253662,3.5490000247955322
1702211359441836800,10.5508369140625,-2.5009000301361084,-4.321499824523926,6.395400047302246
1702211359501836800,10.6108369140625,-4.5559000968933105,-1.4883999824523926,7.456199645996094
1702211359561836800,10.6708369140625,-6.47160005569458,-0.7123000025749207,6.77679967880249
1702211359621836800,10.7308369140625,-6.813600063323975,0.8607999682426453,8.514299392700195
1702211359681836800,10.7908369140625,-7.35189962387085,1.6837999820709229,9.572400093078613
1702211359741836800,10.8508369140625,-8.585199356079102,-1.250599980354309,7.7689995765686035
1702211359801836800,10.9108369140625,-5.577899932861328,-5.201200008392334,5.907599925994873
1702211359861836800,10.9708369140625,-1.836899995803833,-5.291999816894531,4.271299839019775
1702211359921836800,11.0308369140625,0.5708999633789062,-4.960899829864502,2.3815999031066895
1702211359981836800,11.0908369140625,1.7476999759674072,-6.597899913787842,-0.01599999889731407
1702211360041836800,11.1508369140625,3.787899971008301,-7.286200046539307,-1.1962999105453491
1702211360101836800,11.2108369140625,4.999000072479248,-7.1113996505737305,-2.434499979019165
1702211360161836800,11.2708369140625,6.160799980163574,-7.179999828338623,-8.331299781799316
1702211360221836800,11.3308369140625,4.7530999183654785,-6.252599716186523,-12.80459976196289
1702211360281836800,11.3908369140625,1.3832999467849731,-7.0269999504089355,-7.160299777984619
1702211360341836800,11.4508369140625,0.7175999879837036,-6.3003997802734375,-2.920099973678589
1702211360401836800,11.5108369140625,1.548699975013733,-6.662899971008301,-1.9809999465942383
1702211360461836800,11.5708369140625,1.8980000019073486,-4.482999801635742,1.5600999593734741
1702211360521836800,11.6308369140625,-0.08100000023841858,-2.1784000396728516,3.6043999195098877
1702211360581836800,11.6908369140625,-1.7156000137329102,-1.2285000085830688,4.745899677276611
1702211360641836800,11.7508369140625,-3.0548999309539795,-0.9129999876022339,5.909800052642822
1702211360701836800,11.8108369140625,-5.199199676513672,0.5042999982833862,6.125999927520752
1702211360761836800,11.8708369140625,-6.0630998611450195,0.4900999963283539,9.082300186157227
1702211360821836800,11.9308369140625,-6.2139997482299805,-0.12549999356269836,10.21780014038086
1702211360881836800,11.9908369140625,-4.747799873352051,-0.17899999022483826,8.226799964904785
1702211360941836800,12.0508369140625,-3.581699848175049,-3.360100030899048,6.659899711608887
1702211361001836800,12.1108369140625,-1.242900013923645,-5.286299705505371,5.258399963378906
1702211361061836800,12.1708369140625,0.9995999932289124,-4.340799808502197,2.7017998695373535
1702211361121836800,12.2308369140625,1.8288999795913696,-5.591700077056885,-0.2879999876022339
1702211361181836800,12.2908369140625,3.202199935913086,-6.094299793243408,-2.1297998428344727
1702211361241836800,12.3508369140625,4.910699844360352,-5.490599632263184,-4.327699661254883
1702211361301836800,12.4108369140625,3.8104000091552734,-7.69350004196167,-9.812799453735352
1702211361361836800,12.4708369140625,4.006700038909912,-6.851199626922607,-11.0378999710083
1702211361421836800,12.5308369140625,3.170599937438965,-4.598899841308594,-7.414700031280518
1702211361481836800,12.5908369140625,-0.3709999918937683,-8.230899810791016,-3.168799877166748
1702211361541836800,12.6508369140625,2.32099986076355,-7.805699825286865,-1.0240999460220337
1702211361601836800,12.7108369140625,2.1089999675750732,-4.946399688720703,1.542099952697754
1702211361661836800,12.7708369140625,0.1160999983549118,-2.130199909210205,3.335099935531616
1702211361721836800,12.8308369140625,-1.0814999341964722,-2.395699977874756,4.546799659729004
1702211361781836800,12.8908369140625,-2.334699869155884,-2.0092999935150146,7.058599948883057
1702211361841836800,12.9508369140625,-4.177599906921387,2.297799825668335,9.26830005645752
1702211361901836800,13.0108369140625,-7.412199974060059,2.420799970626831,8.769999504089355
1702211361961836800,13.0708369140625,-5.935699939727783,0.18389999866485596,10.005199432373047
1702211362021836800,13.1308369140625,-4.784599781036377,-0.9987999796867371,9.873000144958496
1702211362081836800,13.1908369140625,-2.723599910736084,-2.7719998359680176,5.580199718475342
1702211362141836800,13.2508369140625,-2.412299871444702,-7.041299819946289,3.708699941635132
1702211362201836800,13.3108369140625,-0.2637999951839447,-6.742300033569336,3.3107998371124268
1702211362261836800,13.3708369140625,2.5119998455047607,-5.10099983215332,0.5005999803543091
1702211362321836800,13.4308369140625,3.626699924468994,-4.060699939727783,-1.4855999946594238
1702211362381836800,13.4908369140625,3.4570999145507812,-4.090699672698975,-3.9470999240875244
1702211362441836800,13.5508369140625,5.654099941253662,-3.3267998695373535,-6.3566999435424805
1702211362501836800,13.6108369140625,4.714399814605713,-4.9990997314453125,-9.183199882507324
1702211362561836800,13.6708369140625,3.0488998889923096,-6.497099876403809,-9.182899475097656
1702211362621836800,13.7308369140625,2.444700002670288,-7.93120002746582,-5.033799648284912
1702211362681836800,13.7908369140625,0.01249999925494194,-7.265199661254883,-0.7322999835014343
1702211362741836800,13.8508369140625,0.0364999994635582,-7.078499794006348,-0.17569999396800995
1702211362801836800,13.9108369140625,1.764699935913086,-3.158900022506714,1.6098999977111816
1702211362861836800,13.9708369140625,-0.4089999794960022,-0.9254999756813049,2.815500020980835
1702211362921836800,14.0308369140625,-1.6861999034881592,-0.9444999694824219,4.777699947357178
1702211362981836800,14.0908369140625,-3.60479998588562,-0.8015999794006348,7.823099613189697
1702211363041836800,14.1508369140625,-5.71560001373291,1.7862999439239502,8.36609935760498
1702211363101836800,14.2108369140625,-6.908199787139893,2.8348000049591064,5.221999645233154
1702211363161836800,14.2708369140625,-7.039000034332275,1.063499927520752,5.335000038146973
1702211363221836800,14.3308369140625,-7.254899978637695,-1.0475000143051147,8.672699928283691
1702211363281836800,14.3908369140625,-5.583399772644043,-3.570499897003174,6.021100044250488
1702211363341836800,14.4508369140625,-3.5351998805999756,-8.025899887084961,4.946599960327148
1702211363401836800,14.5108369140625,0.6202999949455261,-5.793499946594238,3.892899990081787
1702211363461836800,14.5708369140625,0.9853000044822693,-5.285299777984619,0.7301999926567078
1702211363521836800,14.6308369140625,1.7228999137878418,-6.433199882507324,-1.875999927520752
1702211363581836800,14.6908369140625,3.2649998664855957,-5.963599681854248,-3.958899974822998
1702211363641836800,14.7508369140625,4.1855998039245605,-4.726799964904785,-7.432399749755859
1702211363701836800,14.8108369140625,2.9609999656677246,-5.6981000900268555,-8.576799392700195
1702211363761836800,14.8708369140625,3.6155998706817627,-6.220900058746338,-8.047399520874023
1702211363821836800,14.9308369140625,3.546999931335449,-7.151599884033203,-6.917599678039551
1702211363881836800,14.9908369140625,0.5568000078201294,-8.337599754333496,-6.311399936676025
1702211363941836800,15.0508369140625,-0.8145999908447266,-8.572799682617188,-3.9918999671936035
1702211364001836800,15.1108369140625,0.5691999793052673,-5.520999908447266,1.6699999570846558
1702211364061836800,15.1708369140625,-0.7055000066757202,-4.546099662780762,6.166599750518799
1702211364121836800,15.2308369140625,-1.1024999618530273,-4.191999912261963,5.731400012969971
1702211364181836800,15.2908369140625,0.3587999939918518,-2.0107998847961426,6.667399883270264
1702211364241836800,15.3508369140625,-1.9782999753952026,-1.5008000135421753,9.055500030517578
1702211364301836800,15.4108369140625,-2.4560999870300293,-0.33889999985694885,11.212900161743164
1702211364361836800,15.4708369140625,-3.808499813079834,-0.4229999780654907,8.928899765014648
1702211364421836800,15.5308369140625,-6.053599834442139,-1.187399983406067,9.390299797058105
1702211364481836800,15.5908369140625,-4.704699993133545,-3.782599925994873,5.792699813842773
1702211364541836800,15.6508369140625,-2.607599973678589,-4.235199928283691,4.114799976348877
1702211364601836800,15.7108369140625,0.7567999958992004,-4.26800012588501,2.8862998485565186
1702211364661836800,15.7708369140625,1.9667999744415283,-5.7916998863220215,0.5460999608039856
1702211364721836800,15.8308369140625,4.042200088500977,-6.207799911499023,-0.16249999403953552
1702211364781836800,15.8908369140625,6.3902997970581055,-6.199199676513672,-2.6445999145507812
1702211364841836800,15.9508369140625,6.373499870300293,-7.649299621582031,-8.587499618530273
1702211364901836800,16.0108369140625,7.6743998527526855,-7.3078999519348145,-6.4965996742248535
1702211364961836800,16.0708369140625,4.268700122833252,-6.807999610900879,-3.533799886703491
1702211365021836800,16.1308369140625,3.546799898147583,-6.9791998863220215,-2.6459999084472656
1702211365081836800,16.1908369140625,4.592299938201904,-6.791800022125244,-0.9788999557495117
1702211365141836800,16.2508369140625,0.8606999516487122,-3.8097000122070312,0.40849998593330383
1702211365201836800,16.3108369140625,-2.622799873352051,-2.640399932861328,3.5307998657226562
1702211365261836800,16.3708369140625,-3.072700023651123,-1.8019999265670776,6.494899749755859
1702211365321836800,16.4308369140625,-4.9054999351501465,-1.4011999368667603,6.877099990844727
1702211365381836800,16.4908369140625,-6.7669997215271,0.613099992275238,6.809700012207031
1702211365441836800,16.5508369140625,-7.457199573516846,1.3976999521255493,6.240499973297119
1702211365501836800,16.6108369140625,-8.863100051879883,-0.19329999387264252,5.472099781036377
1702211365561836800,16.6708369140625,-8.013599395751953,0.399399995803833,5.888299942016602
1702211365621836800,16.7308369140625,-7.186399936676025,-2.526900053024292,6.065399646759033
1702211365681836800,16.7908369140625,-5.138299942016602,-6.989099979400635,5.492799758911133
1702211365741836800,16.8508369140625,-0.8309999704360962,-6.155699729919434,3.588399887084961
1702211365801836800,16.9108369140625,1.2429999113082886,-5.381499767303467,1.2167999744415283
1702211365861836800,16.9708369140625,2.8660998344421387,-5.5548996925354,-0.48019999265670776
1702211365921836800,17.0308369140625,4.459099769592285,-6.789700031280518,-1.5291999578475952
1702211365981836800,17.0908369140625,5.746299743652344,-7.3466997146606445,-3.5627999305725098
1702211366041836800,17.1508369140625,6.309899806976318,-6.3013997077941895,-6.37999963760376
1702211366101836800,17.2108369140625,5.6616997718811035,-6.452099800109863,-8.598400115966797
1702211366161836800,17.2708369140625,1.8009999990463257,-7.599799633026123,-7.021100044250488
1702211366221836800,17.3308369140625,1.8144999742507935,-7.18649959564209,-4.868000030517578
1702211366281836800,17.3908369140625,3.037600040435791,-6.279299736022949,-1.6733999252319336
1702211366341836800,17.4508369140625,0.5593000054359436,-4.519099712371826,0.38999998569488525
1702211366401836800,17.5108369140625,-1.2613999843597412,-3.1661999225616455,2.702899932861328
1702211366461836800,17.5708369140625,-3.238600015640259,-4.349499702453613,5.127799987792969
1702211366521836800,17.6308369140625,-6.211400032043457,-1.4153000116348267,6.509599685668945
1702211366581836800,17.6908369140625,-8.188199996948242,2.6856000423431396,6.253900051116943
1702211366641836800,17.7508369140625,-9.944199562072754,2.4514999389648438,8.96780014038086
1702211366701836800,17.8108369140625,-7.467199802398682,2.0755999088287354,10.493599891662598
1702211366761836800,17.8708369140625,-6.768399715423584,-2.875,9.680399894714355
1702211366821836800,17.9308369140625,-3.1469998359680176,-7.199999809265137,7.297099590301514
1702211366881836800,17.9908369140625,0.1251000016927719,-7.394199848175049,4.6930999755859375
1702211366941836800,18.0508369140625,1.2423999309539795,-5.7941999435424805,1.680299997329712
1702211367001836800,18.1108369140625,1.8082000017166138,-6.068999767303467,-0.8725999593734741
1702211367061836800,18.1708369140625,2.9941999912261963,-5.763599872589111,-2.9004998207092285
1702211367121836800,18.2308369140625,4.474100112915039,-4.675699710845947,-7.669600009918213
1702211367181836800,18.2908369140625,3.25219988822937,-5.953000068664551,-11.896899223327637
1702211367241836800,18.3508369140625,2.6038999557495117,-4.764100074768066,-12.272199630737305
1702211367301836800,18.4108369140625,1.3858000040054321,-9.27180004119873,-7.142499923706055
1702211367361836800,18.4708369140625,1.7034999132156372,-8.610699653625488,-2.461199998855591
1702211367421836800,18.5308369140625,1.517799973487854,-7.042399883270264,0.08829999715089798
1702211367481835300,18.590835205078125,1.0584999322891235,-4.962699890136719,1.531499981880188
1702211367541836800,18.6508369140625,-1.9885998964309692,-4.192599773406982,4.361999988555908
1702211367601836800,18.7108369140625,-5.005899906158447,-1.5096999406814575,12.330199241638184
1702211367661836800,18.7708369140625,-4.280799865722656,1.0713999271392822,8.990799903869629
1702211367721836800,18.8308369140625,-6.7993998527526855,1.906499981880188,11.603300094604492
1702211367781836800,18.8908369140625,-4.193999767303467,1.0013999938964844,11.284899711608887
1702211367841836800,18.9508369140625,-4.6865997314453125,-0.10300000011920929,8.416899681091309
1702211367901836800,19.0108369140625,-4.26039981842041,-5.966000080108643,6.801300048828125
1702211367961836800,19.0708369140625,-1.8061999082565308,-8.8056001663208,5.341099739074707
1702211368021836800,19.1308369140625,0.21159999072551727,-6.42140007019043,1.911199927330017
1702211368081836800,19.1908369140625,2.5398998260498047,-5.20419979095459,-0.7138999700546265
1702211368141836800,19.2508369140625,3.047299861907959,-6.166599750518799,-3.552799940109253
1702211368201836800,19.3108369140625,4.723599910736084,-5.791899681091309,-7.560299873352051
1702211368261836800,19.3708369140625,4.7251996994018555,-7.066400051116943,-10.392600059509277
1702211368321836800,19.4308369140625,4.258399963378906,-8.385199546813965,-10.911499977111816
1702211368381836800,19.4908369140625,2.4758999347686768,-7.152599811553955,-6.023599624633789
1702211368441836800,19.5508369140625,1.434999942779541,-7.6092000007629395,-2.434799909591675
1702211368501836800,19.6108369140625,1.8767999410629272,-7.024899959564209,-0.9132999777793884
1702211368561836800,19.6708369140625,-0.3255999982357025,-5.474099636077881,2.456399917602539
1702211368621836800,19.7308369140625,-1.7339999675750732,-3.2249999046325684,6.578000068664551
1702211368681836800,19.7908369140625,-2.8148999214172363,-1.208799958229065,6.583199977874756
1702211368741836800,19.8508369140625,-4.836199760437012,0.6563999652862549,6.180999755859375
1702211368801836800,19.9108369140625,-7.634500026702881,0.5029999613761902,7.832699775695801
1702211368861836800,19.9708369140625,-5.886899948120117,1.3632999658584595,10.036499977111816
1702211368921836800,20.0308369140625,-7.4045000076293945,0.5485999584197998,8.274499893188477
1702211368981836800,20.0908369140625,-7.027899742126465,-1.4132999181747437,7.466099739074707
1702211369041836800,20.1508369140625,-4.210000038146973,-4.871500015258789,5.227099895477295
1702211369101836800,20.2108369140625,-1.4785999059677124,-5.339399814605713,3.3344998359680176
1702211369161836800,20.2708369140625,0.2240999937057495,-5.1240997314453125,2.0741000175476074
1702211369221836800,20.3308369140625,1.5037999153137207,-5.63700008392334,0.33480000495910645
1702211369281836800,20.3908369140625,2.4340999126434326,-5.495699882507324,-1.5151000022888184
1702211369341836800,20.4508369140625,3.2517998218536377,-6.223099708557129,-3.0053999423980713
1702211369401836800,20.5108369140625,5.333899974822998,-5.4344000816345215,-6.639099597930908
1702211369461836800,20.5708369140625,4.052999973297119,-5.385799884796143,-9.383399963378906
1702211369521836800,20.6308369140625,4.809899806976318,-5.322400093078613,-6.1407999992370605
1702211369581836800,20.6908369140625,4.467799663543701,-7.421299934387207,-4.711899757385254
1702211369641836800,20.7508369140625,3.589099884033203,-5.878499984741211,-2.581899881362915
1702211369701836800,20.8108369140625,1.4090999364852905,-4.464200019836426,-2.0434999465942383
1702211369761836800,20.8708369140625,-1.8575999736785889,-5.338699817657471,0.4080999791622162
1702211369821836800,20.9308369140625,-3.767699956893921,-4.094399929046631,5.513700008392334
1702211369881836800,20.9908369140625,-4.185100078582764,-1.37309992313385,4.825699806213379
1702211369941836800,21.0508369140625,-5.60890007019043,-1.098099946975708,6.242199897766113
1702211370001836800,21.1108369140625,-4.871799945831299,0.22999998927116394,9.01729965209961
1702211370061836800,21.1708369140625,-7.721599578857422,-0.04779999703168869,10.543699264526367
1702211370121836800,21.2308369140625,-6.503200054168701,0.5900999903678894,9.443299293518066
1702211370181836800,21.2908369140625,-4.211699962615967,-2.0081000328063965,5.955999851226807
1702211370241836800,21.3508369140625,-1.8447999954223633,-3.1313998699188232,3.8920998573303223
1702211370301836800,21.4108369140625,0.3452000021934509,-3.266700029373169,3.059199810028076
1702211370361836800,21.4708369140625,1.0134999752044678,-5.14709997177124,0.9898999929428101
1702211370421836800,21.5308369140625,2.333199977874756,-6.3553996086120605,0.0908999964594841
1702211370481836800,21.5908369140625,2.066499948501587,-6.832599639892578,-3.0321998596191406
1702211370541836800,21.6508369140625,2.1190998554229736,-6.787999629974365,-8.415599822998047
1702211370601836800,21.7108369140625,4.422599792480469,-4.926699638366699,-14.140799522399902
1702211370661836800,21.7708369140625,5.112099647521973,-5.698800086975098,-9.207099914550781
1702211370721836800,21.8308369140625,3.623999834060669,-9.815099716186523,-5.0894999504089355
1702211370781836800,21.8908369140625,3.9659998416900635,-8.349699974060059,-2.196699857711792
1702211370841836800,21.9508369140625,1.0815999507904053,-7.377299785614014,-0.04479999840259552
1702211370901836800,22.0108369140625,-2.6164000034332275,-6.085299968719482,5.325399875640869
1702211370961836800,22.0708369140625,-3.2057998180389404,-1.5189999341964722,9.956299781799316
1702211371021836800,22.1308369140625,-5.146100044250488,1.2831000089645386,5.191099643707275
1702211371081836800,22.1908369140625,-5.674099922180176,1.2592999935150146,7.799299716949463
1702211371141836800,22.2508369140625,-7.0640997886657715,1.1856999397277832,10.700399398803711
1702211371201836800,22.3108369140625,-6.112299919128418,2.474299907684326,7.461599826812744
1702211371261836800,22.3708369140625,-4.3043999671936035,0.12919999659061432,5.730400085449219
1702211371321836800,22.4308369140625,-3.7124998569488525,-3.467399835586548,6.349400043487549
1702211371381836800,22.4908369140625,-1.7271000146865845,-4.138700008392334,4.275099754333496
1702211371441836800,22.5508369140625,-0.08209999650716782,-3.850799798965454,2.7184998989105225
1702211371501836800,22.6108369140625,1.9178999662399292,-3.497799873352051,1.0586999654769897
1702211371561836800,22.6708369140625,3.0286998748779297,-4.637700080871582,-0.542199969291687
1702211371621836800,22.7308369140625,3.4498000144958496,-6.575699806213379,-1.3274999856948853
1702211371681836800,22.7908369140625,4.893499851226807,-7.184799671173096,-7.533799648284912
1702211371741836800,22.8508369140625,4.081399917602539,-6.123799800872803,-12.39680004119873
1702211371801836800,22.9108369140625,2.444999933242798,-5.732100009918213,-5.890399932861328
1702211371861836800,22.9708369140625,1.3322999477386475,-6.585799694061279,-3.1310999393463135
1702211371921836800,23.0308369140625,2.3439998626708984,-6.009399890899658,-1.1180000305175781
1702211371981836800,23.0908369140625,1.4006999731063843,-3.2416999340057373,1.663100004196167
1702211372041836800,23.1508369140625,-1.0356999635696411,-2.653899908065796,4.963399887084961
1702211372101836800,23.2108369140625,-2.595899820327759,-1.642799973487854,8.429100036621094
1702211372161836800,23.2708369140625,-4.152400016784668,0.767300009727478,6.888099670410156
1702211372221836800,23.3308369140625,-6.425600051879883,2.079200029373169,6.579400062561035
1702211372281835300,23.390835205078126,-7.0904998779296875,1.463499903678894,8.16100025177002
1702211372341836800,23.4508369140625,-7.173799991607666,2.4766998291015625,8.841099739074707
1702211372401836800,23.5108369140625,-7.499499797821045,-1.0379999876022339,7.816299915313721
1702211372461836800,23.5708369140625,-4.7617998123168945,-4.760200023651123,6.6006999015808105
1702211372521836800,23.6308369140625,-1.7400000095367432,-6.66949987411499,4.541999816894531
1702211372581836800,23.6908369140625,0.35850000381469727,-6.161999702453613,3.375499963760376
1702211372641836800,23.7508369140625,1.7006999254226685,-6.830199718475342,1.2860000133514404
1702211372701836800,23.8108369140625,3.672999858856201,-7.10129976272583,-0.6624000072479248
1702211372761836800,23.8708369140625,3.912099838256836,-7.052999973297119,-4.094299793243408
1702211372821836800,23.9308369140625,5.177599906921387,-6.449100017547607,-11.853499412536621
1702211372881836800,23.9908369140625,4.2652997970581055,-7.227499961853027,-11.531499862670898
1702211372941836800,24.0508369140625,1.3763999938964844,-10.0802001953125,-7.273099899291992
1702211373001836800,24.1108369140625,2.41159987449646,-9.022799491882324,-3.605599880218506
1702211373061836800,24.1708369140625,1.2760000228881836,-8.59179973602295,-2.46370005607605
1702211373121836800,24.2308369140625,0.2529999911785126,-7.084499835968018,0.20189999043941498
1702211373181836800,24.2908369140625,-1.962399959564209,-6.261899948120117,4.993099689483643
1702211373241836800,24.3508369140625,-2.9716999530792236,-3.463099956512451,10.173299789428711
1702211373301836800,24.4108369140625,-3.353299856185913,-1.8686000108718872,7.380799770355225
1702211373361836800,24.4708369140625,-3.5167999267578125,1.7529000043869019,7.670599937438965
1702211373421836800,24.5308369140625,-7.167299747467041,1.3421000242233276,9.188300132751465
1702211373481836800,24.5908369140625,-7.175099849700928,1.4616999626159668,10.72819995880127
1702211373541836800,24.6508369140625,-8.210199356079102,-0.08980000019073486,10.025899887084961
1702211373601836800,24.7108369140625,-6.75469970703125,-1.8987998962402344,6.843199729919434
1702211373661836800,24.7708369140625,-3.612799882888794,-5.621299743652344,6.0578999519348145
1702211373721836800,24.8308369140625,-1.6444000005722046,-7.420499801635742,5.218899726867676
1702211373781836800,24.8908369140625,0.5307999849319458,-7.089200019836426,2.5703999996185303
1702211373841836800,24.9508369140625,2.517699956893921,-7.5914998054504395,-0.06650000065565109
1702211373901836800,25.0108369140625,4.740299701690674,-7.561899662017822,-1.8380999565124512
1702211373961836800,25.0708369140625,6.438699722290039,-5.288399696350098,-5.3471999168396
1702211374021836800,25.1308369140625,4.30620002746582,-8.804299354553223,-9.755099296569824
1702211374081836800,25.1908369140625,5.042699813842773,-7.2652997970581055,-9.435799598693848
1702211374141836800,25.2508369140625,1.2871999740600586,-8.470600128173828,-5.968899726867676
1702211374201836800,25.3108369140625,1.1812999248504639,-7.948699951171875,-3.6313998699188232
1702211374261836800,25.3708369140625,1.3600000143051147,-4.895999908447266,-1.1316999197006226
1702211374321836800,25.4308369140625,-0.7509999871253967,-3.649899959564209,0.9584999680519104
1702211374381836800,25.4908369140625,-2.557800054550171,-3.8381998538970947,3.848099946975708
1702211374441836800,25.5508369140625,-5.901199817657471,-1.1483999490737915,4.789299964904785
1702211374501836800,25.6108369140625,-8.717299461364746,1.396799921989441,6.267499923706055
1702211374561836800,25.6708369140625,-7.995499610900879,1.6689000129699707,8.982500076293945
1702211374621836800,25.7308369140625,-7.443399906158447,2.012699842453003,8.323200225830078
1702211374681836800,25.7908369140625,-7.2581000328063965,-3.5261998176574707,12.259900093078613
1702211374741836800,25.8508369140625,-3.0261998176574707,-2.525899887084961,5.78410005569458
1702211374801836800,25.9108369140625,-2.539099931716919,-4.513400077819824,3.066699981689453
1702211374861836800,25.9708369140625,0.7044999599456787,-5.151099681854248,3.3264999389648438
1702211374921836800,26.0308369140625,1.396399974822998,-5.398799896240234,1.7002999782562256
1702211374981836800,26.0908369140625,3.022199869155884,-6.112499713897705,-0.03999999910593033
1702211375041836800,26.1508369140625,5.082699775695801,-5.983999729156494,-2.020699977874756
1702211375101836800,26.2108369140625,6.004299640655518,-4.863499641418457,-5.063899993896484
1702211375161836800,26.2708369140625,4.201299667358398,-4.695899963378906,-7.0706000328063965
1702211375221836800,26.3308369140625,2.4221999645233154,-6.586199760437012,-7.9542999267578125
1702211375281836800,26.3908369140625,1.458299994468689,-8.133299827575684,-8.718400001525879
1702211375341836800,26.4508369140625,-2.447199821472168,-6.825999736785889,-3.9427998065948486
1702211375401836800,26.5108369140625,-3.237299919128418,-5.884899616241455,-1.3643999099731445
1702211375461836800,26.5708369140625,0.26409998536109924,-3.3235998153686523,2.711699962615967
1702211375521836800,26.6308369140625,-0.6869999766349792,-1.625100016593933,4.930299758911133
1702211375581836800,26.6908369140625,-0.9914000034332275,-0.38509997725486755,4.988800048828125
1702211375641836800,26.7508369140625,-2.401700019836426,0.5618999600410461,6.291899681091309
1702211375701836800,26.8108369140625,-4.38730001449585,2.5319998264312744,10.499799728393555
1702211375761836800,26.8708369140625,-3.4265999794006348,1.7235000133514404,9.20009994506836
1702211375821836800,26.9308369140625,-2.142400026321411,-0.10329999774694443,8.28600025177002
1702211375881836800,26.9908369140625,-2.253999948501587,-1.427799940109253,6.252799987792969
1702211375941836800,27.0508369140625,-3.495499849319458,-3.3025999069213867,3.496999979019165
1702211376001836800,27.1108369140625,-3.751499891281128,-6.6026997566223145,4.194200038909912
1702211376061836800,27.1708369140625,-1.3443999290466309,-5.475399971008301,1.2451000213623047
1702211376121863400,27.230863525390625,0.9452999830245972,-2.261899948120117,-0.6667999625205994
1702211376181836800,27.2908369140625,1.5733999013900757,-2.3745999336242676,-3.068699836730957
1702211376241836800,27.3508369140625,3.3095998764038086,-3.3546998500823975,-4.9477996826171875
1702211376301836800,27.4108369140625,4.330999851226807,-3.7414000034332275,-6.254299640655518
1702211376361836800,27.4708369140625,4.5329999923706055,-4.230599880218506,-6.620599746704102
1702211376421836800,27.5308369140625,2.6798999309539795,-5.817800045013428,-6.549900054931641
1702211376481836800,27.5908369140625,2.224400043487549,-7.884099960327148,-5.622600078582764
1702211376541836800,27.6508369140625,-0.22809998691082,-5.933000087738037,-2.238600015640259
1702211376601836800,27.7108369140625,-2.9056999683380127,-5.654900074005127,1.2203999757766724
1702211376661836800,27.7708369140625,0.15349999070167542,-2.4105000495910645,5.141599655151367
1702211376721836800,27.8308369140625,-0.988099992275238,0.4537999927997589,3.9763998985290527
1702211376781836800,27.8908369140625,0.3190000057220459,0.774399995803833,3.6297998428344727
1702211376841836800,27.9508369140625,-0.9907999634742737,-0.07569999992847443,4.8059000968933105
1702211376901836800,28.0108369140625,-2.6141998767852783,1.0967999696731567,5.852399826049805
1702211376961836800,28.0708369140625,-5.321499824523926,1.1452000141143799,4.36959981918335
1702211377021836800,28.1308369140625,-5.619800090789795,1.0575000047683716,5.342400074005127
1702211377081836800,28.1908369140625,-7.195499897003174,0.03500000014901161,6.593100070953369
1702211377141836800,28.2508369140625,-7.049099922180176,-1.8662999868392944,6.8078999519348145
1702211377201836800,28.3108369140625,-4.1356000900268555,-4.273900032043457,3.850399971008301
1702211377261836800,28.3708369140625,-0.3982999920845032,-3.7221999168395996,1.4951000213623047
1702211377321836800,28.4308369140625,1.6500999927520752,-1.5745999813079834,1.014299988746643
1702211377381836800,28.4908369140625,1.719499945640564,-2.3234000205993652,0.30480000376701355
1702211377441836800,28.5508369140625,3.845399856567383,-3.719899892807007,-0.08100000023841858
1702211377501836800,28.6108369140625,4.825799942016602,-5.189499855041504,-2.039799928665161
1702211377561836800,28.6708369140625,4.9679999351501465,-5.831199645996094,-6.685299873352051
1702211377621836800,28.7308369140625,3.161799907684326,-6.3842997550964355,-8.893799781799316
1702211377681836800,28.7908369140625,1.6940999031066895,-4.411499977111816,-5.184999942779541
1702211377741836800,28.8508369140625,-0.4611999988555908,-4.465399742126465,-3.2157998085021973
1702211377801836800,28.9108369140625,0.23279999196529388,-2.9363999366760254,-2.0530998706817627
1702211377861836800,28.9708369140625,-0.16499999165534973,-0.015699999406933784,0.4878000020980835
1702211377921836800,29.0308369140625,-2.34060001373291,-0.6269999742507935,2.876199960708618
1702211377981836800,29.0908369140625,-3.1026999950408936,-0.5252999663352966,7.338299751281738
1702211378041836800,29.1508369140625,-3.0957999229431152,1.5858999490737915,5.5406999588012695
1702211378101836800,29.2108369140625,-4.601200103759766,0.010499999858438969,6.883399963378906
1702211378161836800,29.2708369140625,-3.1419999599456787,0.5453999638557434,8.531299591064453
1702211378221836800,29.3308369140625,-5.419300079345703,-0.43639999628067017,7.319799900054932
1702211378281836800,29.3908369140625,-4.1967997550964355,-4.8628997802734375,5.979499816894531
1702211378341836800,29.4508369140625,-1.493499994277954,-5.029399871826172,2.519700050354004
1702211378401836800,29.5108369140625,1.3708999156951904,-1.574199914932251,-0.5016999840736389
1702211378461836800,29.5708369140625,2.5678000450134277,-0.43549999594688416,-2.070199966430664
1702211378521836800,29.6308369140625,3.043799877166748,-1.654599905014038,-2.935999870300293
1702211378581836800,29.6908369140625,3.3427999019622803,-3.2617998123168945,-2.996799945831299
1702211378641836800,29.7508369140625,3.444899797439575,-5.308700084686279,-5.373799800872803
1702211378701836800,29.8108369140625,3.4866998195648193,-4.670799732208252,-6.835099697113037
1702211378761836800,29.8708369140625,0.9235999584197998,-6.749899864196777,-5.325099945068359
1702211378821836800,29.9308369140625,1.3006999492645264,-3.521699905395508,-1.605299949645996
1702211378881836800,29.9908369140625,-0.2710999846458435,-4.4263997077941895,-0.4235999882221222
1702211378941836800,30.0508369140625,1.5516999959945679,-1.2113999128341675,1.9169999361038208
1702211379001836800,30.1108369140625,0.35420000553131104,0.5590999722480774,4.147900104522705
1702211379061836800,30.1708369140625,0.08760000020265579,0.08320000022649765,4.905900001525879
1702211379121836800,30.2308369140625,-0.8073999881744385,-0.22909998893737793,4.817899703979492
1702211379181836800,30.2908369140625,-1.9716999530792236,1.1897000074386597,4.492099761962891
1702211379241836800,30.3508369140625,-4.3618998527526855,0.5365999937057495,4.9253997802734375
1702211379301836800,30.4108369140625,-4.664599895477295,0.8968999981880188,6.614599704742432
1702211379361836800,30.4708369140625,-6.9629998207092285,-0.5794000029563904,7.0488996505737305
1702211379421836800,30.5308369140625,-5.304500102996826,-1.990799903869629,5.9101996421813965
1702211379481836800,30.5908369140625,-3.454399824142456,-4.218199729919434,2.9460999965667725
1702211379541836800,30.6508369140625,0.5015000104904175,-2.622299909591675,1.1363999843597412
1702211379601836800,30.7108369140625,1.1124999523162842,-0.7078999876976013,0.5997999906539917
1702211379661836800,30.7708369140625,1.3097000122070312,-1.7366999387741089,0.2019999921321869
1702211379721836800,30.8308369140625,3.716899871826172,-3.5820000171661377,0.2175000011920929
1702211379781836800,30.8908369140625,4.6855998039245605,-3.302799940109253,-0.4659999907016754
1702211379841836800,30.9508369140625,5.09689998626709,-5.704799652099609,-4.372799873352051
1702211379901836800,31.0108369140625,3.9491000175476074,-7.172799587249756,-7.933099746704102
1702211379961836800,31.0708369140625,1.319599986076355,-6.071899890899658,-6.130199909210205
1702211380021836800,31.1308369140625,-0.20579999685287476,-3.932999849319458,-3.7757999897003174
1702211380081836800,31.1908369140625,0.6398999691009521,-2.5249998569488525,-2.547799825668335
1702211380141836800,31.2508369140625,1.496500015258789,-1.1545000076293945,-0.10359999537467957
1702211380201836800,31.3108369140625,0.32330000400543213,-1.4825999736785889,2.401700019836426
1702211380261836800,31.3708369140625,-0.8686999678611755,-2.1315999031066895,6.076200008392334
1702211380321836800,31.4308369140625,-0.8501999974250793,-0.41669997572898865,6.283999919891357
1702211380381836800,31.4908369140625,-1.8985999822616577,0.5855000019073486,6.447399616241455
1702211380441836800,31.5508369140625,-5.764999866485596,-0.002899999963119626,9.54259967803955
1702211380501836800,31.6108369140625,-5.068399906158447,0.022099999710917473,9.050999641418457
1702211380561836800,31.6708369140625,-4.18779993057251,1.5917999744415283,6.034299850463867
1702211380621863400,31.730863525390625,-5.245100021362305,-2.117499828338623,5.811500072479248
1702211380681836800,31.7908369140625,-1.6687999963760376,-6.245999813079834,3.5223000049591064
1702211380741836800,31.8508369140625,2.2757999897003174,-4.066199779510498,0.842799961566925
1702211380801836800,31.9108369140625,1.4392999410629272,-1.2071999311447144,0.5688999891281128
1702211380861836800,31.9708369140625,2.8824000358581543,-2.3431999683380127,-0.5546999573707581
1702211380921836800,32.0308369140625,5.696899890899658,-3.2157998085021973,-0.7120999693870544
1702211380981836800,32.0908369140625,5.862599849700928,-3.6061999797821045,-1.396799921989441
1702211381041836800,32.1508369140625,5.052000045776367,-4.949199676513672,-3.7538998126983643
1702211381101836800,32.2108369140625,4.676700115203857,-4.908699989318848,-7.095999717712402
1702211381161836800,32.2708369140625,-0.09849999845027924,-3.5902998447418213,-8.283299446105957
1702211381221836800,32.3308369140625,-2.6644999980926514,-2.658599853515625,-3.3887999057769775
1702211381281836800,32.3908369140625,-0.2782999873161316,-6.302000045776367,-1.5929999351501465
1702211381341836800,32.4508369140625,0.13359999656677246,-3.749300003051758,1.7970999479293823
1702211381401836800,32.5108369140625,-1.9737999439239502,0.1605999916791916,3.684299945831299
1702211381461836800,32.5708369140625,-1.9890999794006348,2.2839999198913574,3.859299898147583
1702211381521836800,32.6308369140625,-0.8463000059127808,0.6794999837875366,3.8086998462677
1702211381581836800,32.6908369140625,-1.8722999095916748,1.3292999267578125,4.668600082397461
1702211381641836800,32.7508369140625,-5.549799919128418,0.8830999732017517,5.564799785614014
1702211381701836800,32.8108369140625,-5.4415998458862305,-0.0867999941110611,6.423099994659424
1702211381761836800,32.8708369140625,-3.7421000003814697,-1.0219999551773071,7.002399921417236
1702211381821836800,32.9308369140625,-2.3439998626708984,0.4300999939441681,5.322700023651123
1702211381881836800,32.9908369140625,-3.3586997985839844,-3.495999813079834,5.347599983215332
1702211381941836800,33.0508369140625,-0.8258999586105347,-3.7986998558044434,4.175899982452393
1702211382001836800,33.1108369140625,0.7265999913215637,-2.1290998458862305,2.0399999618530273
1702211382061836800,33.1708369140625,1.9086999893188477,-1.7013999223709106,0.873199999332428
1702211382121836800,33.2308369140625,3.4467999935150146,-2.6152000427246094,-1.0389999151229858
1702211382181836800,33.2908369140625,4.408199787139893,-3.609999895095825,-2.3685998916625977
1702211382241836800,33.3508369140625,3.8982999324798584,-5.949699878692627,-4.439199924468994
1702211382301836800,33.4108369140625,5.101099967956543,-4.46560001373291,-7.9263997077941895
1702211382361836800,33.4708369140625,2.3416998386383057,-5.995299816131592,-7.202499866485596
1702211382421836800,33.5308369140625,-0.10679999738931656,-5.3673996925354,-3.540099859237671
1702211382481836800,33.5908369140625,-0.7274999618530273,-5.565799713134766,-1.420300006866455
1702211382541836800,33.6508369140625,1.6114999055862427,-1.397499918937683,1.3991999626159668
1702211382601836800,33.7108369140625,0.05920000001788139,-0.8797999620437622,2.7202999591827393
1702211382661836800,33.7708369140625,-0.8788999915122986,-1.9342999458312988,5.524799823760986
1702211382721836800,33.8308369140625,-2.3773000240325928,-0.23999999463558197,7.8471999168396
1702211382781836800,33.8908369140625,-5.59499979019165,0.41119998693466187,7.0478997230529785
1702211382841836800,33.9508369140625,-6.949599742889404,0.49239999055862427,6.154299736022949
1702211382901836800,34.0108369140625,-6.057499885559082,1.4132000207901,6.3343000411987305
1702211382961836800,34.0708369140625,-6.087199687957764,-0.12280000001192093,8.804499626159668
1702211383021836800,34.1308369140625,-4.74839973449707,-3.4465999603271484,8.479499816894531
1702211383081836800,34.1908369140625,-2.215399980545044,-6.269399642944336,5.630399703979492
1702211383141836800,34.2508369140625,1.17330002784729,-4.077699661254883,2.6096999645233154
1702211383201836800,34.3108369140625,1.5896999835968018,-4.917200088500977,-0.047599997371435165
1702211383261836800,34.3708369140625,3.123699903488159,-5.653299808502197,-1.320099949836731
1702211383321836800,34.4308369140625,4.493799686431885,-4.739599704742432,-2.0020999908447266
1702211383381836800,34.4908369140625,5.277499675750732,-6.126100063323975,-4.468299865722656
1702211383441836800,34.5508369140625,6.198699951171875,-5.866799831390381,-10.019800186157227
1702211383501836800,34.6108369140625,1.8671998977661133,-8.004499435424805,-11.907299995422363
1702211383561836800,34.6708369140625,-1.5442999601364136,-8.437299728393555,-5.275799751281738
1702211383621836800,34.7308369140625,-0.1639000028371811,-8.833199501037598,-2.0195999145507812
1702211383681836800,34.7908369140625,1.1345999240875244,-4.604599952697754,0.19539999961853027
1702211383741836800,34.8508369140625,-1.9042999744415283,-1.3328999280929565,1.5748999118804932
1702211383801836800,34.9108369140625,-2.1921000480651855,-2.8571999073028564,5.275899887084961
1702211383861836800,34.9708369140625,-2.7124998569488525,-2.033799886703491,9.510099411010742
1702211383921836800,35.0308369140625,-4.661600112915039,0.4187999963760376,8.762100219726562
1702211383981836800,35.0908369140625,-6.714099884033203,1.1741999387741089,9.342299461364746
1702211384041836800,35.1508369140625,-7.084499835968018,0.2786000072956085,8.28320026397705
1702211384101836800,35.2108369140625,-5.574399948120117,0.7568999528884888,7.912399768829346
1702211384161836800,35.2708369140625,-5.261099815368652,-4.293399810791016,5.49370002746582
1702211384221836800,35.3308369140625,-3.2283999919891357,-6.034800052642822,3.9323999881744385
1702211384281836800,35.3908369140625,-0.4952999949455261,-4.0341997146606445,1.5741000175476074
1702211384341836800,35.4508369140625,1.8504999876022339,-2.1723999977111816,-1.1651999950408936
1702211384401836800,35.5108369140625,3.450199842453003,-2.228800058364868,-3.7064998149871826
1702211384461836800,35.5708369140625,4.115200042724609,-4.4741997718811035,-3.9707999229431152
1702211384521836800,35.6308369140625,2.9684998989105225,-7.178299903869629,-1.6682000160217285
1702211384581836800,35.6908369140625,5.650000095367432,-4.641200065612793,-4.258899688720703
1702211384641836800,35.7508369140625,2.669999837875366,-4.547499656677246,-9.720799446105957
1702211384701836800,35.8108369140625,0.9789999723434448,-4.988100051879883,-4.646299839019775
1702211384761836800,35.8708369140625,1.006600022315979,-5.532399654388428,-2.573699951171875
1702211384821836800,35.9308369140625,2.0455000400543213,-3.43999981880188,-1.1557999849319458
1702211384881836800,35.9908369140625,1.0713999271392822,-0.3955000042915344,0.9934999942779541
1702211384941836800,36.0508369140625,-0.6579999923706055,-1.899899959564209,3.591399908065796
1702211385001836800,36.1108369140625,-1.4239000082015991,-2.8718998432159424,8.753399848937988
1702211385061836800,36.1708369140625,-2.343600034713745,1.2638999223709106,6.349099636077881
1702211385121836800,36.2308369140625,-4.588399887084961,2.6301000118255615,4.889999866485596
1702211385181836800,36.2908369140625,-6.239099979400635,1.1563999652862549,7.029899597167969
1702211385241836800,36.3508369140625,-4.725500106811523,-0.9402999877929688,8.678400039672852
1702211385301836800,36.4108369140625,-4.606599807739258,-0.989799976348877,8.590499877929688
1702211385361836800,36.4708369140625,-5.257400035858154,-5.148799896240234,7.727499961853027
1702211385421836800,36.5308369140625,-2.0414998531341553,-7.202499866485596,6.655200004577637
1702211385481836800,36.5908369140625,-0.3564999997615814,-5.082399845123291,1.765199899673462
1702211385541836800,36.6508369140625,1.1725000143051147,-3.9858999252319336,-1.3811999559402466
1702211385601836800,36.7108369140625,3.05649995803833,-4.490299701690674,-3.508699893951416
1702211385661836800,36.7708369140625,4.542799949645996,-4.580399990081787,-3.951900005340576
1702211385721836800,36.8308369140625,5.051799774169922,-5.435499668121338,-5.803899765014648
1702211385781836800,36.8908369140625,4.9691996574401855,-6.1479997634887695,-6.283799648284912
1702211385841836800,36.9508369140625,4.600899696350098,-6.158499717712402,-5.62339973449707
1702211385901836800,37.0108369140625,2.673799991607666,-7.504499912261963,-4.981599807739258
1702211385961836800,37.0708369140625,-0.8662999868392944,-6.771699905395508,-2.132200002670288
1702211386021836800,37.1308369140625,-0.5737000107765198,-4.981599807739258,0.5920999646186829
1702211386081836800,37.1908369140625,-0.5041999816894531,-2.7970998287200928,4.0329999923706055
1702211386141836800,37.2508369140625,-1.6836999654769897,-1.5651999711990356,5.898299694061279
1702211386201836800,37.3108369140625,-1.8194999694824219,-1.107100009918213,5.331199645996094
1702211386261836800,37.3708369140625,-3.1557998657226562,0.5981000065803528,5.727799892425537
1702211386321836800,37.4308369140625,-5.37999963760376,4.060100078582764,6.242300033569336
1702211386381836800,37.4908369140625,-8.906299591064453,0.9813999533653259,6.180099964141846
1702211386441836800,37.5508369140625,-5.300699710845947,-0.7962999939918518,7.612599849700928
1702211386501836800,37.6108369140625,-5.749199867248535,-1.0490999221801758,8.070300102233887
1702211386561836800,37.6708369140625,-5.210000038146973,-4.376299858093262,4.5605998039245605
1702211386621836800,37.7308369140625,-2.3564000129699707,-6.002299785614014,2.6676998138427734
1702211386681836800,37.7908369140625,0.825499951839447,-2.8992998600006104,0.33980000019073486
1702211386741836800,37.8508369140625,2.278599977493286,-1.278499960899353,-0.3840999901294708
1702211386801836800,37.9108369140625,3.298499822616577,-2.023699998855591,-1.3325999975204468
1702211386861836800,37.9708369140625,4.446899890899658,-2.8434998989105225,-1.6861999034881592
1702211386921836800,38.0308369140625,3.7154998779296875,-5.437699794769287,-2.061300039291382
1702211386981836800,38.0908369140625,2.753499984741211,-4.759999752044678,-3.2869999408721924
1702211387041836800,38.1508369140625,2.0876998901367188,-6.496999740600586,-7.174900054931641
1702211387101836800,38.2108369140625,3.1187000274658203,-2.39739990234375,-5.432199954986572
1702211387161836800,38.2708369140625,0.49570000171661377,-3.0735998153686523,-4.542299747467041
1702211387221836800,38.3308369140625,1.8661999702453613,-5.2170000076293945,-2.835899829864502
1702211387281836800,38.3908369140625,1.7019999027252197,-2.9622998237609863,2.1031999588012695
1702211387341836800,38.4508369140625,-2.4539999961853027,-1.883699893951416,7.186699867248535
1702211387401836800,38.5108369140625,-2.0292999744415283,0.2215999960899353,6.089099884033203
1702211387461836800,38.5708369140625,-0.10520000010728836,1.1043999195098877,3.087399959564209
1702211387521836800,38.6308369140625,-0.5638999938964844,-1.225600004196167,5.842799663543701
1702211387581836800,38.6908369140625,-1.9543999433517456,-2.1222000122070312,10.332599639892578
1702211387641836800,38.7508369140625,-3.369799852371216,0.31849998235702515,7.000399589538574
1702211387701836800,38.8108369140625,-4.71429967880249,1.2508000135421753,5.75439977645874
1702211387761836800,38.8708369140625,-4.219699859619141,-2.07099986076355,6.757299900054932
1702211387821836800,38.9308369140625,-1.6265000104904175,-4.220799922943115,3.9646999835968018
1702211387881836800,38.9908369140625,0.4634999930858612,-2.6503000259399414,2.216899871826172
1702211387941836800,39.0508369140625,1.4871000051498413,-0.9720999598503113,0.9754999876022339
1702211388001836800,39.1108369140625,3.396099805831909,-1.5717999935150146,-0.5704999566078186
1702211388061836800,39.1708369140625,4.7342000007629395,-2.804499864578247,-1.7857999801635742
1702211388121836800,39.2308369140625,4.967700004577637,-5.8339996337890625,-2.909299850463867
1702211388181836800,39.2908369140625,4.604099750518799,-4.530200004577637,-3.0414998531341553
1702211388241836800,39.3508369140625,1.95989990234375,-5.248499870300293,-6.7967000007629395
1702211388301836800,39.4108369140625,-0.6055999994277954,-4.503499984741211,-4.879299640655518
1702211388361836800,39.4708369140625,-0.8012999892234802,-5.063899993896484,-2.294100046157837
1702211388421836800,39.5308369140625,0.8129000067710876,-0.9889999628067017,-0.4283999800682068
1702211388481836800,39.5908369140625,0.34610000252723694,2.094599962234497,0.5891000032424927
1702211388541836800,39.6508369140625,0.4860000014305115,0.3246999979019165,1.1624000072479248
1702211388601836800,39.7108369140625,-0.003700000001117587,-2.020400047302246,3.6262998580932617
1702211388661836800,39.7708369140625,-1.507200002670288,-0.07490000128746033,6.521699905395508
1702211388721836800,39.8308369140625,-4.416999816894531,0.03819999843835831,5.410799980163574
1702211388781836800,39.8908369140625,-4.895400047302246,-0.8501999974250793,5.722899913787842
1702211388841836800,39.9508369140625,-3.990799903869629,0.0037999998312443495,7.176699638366699
1702211388901836800,40.0108369140625,-4.295599937438965,-1.208299994468689,6.745199680328369
1702211388961836800,40.0708369140625,-4.314899921417236,-2.615799903869629,5.451299667358398
1702211389021836800,40.1308369140625,-2.092900037765503,-3.0707998275756836,2.4788999557495117
1702211389081836800,40.1908369140625,0.9020999670028687,-2.6775999069213867,0.05689999833703041
1702211389141836800,40.2508369140625,1.9091999530792236,-1.8014999628067017,-0.4163999855518341
1702211389201836800,40.3108369140625,2.572499990463257,-2.100600004196167,-1.5752999782562256
1702211389261836800,40.3708369140625,4.378699779510498,-2.1166000366210938,-2.1083998680114746
1702211389321836800,40.4308369140625,4.883800029754639,-2.30649995803833,-2.972899913787842
1702211389381836800,40.4908369140625,3.628000020980835,-4.348400115966797,-4.1528000831604
1702211389441836800,40.5508369140625,1.5374000072479248,-4.850800037384033,-4.5152997970581055
1702211389501836800,40.6108369140625,-1.4067000150680542,-4.379300117492676,-5.2363996505737305
1702211389561836800,40.6708369140625,-3.301499843597412,-1.5482999086380005,-2.0070998668670654
1702211389621836800,40.7308369140625,0.4854999780654907,-1.5727999210357666,-1.3539999723434448
1702211389681836800,40.7908369140625,1.8420000076293945,0.9388999938964844,0.436599999666214
1702211389741836800,40.8508369140625,1.0981999635696411,0.2574999928474426,1.3847999572753906
1702211389801836800,40.9108369140625,-1.0312999486923218,-1.3107999563217163,3.1696999073028564
1702211389861836800,40.9708369140625,-1.9280999898910522,0.9754999876022339,3.4062998294830322
1702211389921836800,41.0308369140625,-3.2886998653411865,1.7041000127792358,2.706199884414673
1702211389981836800,41.0908369140625,-1.914199948310852,-0.00839999970048666,3.234499931335449
1702211390041836800,41.1508369140625,-4.211299896240234,-3.474599838256836,7.842399597167969
1702211390101836800,41.2108369140625,-6.83519983291626,-0.46449998021125793,13.665199279785156
1702211390161836800,41.2708369140625,-5.417500019073486,-1.5927000045776367,6.867599964141846
1702211390221836800,41.3308369140625,-2.5699000358581543,-2.6171000003814697,5.411599636077881
1702211390281836800,41.3908369140625,0.030799999833106995,-2.29259991645813,3.4347000122070312
1702211390341836800,41.4508369140625,0.17919999361038208,-3.401899814605713,0.677899956703186
1702211390401836800,41.5108369140625,1.7619999647140503,-4.9542999267578125,-0.2110999971628189
1702211390461836800,41.5708369140625,3.510699987411499,-4.389199733734131,-0.8890999555587769
1702211390521836800,41.6308369140625,3.9572999477386475,-5.246500015258789,-2.6540000438690186
1702211390581836800,41.6908369140625,5.440499782562256,-4.714999675750732,-4.870299816131592
1702211390641836800,41.7508369140625,3.933199882507324,-6.140199661254883,-13.30009937286377
1702211390701836800,41.8108369140625,0.042899999767541885,-6.054299831390381,-5.669699668884277
1702211390761836800,41.8708369140625,0.6850000023841858,-6.455899715423584,-0.7910000085830688
1702211390821836800,41.9308369140625,1.847999930381775,-3.569700002670288,-0.8965999484062195
1702211390881836800,41.9908369140625,-1.5008999109268188,0.321399986743927,-0.5457000136375427
1702211390941836800,42.0508369140625,-4.250899791717529,-0.44110000133514404,2.6582999229431152
1702211391001836800,42.1108369140625,-4.432300090789795,0.06079999729990959,7.249399662017822
1702211391061836800,42.1708369140625,-5.194999694824219,2.3835999965667725,7.876299858093262
1702211391121836800,42.2308369140625,-6.114999771118164,1.0891000032424927,6.415799617767334
1702211391181836800,42.2908369140625,-3.8461999893188477,-0.48420000076293945,6.433699607849121
1702211391241836800,42.3508369140625,-3.8464999198913574,-1.9208999872207642,6.365499973297119
1702211391301836800,42.4108369140625,-3.0730998516082764,-6.480499744415283,4.398200035095215
1702211391361836800,42.4708369140625,0.9078999757766724,-3.552500009536743,2.372799873352051
1702211391421836800,42.5308369140625,1.93559992313385,-0.5002999901771545,0.06549999862909317
1702211391481836800,42.5908369140625,1.6105999946594238,-0.2840999960899353,-1.6708999872207642
1702211391541836800,42.6508369140625,2.488800048828125,-2.247299909591675,-2.9958999156951904
1702211391601836800,42.7108369140625,2.2574000358581543,-2.2583999633789062,-5.703099727630615
1702211391661836800,42.7708369140625,1.6075999736785889,-3.7172999382019043,-6.855299949645996
1702211391721836800,42.8308369140625,1.442199945449829,-3.4328999519348145,-7.788099765777588
1702211391781836800,42.8908369140625,0.01249999925494194,-4.420199871063232,-4.334499835968018
1702211391841836800,42.9508369140625,-0.1403999924659729,-4.026400089263916,-0.8774999976158142
1702211391901836800,43.0108369140625,-0.30390000343322754,-4.719299793243408,1.1061999797821045
1702211391961836800,43.0708369140625,1.1757999658584595,0.5703999996185303,3.31499981880188
1702211392021836800,43.1308369140625,0.5792999863624573,2.120699882507324,2.584399938583374
1702211392081836800,43.1908369140625,0.3199999928474426,-0.19169999659061432,3.4208998680114746
1702211392141836800,43.2508369140625,-1.1704000234603882,0.47119998931884766,5.019899845123291
1702211392201836800,43.3108369140625,-3.2465999126434326,1.871899962425232,5.274399757385254
1702211392261836800,43.3708369140625,-3.0776000022888184,0.2611999809741974,6.051499843597412
1702211392321836800,43.4308369140625,-4.3302998542785645,-0.6205999851226807,7.64169979095459
1702211392381836800,43.4908369140625,-2.644899845123291,0.003399999812245369,5.639599800109863
1702211392441836800,43.5508369140625,-4.0991997718811035,-3.765899896621704,3.5325000286102295
1702211392501836800,43.6108369140625,-2.0170998573303223,-3.6614999771118164,1.8148999214172363
1702211392561836800,43.6708369140625,-0.2263999879360199,-0.2791999876499176,-1.1881999969482422
1702211392621836800,43.7308369140625,1.2541999816894531,0.5102999806404114,-2.271699905395508
1702211392681836800,43.7908369140625,1.6115999221801758,-0.6381999850273132,-3.034600019454956
1702211392741836800,43.8508369140625,2.164799928665161,-2.465399980545044,-2.1654999256134033
1702211392801836800,43.9108369140625,2.5491998195648193,-4.587899684906006,-1.9178999662399292
1702211392861836800,43.9708369140625,3.9477999210357666,-4.446099758148193,-4.550099849700928
1702211392921836800,44.0308369140625,2.7826998233795166,-3.028599977493286,-5.090699672698975
1702211392981836800,44.0908369140625,-0.09649999439716339,-4.355199813842773,-3.692699909210205
1702211393041836800,44.1508369140625,1.6683999300003052,-4.584499835968018,-1.4290999174118042
1702211393101836800,44.2108369140625,0.9213999509811401,-1.7905999422073364,0.03590000048279762
1702211393161836800,44.2708369140625,-0.37139999866485596,1.0379999876022339,1.7142999172210693
1702211393221836800,44.3308369140625,-1.1509000062942505,0.9402999877929688,3.9706997871398926
1702211393281836800,44.3908369140625,-2.597399950027466,0.11840000003576279,6.222599983215332
1702211393341836800,44.4508369140625,-4.685800075531006,0.9325999617576599,7.015499591827393
1702211393401836800,44.5108369140625,-6.722599983215332,-0.19139999151229858,6.171899795532227
1702211393461836800,44.5708369140625,-5.8379998207092285,0.6065999865531921,6.3531999588012695
1702211393521836800,44.6308369140625,-4.971399784088135,-0.4147000014781952,6.212299823760986
1702211393581836800,44.6908369140625,-4.228300094604492,-2.285099983215332,5.668600082397461
1702211393641836800,44.7508369140625,-2.5743000507354736,-4.422199726104736,4.005899906158447
1702211393701836800,44.8108369140625,1.3184000253677368,-3.1735999584198,2.481299877166748
1702211393761836800,44.8708369140625,1.434999942779541,-2.712899923324585,0.6710000038146973
1702211393821836800,44.9308369140625,3.247999906539917,-2.2214999198913574,-0.9939000010490417
1702211393881836800,44.9908369140625,4.357999801635742,-3.7363998889923096,-2.324699878692627
1702211393941836800,45.0508369140625,4.893499851226807,-5.791299819946289,-2.9804999828338623
1702211394001836800,45.1108369140625,5.82480001449585,-5.158899784088135,-5.478899955749512
1702211394061836800,45.1708369140625,2.2625999450683594,-5.806099891662598,-8.235799789428711
1702211394121865000,45.23086499023437,-0.020899999886751175,-5.038700103759766,-4.598999977111816
1702211394181836800,45.2908369140625,0.5741999745368958,-6.436299800872803,-2.4198999404907227
1702211394241836800,45.3508369140625,-0.46949997544288635,-4.054999828338623,0.15070000290870667
1702211394301836800,45.4108369140625,-0.9566999673843384,0.02709999866783619,2.900599956512451
1702211394361836800,45.4708369140625,-0.45350000262260437,-0.39980000257492065,6.291199684143066
1702211394421836800,45.5308369140625,-1.5738999843597412,-0.6953999996185303,7.8354997634887695
1702211394481836800,45.5908369140625,-3.2135000228881836,2.067999839782715,6.8389997482299805
1702211394541836800,45.6508369140625,-7.039499759674072,1.3003000020980835,7.29040002822876
1702211394601836800,45.7108369140625,-6.871299743652344,2.8708999156951904,8.833799362182617
1702211394661836800,45.7708369140625,-7.264999866485596,0.07800000160932541,6.7328996658325195
1702211394721836800,45.8308369140625,-5.144399642944336,-1.786199927330017,7.611299991607666
1702211394781836800,45.8908369140625,-4.644899845123291,-7.659799575805664,6.381899833679199
1702211394841836800,45.9508369140625,-0.7342000007629395,-7.175699710845947,4.870899677276611
1702211394901836800,46.0108369140625,1.8661999702453613,-4.5406999588012695,1.4280999898910522
1702211394961836800,46.0708369140625,2.5170998573303223,-4.431999683380127,-1.292199969291687
1702211395021836800,46.1308369140625,3.9225997924804688,-4.85260009765625,-3.4084999561309814
1702211395081836800,46.1908369140625,4.218800067901611,-5.240699768066406,-5.269199848175049
1702211395141836800,46.2508369140625,4.66510009765625,-5.941400051116943,-6.14109992980957
1702211395201836800,46.3108369140625,5.196599960327148,-4.737599849700928,-8.869099617004395
1702211395261836800,46.3708369140625,1.3306999206542969,-7.376299858093262,-9.190899848937988
1702211395321836800,46.4308369140625,-0.12219999730587006,-6.428999900817871,-5.666599750518799
1702211395381836800,46.4908369140625,-0.7554999589920044,-9.3818998336792,-2.8668999671936035
1702211395441836800,46.5508369140625,-0.5023999810218811,-7.0513997077941895,1.9692999124526978
1702211395501836800,46.6108369140625,-2.723599910736084,-4.108699798583984,7.34689998626709
1702211395561836800,46.6708369140625,-2.297499895095825,-2.1414999961853027,6.965299606323242
1702211395621836800,46.7308369140625,-2.68969988822937,-0.38439998030662537,7.103399753570557
1702211395681836800,46.7908369140625,-4.610099792480469,1.104099988937378,10.542099952697754
1702211395741836800,46.8508369140625,-6.8343000411987305,0.590399980545044,11.737499237060547
1702211395801836800,46.9108369140625,-6.149999618530273,-0.5189999938011169,8.658599853515625
1702211395861836800,46.9708369140625,-3.3743999004364014,-0.25929999351501465,8.632800102233887
1702211395921836800,47.0308369140625,-4.422199726104736,-5.350800037384033,7.838099956512451
1702211395981836800,47.0908369140625,-3.1782000064849854,-7.874499797821045,6.892699718475342
1702211396041836800,47.1508369140625,-0.5898000001907349,-6.1753997802734375,2.9296998977661133
1702211396101836800,47.2108369140625,1.9011999368667603,-5.352999687194824,0.22839999198913574
1702211396161836800,47.2708369140625,3.206699848175049,-5.917999744415283,-1.8937000036239624
1702211396221836800,47.3308369140625,4.703999996185303,-5.906599998474121,-3.044299840927124
1702211396281836800,47.3908369140625,5.82919979095459,-6.567899703979492,-5.547599792480469
1702211396341836800,47.4508369140625,6.521999835968018,-5.806099891662598,-8.95479965209961
1702211396401836800,47.5108369140625,4.027400016784668,-7.8441996574401855,-10.106100082397461
1702211396461836800,47.5708369140625,1.527999997138977,-8.72249984741211,-5.475100040435791
1702211396521836800,47.6308369140625,-0.5737000107765198,-9.631199836730957,-3.3694000244140625
1702211396581836800,47.6908369140625,-0.5690999627113342,-6.275199890136719,-1.1721999645233154
1702211396641836800,47.7508369140625,-2.072000026702881,-3.973599910736084,2.7094998359680176
1702211396701836800,47.8108369140625,-4.355899810791016,-2.518199920654297,6.707299709320068
1702211396761836800,47.8708369140625,-3.8177998065948486,-1.1229000091552734,8.79319953918457
1702211396821836800,47.9308369140625,-4.014100074768066,1.0098999738693237,11.3774995803833
1702211396881836800,47.9908369140625,-3.651899814605713,0.8680999875068665,12.126999855041504
1702211396941836800,48.0508369140625,-3.275399923324585,0.8605999946594238,9.377599716186523
1702211397001836800,48.1108369140625,-4.68179988861084,-0.4377000033855438,9.024700164794922
1702211397061836800,48.1708369140625,-5.335700035095215,-5.4579997062683105,7.8939995765686035
1702211397121836800,48.2308369140625,-3.3279998302459717,-9.117400169372559,5.307199954986572
1702211397181836800,48.2908369140625,0.2879999876022339,-6.308699607849121,2.095599889755249
1702211397241836800,48.3508369140625,2.0929999351501465,-4.77269983291626,-0.30079999566078186
1702211397301836800,48.4108369140625,3.289299964904785,-5.1290998458862305,-2.5680999755859375
1702211397361836800,48.4708369140625,5.132599830627441,-5.570899963378906,-4.17140007019043
1702211397421836800,48.5308369140625,6.0214996337890625,-5.884399890899658,-6.218999862670898
1702211397481836800,48.5908369140625,5.789799690246582,-6.057999610900879,-8.311599731445312
1702211397541836800,48.6508369140625,3.0932998657226562,-6.612199783325195,-9.140799522399902
1702211397601836800,48.7108369140625,-1.0638999938964844,-7.313599586486816,-6.454400062561035
1702211397661836800,48.7708369140625,-1.5156999826431274,-8.33449935913086,-2.9284000396728516
1702211397721836800,48.8308369140625,0.8141999840736389,-6.406799793243408,0.5485000014305115
1702211397781836800,48.8908369140625,-0.7787999510765076,-2.6268999576568604,3.3564999103546143
1702211397841836800,48.9508369140625,-1.0877000093460083,-1.5282999277114868,5.12470006942749
1702211397901836800,49.0108369140625,-1.3402999639511108,-1.8657000064849854,6.436899662017822
1702211397961905700,49.07090576171875,-2.5184998512268066,1.2619999647140503,9.346599578857422
1702211398021836800,49.1308369140625,-4.554599761962891,1.4706999063491821,9.627799987792969
1702211398081836800,49.1908369140625,-3.170799970626831,0.9332999587059021,8.569899559020996
1702211398141836800,49.2508369140625,-6.259899616241455,-1.7912999391555786,9.322500228881836
1702211398201836800,49.3108369140625,-5.448699951171875,-1.292699933052063,7.843799591064453
1702211398261836800,49.3708369140625,-4.135200023651123,-3.396199941635132,4.6427998542785645
1702211398321836800,49.4308369140625,-1.8097000122070312,-5.77810001373291,2.6821999549865723
1702211398381836800,49.4908369140625,0.6330999732017517,-5.069900035858154,1.503999948501587
1702211398441836800,49.5508369140625,1.7802000045776367,-5.732399940490723,-0.08810000121593475
1702211398501836800,49.6108369140625,3.9006998538970947,-5.24970006942749,-1.006600022315979
1702211398561836800,49.6708369140625,5.041599750518799,-4.95389986038208,-2.6750998497009277
1702211398621863400,49.730863525390625,5.3445000648498535,-4.3471999168396,-6.445999622344971
1702211398681836800,49.7908369140625,5.524499893188477,-4.02209997177124,-8.847799301147461
1702211398741836800,49.8508369140625,4.378799915313721,-4.494899749755859,-8.14330005645752
1702211398801836800,49.9108369140625,0.7425999641418457,-8.276000022888184,-6.063399791717529
1702211398861836800,49.9708369140625,-0.5205000042915344,-8.09850025177002,-3.371999979019165
1702211398921836800,50.0308369140625,-4.82450008392334,-8.549300193786621,0.29350000619888306
1702211398981836800,50.0908369140625,-3.483599901199341,-4.041100025177002,6.065899848937988
1702211399041836800,50.1508369140625,-2.368299961090088,-1.045300006866455,2.9539999961853027
1702211399101836800,50.2108369140625,-1.8494999408721924,0.8804000020027161,3.1956000328063965
1702211399161836800,50.2708369140625,-1.9636999368667603,0.5414000153541565,5.795599937438965
1702211399221836800,50.3308369140625,-3.733299970626831,1.239300012588501,8.869099617004395
1702211399281836800,50.3908369140625,-5.033899784088135,2.749300003051758,7.06279993057251
1702211399341836800,50.4508369140625,-6.1691999435424805,1.0339000225067139,5.866799831390381
1702211399401836800,50.5108369140625,-5.933099746704102,0.9068999886512756,7.710899829864502
1702211399461836800,50.5708369140625,-7.283499717712402,-0.8086000084877014,6.327899932861328
1702211399521836800,50.6308369140625,-6.099099636077881,-3.3622000217437744,5.974299907684326
1702211399581836800,50.6908369140625,-5.330699920654297,-7.118499755859375,4.060199737548828
1702211399641836800,50.7508369140625,-1.0981999635696411,-6.650099754333496,3.153899908065796
1702211399701836800,50.8108369140625,1.4603999853134155,-5.191799640655518,1.090499997138977
1702211399761836800,50.8708369140625,3.1833999156951904,-5.587100028991699,-0.8374999761581421
1702211399821836800,50.9308369140625,5.180799961090088,-4.753999710083008,-2.697700023651123
1702211399881836800,50.9908369140625,4.659599781036377,-4.640899658203125,-4.636099815368652
1702211399941836800,51.0508369140625,5.126800060272217,-5.088099956512451,-4.6946001052856445
1702211400001836800,51.1108369140625,5.490999698638916,-5.34559965133667,-4.648499965667725
1702211400061836800,51.1708369140625,5.378900051116943,-6.1092000007629395,-5.4014997482299805
1702211400121836800,51.2308369140625,3.36929988861084,-6.340799808502197,-3.7774999141693115
1702211400181836800,51.2908369140625,1.2142999172210693,-6.820099830627441,-1.7791999578475952
1702211400241836800,51.3508369140625,0.7264999747276306,-4.705499649047852,0.016200000420212746
1702211400301836800,51.4108369140625,-0.9014999866485596,-4.3333001136779785,2.720099925994873
1702211400361836800,51.4708369140625,-3.6389999389648438,-4.321199893951416,6.662799835205078
1702211400421836800,51.5308369140625,-6.422699928283691,-1.3519999980926514,6.678799629211426
1702211400481836800,51.5908369140625,-8.147299766540527,0.9246999621391296,5.8592000007629395
1702211400541836800,51.6508369140625,-8.751599311828613,1.2666999101638794,7.36359977722168
1702211400601836800,51.7108369140625,-7.860699653625488,0.927299976348877,7.064399719238281
1702211400661836800,51.7708369140625,-8.101200103759766,0.36559998989105225,9.038999557495117
1702211400721836800,51.8308369140625,-7.024399757385254,-3.548799991607666,8.054999351501465
1702211400781836800,51.8908369140625,-3.7961997985839844,-6.512599945068359,6.480599880218506
1702211400841836800,51.9508369140625,-0.45479997992515564,-5.359699726104736,3.9557998180389404
1702211400901836800,52.0108369140625,0.37109997868537903,-5.8125996589660645,0.7525999546051025
1702211400961836800,52.0708369140625,1.7374999523162842,-6.489899635314941,-1.6460999250411987
1702211401021836800,52.1308369140625,3.509899854660034,-5.817899703979492,-3.7617998123168945
1702211401081836800,52.1908369140625,4.341799736022949,-6.44219970703125,-7.241499900817871
1702211401141836800,52.2508369140625,4.757199764251709,-5.55519962310791,-6.819299697875977
1702211401201836800,52.3108369140625,3.7936999797821045,-7.475299835205078,-7.727999687194824
1702211401261836800,52.3708369140625,3.103099822998047,-6.8105998039245605,-6.633899688720703
1702211401321836800,52.4308369140625,1.8015999794006348,-8.60949993133545,-6.3242998123168945
1702211401381836800,52.4908369140625,1.6513999700546265,-7.363399982452393,-3.0532000064849854
1702211401441836800,52.5508369140625,-1.3768999576568604,-6.762899875640869,1.9785999059677124
1702211401501836800,52.6108369140625,-1.490899920463562,-4.182199954986572,10.228499412536621
1702211401561836800,52.6708369140625,-3.6313998699188232,-2.828199863433838,6.085399627685547
1702211401621836800,52.7308369140625,-1.7985999584197998,-0.7888999581336975,5.183300018310547
1702211401681836800,52.7908369140625,-4.547999858856201,0.2728999853134155,5.811699867248535
1702211401741836800,52.8508369140625,-8.16349983215332,0.5351999998092651,7.636499881744385
1702211401801836800,52.9108369140625,-9.299599647521973,1.319599986076355,6.854099750518799
1702211401861836800,52.9708369140625,-11.06190013885498,-0.22059999406337738,8.257299423217773
1702211401921836800,53.0308369140625,-8.250800132751465,-2.856299877166748,6.637099742889404
1702211401981836800,53.0908369140625,-4.994800090789795,-5.002199649810791,5.388700008392334
1702211402041836800,53.1508369140625,-1.3589999675750732,-4.9344000816345215,4.291399955749512
1702211402101836800,53.2108369140625,0.3220999836921692,-5.590099811553955,1.6757999658584595
1702211402161836800,53.2708369140625,2.426100015640259,-6.640500068664551,0.22269999980926514
1702211402221836800,53.3308369140625,4.349499702453613,-6.388099670410156,-1.2382999658584595
1702211402281836800,53.3908369140625,5.426599979400635,-7.841699600219727,-5.730599880218506
1702211402341836800,53.4508369140625,6.953999996185303,-5.740099906921387,-6.662999629974365
1702211402401836800,53.5108369140625,4.762700080871582,-6.1591997146606445,-7.294899940490723
1702211402461836800,53.5708369140625,3.0600998401641846,-5.717299938201904,-3.493299961090088
1702211402521836800,53.6308369140625,2.962399959564209,-6.236000061035156,-3.512199878692627
1702211402581836800,53.6908369140625,2.132999897003174,-4.102099895477295,-0.6818000078201294
1702211402641836800,53.7508369140625,0.35420000553131104,-2.2851998805999756,1.2009999752044678
1702211402701836800,53.8108369140625,-1.5245000123977661,-2.197399854660034,2.8439998626708984
1702211402761836800,53.8708369140625,-4.145199775695801,-2.016700029373169,4.855499744415283
1702211402821836800,53.9308369140625,-6.897199630737305,-0.8077999949455261,5.782299995422363
1702211402881836800,53.9908369140625,-8.316299438476562,0.01809999905526638,8.220199584960938
1702211402941836800,54.0508369140625,-8.145899772644043,0.07779999822378159,6.919600009918213
1702211403001836800,54.1108369140625,-9.097999572753906,0.6080999970436096,8.28969955444336
1702211403061836800,54.1708369140625,-8.256400108337402,0.5023999810218811,6.474400043487549
1702211403121836800,54.2308369140625,-4.565099716186523,-3.19789981842041,5.787899971008301
1702211403181836800,54.2908369140625,-1.1072999238967896,-4.653800010681152,3.7769999504089355
1702211403241836800,54.3508369140625,1.1955000162124634,-3.3586997985839844,2.3852999210357666
1702211403301836800,54.4108369140625,2.5715999603271484,-4.905900001525879,0.48510000109672546
1702211403361836800,54.4708369140625,4.804199695587158,-5.060400009155273,-0.369299978017807
1702211403421836800,54.5308369140625,4.023499965667725,-4.569399833679199,-3.8557000160217285
1702211403481836800,54.5908369140625,3.691499948501587,-5.198800086975098,-6.308300018310547
1702211403541836800,54.6508369140625,4.079599857330322,-4.851900100708008,-8.482699394226074
1702211403601836800,54.7108369140625,1.7130999565124512,-5.722399711608887,-6.788300037384033
1702211403661836800,54.7708369140625,-0.2368999868631363,-6.346799850463867,-4.68179988861084
1702211403721836800,54.8308369140625,1.6590999364852905,-5.633499622344971,-2.1255998611450195
1702211403781836800,54.8908369140625,0.7736999988555908,-4.193999767303467,-1.2142999172210693
1702211403841836800,54.9508369140625,-0.8224999904632568,-2.283599853515625,1.6222999095916748
1702211403901836800,55.0108369140625,-2.2159998416900635,-2.5815000534057617,4.938600063323975
1702211403961836800,55.0708369140625,-3.638399839401245,-1.0068999528884888,7.56719970703125
1702211404021836800,55.1308369140625,-5.00469970703125,0.9354999661445618,6.646999835968018
1702211404081836800,55.1908369140625,-5.12369966506958,-0.5523999929428101,8.604000091552734
1702211404141836800,55.2508369140625,-4.361599922180176,0.10099999606609344,10.62720012664795
1702211404201836800,55.3108369140625,-6.387099742889404,1.1025999784469604,8.8548002243042
1702211404261836800,55.3708369140625,-6.617599964141846,-2.3718998432159424,8.566299438476562
1702211404321836800,55.4308369140625,-3.588599920272827,-3.982100009918213,5.475100040435791
1702211404381836800,55.4908369140625,-1.083400011062622,-2.8260998725891113,3.3085999488830566
1702211404441836800,55.5508369140625,0.25669997930526733,-3.3046000003814697,1.7185999155044556
1702211404501836800,55.6108369140625,1.8220999240875244,-5.119199752807617,0.779699981212616
1702211404561836800,55.6708369140625,2.554499864578247,-8.037699699401855,-0.07349999994039536
1702211404621836800,55.7308369140625,4.826499938964844,-7.321399688720703,-6.382400035858154
1702211404681836800,55.7908369140625,3.8317999839782715,-6.40369987487793,-13.34179973602295
1702211404741836800,55.8508369140625,4.1778998374938965,-6.901000022888184,-8.186800003051758
1702211404801836800,55.9108369140625,2.6514999866485596,-5.69219970703125,-2.734099864959717
1702211404861836800,55.9708369140625,2.312299966812134,-2.805299997329712,-0.5054000020027161
1702211404921836800,56.0308369140625,1.0885999202728271,-1.3228999376296997,1.2933999300003052
1702211404981836800,56.0908369140625,-2.8351998329162598,-1.4767999649047852,2.8559999465942383
1702211405041836800,56.1508369140625,-5.408899784088135,0.39569997787475586,3.676999807357788
1702211405101836800,56.2108369140625,-9.106999397277832,1.6750999689102173,3.0764999389648438
1702211405161836800,56.2708369140625,-11.19629955291748,2.5924999713897705,8.419599533081055
1702211405221836800,56.3308369140625,-11.097199440002441,1.7177000045776367,8.376099586486816
1702211405281836800,56.3908369140625,-8.33169937133789,-2.2295000553131104,8.034799575805664
1702211405341836800,56.4508369140625,-3.1640000343322754,-6.168999671936035,7.838699817657471
1702211405401836800,56.5108369140625,-0.33399999141693115,-5.773599624633789,3.494799852371216
1702211405461836800,56.5708369140625,0.19679999351501465,-4.473299980163574,-0.01899999938905239
1702211405521836800,56.6308369140625,1.3172999620437622,-5.645099639892578,-2.6720998287200928
1702211405581836800,56.6908369140625,2.1720998287200928,-5.572199821472168,-4.1215996742248535
1702211405641836800,56.7508369140625,3.2871999740600586,-6.194900035858154,-6.306299686431885
1702211405701836800,56.8108369140625,4.786200046539307,-6.644999980926514,-9.40530014038086
1702211405761836800,56.8708369140625,4.279799938201904,-8.246899604797363,-9.20989990234375
1702211405821836800,56.9308369140625,2.5127999782562256,-7.420499801635742,-6.1798996925354
1702211405881836800,56.9908369140625,-0.05329999700188637,-7.224099636077881,-4.4475998878479
1702211405941836800,57.0508369140625,1.892799973487854,-6.934799671173096,-1.6698999404907227
1702211406001836800,57.1108369140625,-0.04649999737739563,-6.666999816894531,2.0551998615264893
1702211406061836800,57.1708369140625,-3.1519999504089355,-4.597300052642822,8.497099876403809
1702211406121836800,57.2308369140625,-3.3481998443603516,-1.5508999824523926,6.225800037384033
1702211406181836800,57.2908369140625,-4.630499839782715,0.7389999628067017,8.157299995422363
1702211406241836800,57.3508369140625,-4.147599697113037,0.3174999952316284,11.49739933013916
1702211406301836800,57.4108369140625,-2.454900026321411,1.014299988746643,9.826399803161621
1702211406361836800,57.4708369140625,-3.382200002670288,1.9965999126434326,11.298799514770508
1702211406421836800,57.5308369140625,-4.862099647521973,-3.606099843978882,8.718999862670898
1702211406481836800,57.5908369140625,-2.1442999839782715,-4.825999736785889,5.29040002822876
1702211406541836800,57.6508369140625,-0.35349997878074646,-3.3666999340057373,1.8931999206542969
1702211406601836800,57.7108369140625,0.7464999556541443,-3.568499803543091,0.15789999067783356
1702211406661836800,57.7708369140625,1.9210999011993408,-4.322000026702881,0.22989998757839203
1702211406721836800,57.8308369140625,1.5096999406814575,-3.338099956512451,-1.3715999126434326
1702211406781836800,57.8908369140625,1.545199990272522,-6.736999988555908,-4.570099830627441
1702211406841836800,57.9508369140625,4.7617998123168945,-5.5102996826171875,-11.7947998046875
1702211406901836800,58.0108369140625,2.306299924850464,-7.565299987792969,-11.014100074768066
1702211406961836800,58.0708369140625,2.635999917984009,-7.067699909210205,-5.134900093078613
1702211407021836800,58.1308369140625,2.1331000328063965,-6.419099807739258,-1.361199975013733
1702211407081836800,58.1908369140625,2.4335999488830566,-4.7042999267578125,-0.45089998841285706
1702211407141836800,58.2508369140625,0.12529999017715454,-3.380199909210205,1.744399905204773
1702211407201836800,58.3108369140625,-2.188499927520752,-2.430500030517578,6.057199954986572
1702211407261836800,58.3708369140625,-5.114999771118164,-0.17000000178813934,7.729799747467041
1702211407321836800,58.4308369140625,-7.668999671936035,1.8633999824523926,6.188600063323975
1702211407381836800,58.4908369140625,-6.063199996948242,1.5579999685287476,9.123600006103516
1702211407441836800,58.5508369140625,-5.918600082397461,1.4829999208450317,8.584699630737305
1702211407501836800,58.6108369140625,-5.452600002288818,0.4811999797821045,8.81089973449707
1702211407561836800,58.6708369140625,-5.627199649810791,-3.9998998641967773,9.103499412536621
1702211407621836800,58.7308369140625,-2.6145999431610107,-5.868199825286865,5.990699768066406
1702211407681836800,58.7908369140625,-0.3734999895095825,-3.9794998168945312,2.690999984741211
1702211407741836800,58.8508369140625,1.2486000061035156,-4.580199718475342,-0.012000000104308128
1702211407801836800,58.9108369140625,3.117499828338623,-6.055699825286865,-1.7002999782562256
1702211407861836800,58.9708369140625,3.96809983253479,-5.875199794769287,-3.10509991645813
1702211407921836800,59.0308369140625,4.4853997230529785,-6.2256999015808105,-6.219699859619141
1702211407981836800,59.0908369140625,4.527499675750732,-5.826200008392334,-9.716300010681152
1702211408041836800,59.1508369140625,2.2669999599456787,-5.622499942779541,-9.2524995803833
1702211408101836800,59.2108369140625,1.010699987411499,-5.835099697113037,-4.3059000968933105
1702211408161836800,59.2708369140625,1.260599970817566,-6.744799613952637,-1.7383999824523926
1702211408221836800,59.3308369140625,1.7042999267578125,-4.9903998374938965,0.6171999573707581
1702211408281836800,59.3908369140625,-0.8837999701499939,-3.8310999870300293,2.4539999961853027
1702211408341836800,59.4508369140625,-1.9095999002456665,-2.843899965286255,4.660599708557129
1702211408401836800,59.5108369140625,-3.6496999263763428,-0.8198999762535095,7.369999885559082
1702211408461836800,59.5708369140625,-5.236199855804443,1.8449000120162964,9.45930004119873
1702211408521836800,59.6308369140625,-5.433300018310547,1.6506999731063843,10.965799331665039
1702211408581836800,59.6908369140625,-5.519999980926514,0.9372999668121338,9.842000007629395
1702211408641836800,59.7508369140625,-5.255399703979492,-0.23269999027252197,11.134900093078613
1702211408701836800,59.8108369140625,-3.8729000091552734,-1.9541999101638794,7.41349983215332
1702211408761836800,59.8708369140625,-1.771399974822998,-5.471499919891357,5.612299919128418
1702211408821836800,59.9308369140625,0.3889999985694885,-4.718100070953369,3.1322999000549316
1702211408881836800,59.9908369140625,1.132099986076355,-4.742300033569336,1.6140999794006348
1702211408941836800,60.0508369140625,3.2293999195098877,-6.051199913024902,0.6924999952316284
1702211409001836800,60.1108369140625,4.336699962615967,-6.308499813079834,-0.9109999537467957
1702211409061836800,60.1708369140625,5.822700023651123,-6.86299991607666,-7.4878997802734375
1702211409121836800,60.2308369140625,4.620599746704102,-5.889400005340576,-12.645599365234375
1702211409181836800,60.2908369140625,0.21059998869895935,-8.404899597167969,-10.716300010681152
1702211409241836800,60.3508369140625,1.5866999626159668,-6.530200004577637,-4.899600028991699
1702211409301836800,60.4108369140625,-0.2590000033378601,-7.127399921417236,-1.742799997329712
1702211409361836800,60.4708369140625,0.17759999632835388,-6.135499954223633,0.8988999724388123
1702211409421836800,60.5308369140625,-1.3136999607086182,-3.9602999687194824,4.002099990844727
1702211409481836800,60.5908369140625,-3.546599864959717,-1.4011999368667603,6.432299613952637
1702211409541836800,60.6508369140625,-7.369899749755859,0.9018999934196472,8.510199546813965
1702211409601836800,60.7108369140625,-7.72790002822876,2.22189998626709,9.42509937286377
1702211409661836800,60.7708369140625,-4.908699989318848,2.3076000213623047,8.085100173950195
1702211409721836800,60.8308369140625,-2.2948999404907227,2.1180999279022217,7.7403998374938965
1702211409781836800,60.8908369140625,-3.8585000038146973,0.3163999915122986,10.266499519348145
1702211409841836800,60.9508369140625,-4.093299865722656,-4.962399959564209,10.153999328613281
1702211409901836800,61.0108369140625,-1.8187999725341797,-6.969399929046631,5.032700061798096
1702211409961836800,61.0708369140625,1.1583999395370483,-3.3808000087738037,1.7943999767303467
1702211410021836800,61.1308369140625,1.0530999898910522,-3.5921998023986816,-0.4601999819278717
1702211410081836800,61.1908369140625,1.5792999267578125,-6.6717000007629395,-1.7289999723434448
1702211410141836800,61.2508369140625,3.2897000312805176,-7.2353997230529785,-5.276199817657471
1702211410201836800,61.3108369140625,2.8890998363494873,-7.080100059509277,-13.265299797058105
1702211410261836800,61.3708369140625,1.281599998474121,-6.561100006103516,-12.684100151062012
1702211410321836800,61.4308369140625,0.9833999872207642,-6.765499591827393,-5.817999839782715
1702211410381836800,61.4908369140625,0.7811999917030334,-6.530299663543701,-1.9026999473571777
1702211410441836800,61.5508369140625,1.2738999128341675,-5.144899845123291,-0.3653999865055084
1702211410501836800,61.6108369140625,-0.4025000035762787,-2.3660998344421387,1.6933999061584473
1702211410561836800,61.6708369140625,-3.3651998043060303,-1.0662999153137207,6.171499729156494
1702211410621836800,61.7308369140625,-4.848599910736084,0.6628999710083008,7.813199996948242
1702211410681836800,61.7908369140625,-5.93589973449707,2.15559983253479,7.405200004577637
1702211410741836800,61.8508369140625,-4.471499919891357,0.8637999892234802,10.863299369812012
1702211410801836800,61.9108369140625,-4.334700107574463,0.8125999569892883,9.476799964904785
1702211410861836800,61.9708369140625,-3.679299831390381,-0.2750999927520752,8.008999824523926
1702211410921836800,62.0308369140625,-2.8820998668670654,-4.966000080108643,7.771699905395508
1702211410981836800,62.0908369140625,-0.6520000100135803,-5.166299819946289,4.860599994659424
1702211411041836800,62.1508369140625,0.7601999640464783,-3.2321999073028564,1.4507999420166016
1702211411101836800,62.2108369140625,2.929499864578247,-3.981099843978882,-0.3888999819755554
1702211411161836800,62.2708369140625,3.088099956512451,-4.9014997482299805,-2.375499963760376
1702211411221836800,62.3308369140625,4.513299942016602,-5.778500080108643,-5.5046000480651855
1702211411281836800,62.3908369140625,4.716399669647217,-6.133499622344971,-9.816399574279785
1702211411341836800,62.4508369140625,2.401700019836426,-7.959499835968018,-11.414400100708008
1702211411401836800,62.5108369140625,-0.23809999227523804,-8.269800186157227,-6.0802998542785645
1702211411461836800,62.5708369140625,0.2621999979019165,-6.714699745178223,-2.4270999431610107
1702211411521836800,62.6308369140625,1.8001999855041504,-4.627799987792969,-0.7732999920845032
1702211411581836800,62.6908369140625,0.6699999570846558,-2.6891000270843506,1.3020999431610107
1702211411641836800,62.7508369140625,0.5532000064849854,-3.2894999980926514,5.545899868011475
1702211411701836800,62.8108369140625,-0.4927999973297119,-1.1979999542236328,9.464499473571777
1702211411761836800,62.8708369140625,-3.9014999866485596,1.59089994430542,10.953499794006348
1702211411821836800,62.9308369140625,-7.408299922943115,1.431899905204773,10.413399696350098
1702211411881836800,62.9908369140625,-7.198699951171875,-0.23389999568462372,10.61829948425293
1702211411941836800,63.0508369140625,-5.716599941253662,-0.8626999855041504,8.090099334716797
1702211412001836800,63.1108369140625,-6.451299667358398,-1.9359999895095825,5.006999969482422
1702211412061836800,63.1708369140625,-4.134500026702881,-4.974999904632568,4.1697998046875
1702211412121836800,63.2308369140625,-0.8554999828338623,-5.716300010681152,2.5662999153137207
1702211412181836800,63.2908369140625,1.1159999370574951,-6.240900039672852,0.15049999952316284
1702211412241836800,63.3508369140625,3.1401000022888184,-6.6194000244140625,-1.574299931526184
1702211412301836800,63.4108369140625,5.30019998550415,-5.710799694061279,-8.557000160217285
1702211412361836800,63.4708369140625,3.8307998180389404,-6.853999614715576,-14.474599838256836
1702211412421836800,63.5308369140625,4.428299903869629,-8.364799499511719,-10.256799697875977
1702211412481836800,63.5908369140625,2.544299840927124,-8.787400245666504,-4.779599666595459
1702211412541836800,63.6508369140625,-0.00029999998514540493,-7.64769983291626,0.2839999794960022
1702211412601836800,63.7108369140625,0.15529999136924744,-5.027400016784668,1.7130999565124512
1702211412661836800,63.7708369140625,-1.521799921989441,-3.427799940109253,1.7091000080108643
1702211412721836800,63.8308369140625,-3.748499870300293,-0.37199997901916504,6.167999744415283
1702211412781836800,63.8908369140625,-5.025300025939941,2.3339998722076416,7.899499893188477
1702211412841836800,63.9508369140625,-5.102799892425537,4.16409969329834,7.963799953460693
1702211412901836800,64.0108369140625,-6.886600017547607,2.1854000091552734,9.90619945526123
1702211412961836800,64.0708369140625,-5.643799781799316,1.3005999326705933,8.164999961853027
1702211413021836800,64.1308369140625,-6.082599639892578,-1.0631999969482422,9.215700149536133
1702211413081836800,64.1908369140625,-5.881899833679199,-3.4363999366760254,6.688799858093262
1702211413141836800,64.2508369140625,-2.8404998779296875,-5.308199882507324,4.340399742126465
1702211413201836800,64.3108369140625,1.261299967765808,-5.568599700927734,1.61489999294281
1702211413261836800,64.3708369140625,1.2889000177383423,-4.082299709320068,-0.9140999913215637
1702211413321836800,64.4308369140625,1.9643999338150024,-4.352999687194824,-2.922799825668335
1702211413381836800,64.4908369140625,4.79640007019043,-3.59689998626709,-8.939799308776855
1702211413441836800,64.5508369140625,4.201999664306641,-5.659800052642822,-10.537099838256836
1702211413501836800,64.6108369140625,3.190999984741211,-7.078799724578857,-7.467599868774414
1702211413561836800,64.6708369140625,1.148800015449524,-6.858999729156494,-4.672699928283691
1702211413621836800,64.7308369140625,1.133099913597107,-7.034899711608887,-2.2518999576568604
1702211413681836800,64.7908369140625,0.44519999623298645,-5.950599670410156,1.0745999813079834
1702211413741836800,64.8508369140625,0.6814999580383301,-2.9803998470306396,2.9358999729156494
1702211413801836800,64.9108369140625,-0.4185999929904938,-1.2309999465942383,3.3827998638153076
1702211413861836800,64.9708369140625,-2.5197999477386475,0.012299999594688416,5.80649995803833
1702211413921836800,65.0308369140625,-4.567899703979492,1.7106999158859253,9.8996000289917
1702211413981836800,65.0908369140625,-5.6717000007629395,2.5125999450683594,9.95199966430664
1702211414041836800,65.1508369140625,-3.606299877166748,1.6346999406814575,11.419899940490723
1702211414101836800,65.2108369140625,-5.065499782562256,0.1979999989271164,8.6697998046875
1702211414161836800,65.2708369140625,-4.59529972076416,-1.5555999279022217,8.557199478149414
1702211414221836800,65.3308369140625,-4.8394999504089355,-6.134599685668945,7.461899757385254
1702211414281836800,65.3908369140625,-1.6625999212265015,-6.387199878692627,3.5160999298095703
1702211414341836800,65.4508369140625,-0.8865000009536743,-3.9428999423980713,-1.1225999593734741
1702211414401836800,65.5108369140625,0.7840999960899353,-4.9298996925354,-1.6690999269485474
1702211414461836800,65.5708369140625,3.018699884414673,-5.92609977722168,-3.0825998783111572
1702211414521836800,65.6308369140625,4.3105998039245605,-6.98799991607666,-4.965799808502197
1702211414581836800,65.6908369140625,5.1001996994018555,-6.978899955749512,-6.657599925994873
1702211414641836800,65.7508369140625,4.548500061035156,-6.598199844360352,-7.3673996925354
1702211414701836800,65.8108369140625,3.859999895095825,-6.851799964904785,-6.648799896240234
1702211414761836800,65.8708369140625,-0.12119999527931213,-8.67549991607666,-4.911999702453613
1702211414821836800,65.9308369140625,-1.6826999187469482,-6.196399688720703,-2.1285998821258545
1702211414881836800,65.9908369140625,-2.3831000328063965,-4.930799961090088,-0.08509999513626099
1702211414941836800,66.0508369140625,0.05920000001788139,-5.505499839782715,6.03309965133667
1702211415001836800,66.1108369140625,1.525499939918518,-2.517699956893921,9.64900016784668
1702211415061836800,66.1708369140625,0.5289999842643738,-0.43539997935295105,7.622900009155273
1702211415121836800,66.2308369140625,-1.4970999956130981,-0.5595999956130981,10.508999824523926
1702211415181836800,66.2908369140625,-3.0336999893188477,0.9438999891281128,11.663000106811523
1702211415241836800,66.3508369140625,-4.522200107574463,1.1174999475479126,10.533699989318848
1702211415301836800,66.4108369140625,-3.874199867248535,-1.3457000255584717,10.017999649047852
1702211415361836800,66.4708369140625,-3.3713998794555664,-5.510499954223633,7.639899730682373
1702211415421836800,66.5308369140625,-0.6316999793052673,-5.683599948883057,3.65339994430542
1702211415481836800,66.5908369140625,0.5336999893188477,-3.8207998275756836,0.7307999730110168
1702211415541836800,66.6508369140625,1.9706999063491821,-4.257499694824219,-0.6100000143051147
1702211415601836800,66.7108369140625,3.724299907684326,-4.960999965667725,-1.4063999652862549
1702211415661836800,66.7708369140625,2.9278998374938965,-6.794699668884277,-3.223299980163574
1702211415721836800,66.8308369140625,4.0366997718811035,-6.001699924468994,-5.0868000984191895
1702211415781836800,66.8908369140625,3.285599946975708,-5.928099632263184,-8.371299743652344
1702211415841836800,66.9508369140625,2.856299877166748,-6.113999843597412,-6.621399879455566
1702211415901836800,67.0108369140625,0.9601999521255493,-6.440499782562256,-5.717499732971191
1702211415961836800,67.0708369140625,3.3890998363494873,-4.66510009765625,-2.8416998386383057
1702211416021836800,67.1308369140625,0.9480999708175659,-4.331299781799316,-0.4861999750137329
1702211416081836800,67.1908369140625,-2.2052998542785645,-4.144000053405762,5.148200035095215
1702211416141836800,67.2508369140625,-3.24429988861084,-1.3013999462127686,8.389299392700195
1702211416201836800,67.3108369140625,-4.978499889373779,0.14479999244213104,3.4413998126983643
1702211416261836800,67.3708369140625,-6.007999897003174,0.9199999570846558,4.152400016784668
1702211416321836800,67.4308369140625,-8.545299530029297,1.7451999187469482,5.614599704742432
1702211416381836800,67.4908369140625,-9.547999382019043,1.0850999355316162,6.019199848175049
1702211416441836800,67.5508369140625,-8.100500106811523,1.0198999643325806,7.085399627685547
1702211416501836800,67.6108369140625,-6.755099773406982,-1.9239999055862427,5.42140007019043
1702211416561836800,67.6708369140625,-3.8864998817443848,-4.132499694824219,4.84060001373291
1702211416621836800,67.7308369140625,-1.0298999547958374,-3.738600015640259,3.4928998947143555
1702211416681836800,67.7908369140625,0.536899983882904,-5.332499980926514,0.9875999689102173
1702211416741836800,67.8508369140625,2.271899938583374,-6.026399612426758,-0.5245999693870544
1702211416801836800,67.9108369140625,4.0208001136779785,-5.2778000831604,-3.470099925994873
1702211416861836800,67.9708369140625,5.410899639129639,-5.559599876403809,-7.304999828338623
1702211416921836800,68.0308369140625,7.0488996505737305,-4.84060001373291,-8.793499946594238
1702211416981836800,68.0908369140625,3.743499994277954,-7.422999858856201,-6.269099712371826
1702211417041836800,68.1508369140625,1.3518999814987183,-6.161799907684326,-3.4380998611450195
1702211417101836800,68.2108369140625,-0.5640000104904175,-6.441999912261963,-0.8154999613761902
1702211417161836800,68.2708369140625,1.3503999710083008,-3.9691998958587646,1.090499997138977
1702211417221836800,68.3308369140625,-0.14229999482631683,-1.5204999446868896,2.02020001411438
1702211417281836800,68.3908369140625,-1.135699987411499,-1.1496000289916992,3.300999879837036
1702211417341836800,68.4508369140625,-2.9480998516082764,-0.5200999975204468,5.39109992980957
1702211417401836800,68.5108369140625,-5.720699787139893,1.059999942779541,6.546599864959717
1702211417461836800,68.5708369140625,-7.491799831390381,1.4275000095367432,6.880799770355225
1702211417521836800,68.6308369140625,-6.057499885559082,0.5859999656677246,7.1327996253967285
1702211417581836800,68.6908369140625,-5.671099662780762,1.0120999813079834,7.41409969329834
1702211417641836800,68.7508369140625,-5.557499885559082,0.13359999656677246,6.029099941253662
1702211417701836800,68.8108369140625,-5.133399963378906,-3.5601999759674072,5.993299961090088
1702211417761836800,68.8708369140625,-2.40120005607605,-4.579099655151367,4.046099662780762
1702211417821836800,68.9308369140625,0.08760000020265579,-3.433199882507324,1.5829999446868896
1702211417881836800,68.9908369140625,1.8502999544143677,-4.072700023651123,-0.2313999980688095
1702211417941836800,69.0508369140625,3.6776998043060303,-4.406399726867676,-1.5115000009536743
1702211418001836800,69.1108369140625,4.497900009155273,-5.313499927520752,-2.8732998371124268
1702211418061836800,69.1708369140625,5.4923996925354,-5.015599727630615,-5.892600059509277
1702211418121836800,69.2308369140625,4.501399993896484,-4.478899955749512,-8.028800010681152
1702211418181836800,69.2908369140625,3.1617000102996826,-5.2153000831604,-6.318999767303467
1702211418241836800,69.3508369140625,-0.4794999957084656,-6.239500045776367,-3.5650999546051025
1702211418301836800,69.4108369140625,0.3527999818325043,-6.445899963378906,-1.7734999656677246
1702211418361836800,69.4708369140625,1.7055000066757202,-2.4077999591827393,0.3212999999523163
1702211418421836800,69.5308369140625,-0.44699999690055847,-0.48959997296333313,1.7574999332427979
1702211418481836800,69.5908369140625,-0.6018999814987183,-1.567099928855896,4.152199745178223
1702211418541836800,69.6508369140625,-2.3778998851776123,-1.0018999576568604,6.960099697113037
1702211418601836800,69.7108369140625,-4.6356000900268555,1.1556999683380127,6.274199962615967
1702211418661836800,69.7708369140625,-6.127199649810791,2.092099905014038,6.862400054931641
1702211418721836800,69.8308369140625,-6.065199851989746,0.955299973487854,8.117300033569336
1702211418781836800,69.8908369140625,-5.347300052642822,0.8930999636650085,9.002900123596191
1702211418841836800,69.9508369140625,-5.8796000480651855,-1.288599967956543,8.073200225830078
1702211418901836800,70.0108369140625,-3.557299852371216,-5.321199893951416,5.097099781036377
1702211418961836800,70.0708369140625,0.00139999995008111,-4.606599807739258,1.9840999841690063
1702211419021836800,70.1308369140625,0.8631999492645264,-3.35509991645813,0.11669999361038208
1702211419081836800,70.1908369140625,1.9490000009536743,-3.990799903869629,-1.208899974822998
1702211419141836800,70.2508369140625,2.9254000186920166,-3.727599859237671,-2.7136998176574707
1702211419201836800,70.3108369140625,3.3585000038146973,-5.101200103759766,-6.048099994659424
1702211419261836800,70.3708369140625,4.736700057983398,-4.3028998374938965,-9.41450023651123
1702211419321836800,70.4308369140625,2.0878000259399414,-7.47689962387085,-8.519700050354004
1702211419381836800,70.4908369140625,0.9925999641418457,-7.68179988861084,-3.489300012588501
1702211419441836800,70.5508369140625,-0.3308999836444855,-4.947099685668945,-1.566499948501587
1702211419501836800,70.6108369140625,0.6186000108718872,-2.658099889755249,-0.7340999841690063
1702211419561836800,70.6708369140625,0.5178999900817871,-0.38760000467300415,-0.8123999834060669
1702211419621836800,70.7308369140625,-1.979200005531311,-1.2776999473571777,1.2681000232696533
1702211419681836800,70.7908369140625,-4.249000072479248,-0.70169997215271,10.093400001525879
1702211419741836800,70.8508369140625,-5.243799686431885,2.4593000411987305,7.502999782562256
1702211419801836800,70.9108369140625,-4.958199977874756,1.9569998979568481,7.101799964904785
1702211419861836800,70.9708369140625,-4.2941999435424805,1.7577999830245972,8.87809944152832
1702211419921836800,71.0308369140625,-6.571599960327148,1.851099967956543,8.105299949645996
1702211419981836800,71.0908369140625,-5.3592000007629395,-3.4702999591827393,8.56029987335205
1702211420041836800,71.1508369140625,-2.791599988937378,-8.481900215148926,6.2953996658325195
1702211420101836800,71.2108369140625,0.6650999784469604,-4.936100006103516,2.971799850463867
1702211420161836800,71.2708369140625,2.1308999061584473,-3.0351998805999756,-0.08429999649524689
1702211420221836800,71.3308369140625,3.123699903488159,-4.23859977722168,-1.9982999563217163
1702211420281836800,71.3908369140625,4.376800060272217,-5.176499843597412,-3.359799861907959
1702211420341836800,71.4508369140625,4.016299724578857,-6.581500053405762,-7.763000011444092
1702211420401836800,71.5108369140625,4.318699836730957,-4.969099998474121,-11.030699729919434
1702211420461836800,71.5708369140625,1.9160999059677124,-6.682499885559082,-8.5201997756958
1702211420521836800,71.6308369140625,1.2452999353408813,-7.703099727630615,-3.740999937057495
1702211420581836800,71.6908369140625,-0.8061999678611755,-8.786199569702148,-0.4900999963283539
1702211420641836800,71.7508369140625,0.28380000591278076,-4.889599800109863,3.4498000144958496
1702211420701836800,71.8108369140625,-0.07279999554157257,-0.6898999810218811,4.164700031280518
1702211420761836800,71.8708369140625,-0.05939999967813492,-0.684499979019165,3.875999927520752
1702211420821836800,71.9308369140625,-0.41599997878074646,-1.086899995803833,6.440199851989746
1702211420881836800,71.9908369140625,-3.283599853515625,0.5092999935150146,8.731499671936035
1702211420941836800,72.0508369140625,-5.898499965667725,2.113999843597412,7.90939998626709
1702211421001836800,72.1108369140625,-6.636899948120117,1.6370999813079834,7.6103997230529785
1702211421061836800,72.1708369140625,-6.097399711608887,0.12429999560117722,7.842899799346924
1702211421121836800,72.2308369140625,-6.247699737548828,0.15039999783039093,7.430299758911133
1702211421181836800,72.2908369140625,-5.820099830627441,-4.26800012588501,6.229799747467041
1702211421241836800,72.3508369140625,-2.236799955368042,-5.758199691772461,2.796099901199341
1702211421301836800,72.4108369140625,1.2013999223709106,-3.1273999214172363,0.42339998483657837
1702211421361836800,72.4708369140625,1.629599928855896,-2.2718000411987305,-0.5072000026702881
1702211421421836800,72.5308369140625,3.1634998321533203,-3.3752999305725098,-0.30629998445510864
1702211421481836800,72.5908369140625,3.5625,-4.21999979019165,-0.7890999913215637
1702211421541836800,72.6508369140625,4.747799873352051,-5.788399696350098,-4.660099983215332
1702211421601836800,72.7108369140625,4.389800071716309,-4.8317999839782715,-10.127599716186523
1702211421661836800,72.7708369140625,2.3901000022888184,-6.087399959564209,-6.5239996910095215
1702211421721836800,72.8308369140625,0.17819999158382416,-5.975899696350098,-4.037499904632568
1702211421781836800,72.8908369140625,-0.2092999964952469,-5.612400054931641,-2.0421998500823975
1702211421841836800,72.9508369140625,0.9668999910354614,-1.9907000064849854,0.01719999872148037
1702211421901836800,73.0108369140625,-0.7834999561309814,-0.45389997959136963,1.4063999652862549
1702211421961836800,73.0708369140625,-3.4614999294281006,-1.9418998956680298,5.177499771118164
1702211422021836800,73.1308369140625,-4.631099700927734,1.2221999168395996,9.329500198364258
1702211422081836800,73.1908369140625,-7.062199592590332,1.6337000131607056,7.024399757385254
1702211422141836800,73.2508369140625,-4.407299995422363,1.6288999319076538,7.977599620819092
1702211422201836800,73.3108369140625,-5.19980001449585,0.2825999855995178,6.653199672698975
1702211422261836800,73.3708369140625,-5.429699897766113,-1.2273999452590942,7.558099746704102
1702211422321836800,73.4308369140625,-4.474299907684326,-4.091099739074707,5.60159969329834
1702211422381836800,73.4908369140625,-1.1761999130249023,-3.8585000038146973,2.9521000385284424
1702211422441836800,73.5508369140625,0.7318999767303467,-1.7259999513626099,1.166700005531311
1702211422501836800,73.6108369140625,1.8984999656677246,-2.45389986038208,-0.5934999585151672
1702211422561836800,73.6708369140625,3.371999979019165,-3.3827998638153076,-1.3916000127792358
1702211422621836800,73.7308369140625,3.9500999450683594,-4.644999980926514,-2.787899971008301
1702211422681836800,73.7908369140625,5.25439977645874,-4.794099807739258,-7.0341997146606445
1702211422741836800,73.8508369140625,3.234799861907959,-5.520099639892578,-9.343599319458008
1702211422801836800,73.9108369140625,1.5877000093460083,-5.611299991607666,-5.364699840545654
1702211422861836800,73.9708369140625,-0.3781999945640564,-6.6631999015808105,-2.5500998497009277
1702211422921836800,74.0308369140625,0.2021999955177307,-4.359299659729004,-0.5169000029563904
1702211422981836800,74.0908369140625,0.4843999743461609,0.6312999725341797,0.7893999814987183
1702211423041836800,74.1508369140625,-1.4168999195098877,0.5033999681472778,1.4306999444961548
1702211423101836800,74.2108369140625,-2.547799825668335,-1.1100000143051147,5.467199802398682
1702211423161836800,74.2708369140625,-3.6053998470306396,0.9323999881744385,7.134599685668945
1702211423221836800,74.3308369140625,-4.784899711608887,1.2489999532699585,5.158999919891357
1702211423281836800,74.3908369140625,-3.3976998329162598,0.8919999599456787,6.592799663543701
1702211423341836800,74.4508369140625,-4.818399906158447,0.8773999810218811,7.142699718475342
1702211423401836800,74.5108369140625,-6.296599864959717,-1.5365999937057495,7.593999862670898
1702211423461836800,74.5708369140625,-4.325099945068359,-4.289799690246582,6.2044997215271
1702211423521836800,74.6308369140625,-1.6028999090194702,-3.3444998264312744,4.107100009918213
1702211423581836800,74.6908369140625,-0.09829999506473541,-2.5109000205993652,1.7037999629974365
1702211423641836800,74.7508369140625,1.2925000190734863,-4.433099746704102,-0.8093000054359436
1702211423701836800,74.8108369140625,3.2074999809265137,-5.218299865722656,-1.7481999397277832
1702211423761836800,74.8708369140625,4.097899913787842,-5.394799709320068,-2.6994998455047607
1702211423821836800,74.9308369140625,5.692899703979492,-5.458099842071533,-6.000799655914307
1702211423881836800,74.9908369140625,5.05679988861084,-3.8715999126434326,-10.062999725341797
1702211423941836800,75.0508369140625,1.2603999376296997,-6.092700004577637,-7.7423996925354
1702211424001836800,75.1108369140625,0.142099991440773,-5.933000087738037,-4.644599914550781
1702211424061836800,75.1708369140625,-0.9627999663352966,-6.137599945068359,-1.2999999523162842
1702211424121836800,75.2308369140625,-2.613100051879883,-2.006999969482422,1.5779999494552612
1702211424181836800,75.2908369140625,-4.732199668884277,2.2970998287200928,5.825099945068359
1702211424241836800,75.3508369140625,-2.974799871444702,1.4169999361038208,4.497399806976318
1702211424301836800,75.4108369140625,-1.9471999406814575,2.005699872970581,5.202699661254883
1702211424361836800,75.4708369140625,-0.8167999982833862,2.0288000106811523,5.11959981918335
1702211424421836800,75.5308369140625,-0.3960999846458435,0.41499999165534973,6.418599605560303
1702211424481836800,75.5908369140625,-2.995499849319458,2.159600019454956,5.069999694824219
1702211424541836800,75.6508369140625,-8.109099388122559,-2.0790998935699463,8.482099533081055
1702211424601836800,75.7108369140625,-2.561800003051758,-5.42609977722168,7.352099895477295
1702211424661836800,75.7708369140625,0.03669999912381172,-4.541599750518799,4.4238996505737305
1702211424721836800,75.8308369140625,1.5740000009536743,-2.5425000190734863,1.1517000198364258
1702211424781836800,75.8908369140625,1.4687999486923218,-2.9333999156951904,-1.6495000123977661
1702211424841836800,75.9508369140625,1.7980999946594238,-4.8649001121521,-2.990499973297119
1702211424901836800,76.0108369140625,2.2269999980926514,-5.1296000480651855,-7.215999603271484
1702211424961836800,76.0708369140625,1.4850000143051147,-4.6419997215271,-11.833999633789062
1702211425021836800,76.1308369140625,0.8992999792098999,-5.1768999099731445,-10.10219955444336
1702211425081836800,76.1908369140625,2.566699981689453,-8.20949935913086,-4.511699676513672
1702211425141836800,76.2508369140625,1.3895999193191528,-7.312299728393555,-1.1273999214172363
1702211425201836800,76.3108369140625,-1.3140000104904175,-6.608699798583984,3.4779000282287598
1702211425261836800,76.3708369140625,-0.002099999925121665,-1.3047000169754028,7.804299831390381
1702211425321836800,76.4308369140625,-2.151900053024292,0.6031999588012695,3.7326998710632324
