time,seconds_elapsed,z,y,x
1705061786875432700,0.0354326171875,-0.20979999005794525,-0.32999998331069946,-0.09030000120401382
1705061786935432700,0.0954326171875,0.019299998879432678,0.025499999523162842,-0.08810000121593475
1705061786995432700,0.1554326171875,0.09479999542236328,-0.015199999324977398,-0.004999999888241291
1705061787055432700,0.2154326171875,0.08079999685287476,0.016499999910593033,-0.05169999971985817
1705061787115432700,0.2754326171875,0.03889999911189079,-0.0008999999845400453,-0.09640000015497208
1705061787175432700,0.3354326171875,0.04859999939799309,0.08509999513626099,-0.11479999870061874
1705061787235432700,0.3954326171875,0.1046999990940094,-0.027499999850988388,-0.07840000092983246
1705061787295432700,0.4554326171875,0.13459999859333038,-0.004699999932199717,-0.11979999393224716
1705061787355432700,0.5154326171875,0.2418999969959259,-0.07050000131130219,-0.08489999920129776
1705061787415432700,0.5754326171875,0.432699978351593,-0.5023999810218811,0.241799995303154
1705061787475432700,0.6354326171875,0.4220999777317047,-0.405599981546402,0.2409999966621399
1705061787535432700,0.6954326171875,0.6496999859809875,0.04050000011920929,-0.02329999953508377
1705061787595432700,0.7554326171875,-0.6498000025749207,-0.11140000075101852,-2.1338999271392822
1705061787655432700,0.8154326171875,-0.5885999798774719,1.0727999210357666,-1.3895999193191528
1705061787715432700,0.8754326171875,-0.7640999555587769,-0.11759999394416809,-2.092599868774414
1705061787775432700,0.9354326171875,-0.8032000064849854,-0.70660001039505,-2.873699903488159
1705061787835432700,0.9954326171875,-0.7556999921798706,-1.046299934387207,-2.6198999881744385
1705061787895432700,1.0554326171875,0.5805999636650085,-0.6606999635696411,-1.867799997329712
1705061787955432700,1.1154326171875,3.3026998043060303,-0.07069999724626541,-0.4316999912261963
1705061788015432700,1.1754326171875,3.6205999851226807,-0.012299999594688416,2.5511999130249023
1705061788075432700,1.2354326171875,2.356799840927124,-0.6764999628067017,4.650899887084961
1705061788135432700,1.2954326171875,0.7355999946594238,1.2776999473571777,5.334399700164795
1705061788195432700,1.3554326171875,2.5825998783111572,0.8198999762535095,2.781599998474121
1705061788255432700,1.4154326171875,1.1003999710083008,0.6520000100135803,1.1133999824523926
1705061788315432700,1.4754326171875,0.3747999966144562,0.4651999771595001,-0.8715999722480774
1705061788375432700,1.5354326171875,-0.823699951171875,-0.7265999913215637,-0.8495999574661255
1705061788435432700,1.5954326171875,-0.9311999678611755,-0.9790999889373779,-1.388700008392334
1705061788495432700,1.6554326171875,-1.296299934387207,-1.180899977684021,-1.5999999046325684
1705061788555432700,1.7154326171875,-2.167099952697754,-2.36299991607666,-2.1140999794006348
1705061788615432700,1.7754326171875,-0.0011999999405816197,-2.28659987449646,-0.07209999859333038
1705061788675432700,1.8354326171875,0.6225999593734741,-0.5544999837875366,0.5212999582290649
1705061788735432700,1.8954326171875,-0.057099997997283936,0.04439999908208847,-0.37059998512268066
1705061788795432700,1.9554326171875,0.7371000051498413,-0.15289999544620514,0.33660000562667847
1705061788855432700,2.0154326171875,1.2167999744415283,0.18769998848438263,0.2019999921321869
1705061788915432700,2.0754326171875,0.6509000062942505,0.5360000133514404,-1.2812999486923218
1705061788975432700,2.1354326171875,0.36149999499320984,1.4595999717712402,-1.3976999521255493
1705061789035432700,2.1954326171875,0.5169999599456787,0.5555999875068665,1.881500005722046
1705061789095432700,2.2554326171875,2.629499912261963,0.9611999988555908,2.129199981689453
1705061789155432700,2.3154326171875,1.4878000020980835,2.0528998374938965,2.224400043487549
1705061789215432700,2.3754326171875,1.1876999139785767,2.235299825668335,1.9265999794006348
1705061789275432700,2.4354326171875,-0.03139999881386757,1.8108999729156494,0.7773999571800232
1705061789335432700,2.4954326171875,-0.8554999828338623,-2.271199941635132,-4.383899688720703
1705061789395432700,2.5554326171875,-1.6473000049591064,-1.7254999876022339,-2.509199857711792
1705061789455432700,2.6154326171875,-0.38199999928474426,0.42649999260902405,-0.4968999922275543
1705061789515432700,2.6754326171875,-0.6078000068664551,-0.9556999802589417,-0.5363999605178833
1705061789575432700,2.7354326171875,-0.2809000015258789,-0.33390000462532043,0.17260000109672546
1705061789635432700,2.7954326171875,-0.5189999938011169,0.00419999985024333,-0.16499999165534973
1705061789695432700,2.8554326171875,-0.202799990773201,-0.06659999489784241,0.049799997359514236
1705061789755432700,2.9154326171875,-0.25779998302459717,-0.25839999318122864,-0.3529999852180481
1705061789815432700,2.9754326171875,0.4479999840259552,-0.2886999845504761,0.5475000143051147
1705061789875432700,3.0354326171875,0.04429999738931656,-0.18649999797344208,0.5480999946594238
1705061789935432700,3.0954326171875,0.32269999384880066,-0.06799999624490738,1.3086999654769897
1705061789995432700,3.1554326171875,0.15689998865127563,0.22169999778270721,-0.6525999903678894
1705061790055432700,3.2154326171875,-0.31049999594688416,-0.08009999990463257,-1.5013999938964844
1705061790115432700,3.2754326171875,0.45229998230934143,-0.08569999784231186,-0.645799994468689
1705061790175432700,3.3354326171875,1.4388999938964844,0.6103000044822693,-0.9301999807357788
1705061790235432700,3.3954326171875,2.592900037765503,1.348599910736084,1.8463999032974243
1705061790295432700,3.4554326171875,0.7805999517440796,-0.46320000290870667,3.0179998874664307
1705061790355432700,3.5154326171875,-0.7217999696731567,-1.2111999988555908,1.3674999475479126
1705061790415432700,3.5754326171875,-1.6821999549865723,-2.647599935531616,0.802299976348877
1705061790475432700,3.6354326171875,0.05209999904036522,-0.7290999889373779,-1.5065999031066895
1705061790535432700,3.6954326171875,-0.5084999799728394,1.3761999607086182,-1.8745999336242676
1705061790595432700,3.7554326171875,2.714099884033203,2.610100030899048,6.2139997482299805
1705061790655432700,3.8154326171875,2.5999999046325684,3.9993999004364014,-0.7263000011444092
1705061790715432700,3.8754326171875,2.0748000144958496,2.183799982070923,1.2627999782562256
1705061790775432700,3.9354326171875,-0.33489999175071716,-0.7425000071525574,-1.0713999271392822
1705061790835432700,3.9954326171875,-1.8920999765396118,-1.0525000095367432,-1.875599980354309
1705061790895432700,4.0554326171875,-0.8079999685287476,0.6837999820709229,-0.5986999869346619
1705061790955432700,4.1154326171875,-0.6367999911308289,0.776199996471405,-1.0595999956130981
1705061791015432700,4.1754326171875,0.18359999358654022,-1.167099952697754,-0.013899999670684338
1705061791075432700,4.2354326171875,0.6912999749183655,-0.8046999573707581,0.016099998727440834
1705061791135432700,4.2954326171875,-0.8837999701499939,-0.7598999738693237,-0.36569997668266296
1705061791195432700,4.3554326171875,1.0029000043869019,0.40059998631477356,-0.5953999757766724
1705061791255432700,4.4154326171875,-0.4163999855518341,-1.1306999921798706,-1.8772000074386597
1705061791315432700,4.4754326171875,0.920199990272522,0.42890000343322754,-1.7831999063491821
1705061791375432700,4.5354326171875,-0.7824999690055847,0.8054999709129333,0.27619999647140503
1705061791435432700,4.5954326171875,-0.48179998993873596,0.11369999498128891,0.9021999835968018
1705061791495432700,4.6554326171875,0.8869999647140503,-3.084399938583374,2.3378000259399414
1705061791555432700,4.7154326171875,0.6025999784469604,-2.2372000217437744,2.140899896621704
1705061791615432700,4.7754326171875,1.3065999746322632,0.491599977016449,0.4339999854564667
1705061791675432700,4.8354326171875,0.4705999791622162,1.9890999794006348,0.40709999203681946
1705061791735432700,4.8954326171875,0.3467999994754791,1.0270999670028687,-1.0052000284194946
1705061791795432700,4.9554326171875,-0.5753999948501587,-0.6699999570846558,-0.32909998297691345
1705061791855432700,5.0154326171875,0.019099999219179153,-1.996399998664856,1.2185999155044556
1705061791915432700,5.0754326171875,-0.43789997696876526,-3.0216000080108643,1.2228000164031982
1705061791975432700,5.1354326171875,0.10189999639987946,-1.7297999858856201,-0.08799999952316284
1705061792035432700,5.1954326171875,-0.7475000023841858,-0.06509999930858612,-1.570199966430664
1705061792095432700,5.2554326171875,-0.3472999930381775,-0.27140000462532043,-0.9521999955177307
1705061792155432700,5.3154326171875,-0.34109997749328613,-0.8344999551773071,0.23559999465942383
1705061792215432700,5.3754326171875,0.6416000127792358,-0.699999988079071,0.9196999669075012
1705061792275432700,5.4354326171875,-0.29159998893737793,-0.6392999887466431,0.4594999849796295
1705061792335432700,5.4954326171875,0.7847999930381775,0.8501999974250793,-1.5949000120162964
1705061792395432700,5.5554326171875,0.31859999895095825,1.7497999668121338,1.216599941253662
1705061792455432700,5.6154326171875,0.34849998354911804,-1.184999942779541,-0.155799999833107
1705061792515432700,5.6754326171875,0.5482999682426453,-0.802899956703186,0.5259000062942505
1705061792575432700,5.7354326171875,-0.06849999725818634,1.6124999523162842,2.6689000129699707
1705061792635432700,5.7954326171875,3.251999855041504,-0.15129999816417694,2.335099935531616
1705061792695432700,5.8554326171875,-0.5954999923706055,0.98499995470047,1.223699927330017
1705061792755432700,5.9154326171875,-0.5253999829292297,-0.00989999994635582,1.3746999502182007
1705061792815432700,5.9754326171875,-1.6383999586105347,-0.626800000667572,-0.7048999667167664
1705061792875432700,6.0354326171875,-1.5893999338150024,-2.389699935913086,-1.4362000226974487
1705061792935432700,6.0954326171875,-1.3970999717712402,-4.82450008392334,-1.6620999574661255
1705061792995432700,6.1554326171875,-1.0607999563217163,-6.4166998863220215,-2.4221999645233154
1705061793055432700,6.2154326171875,0.6836000084877014,-4.891599655151367,-1.9342999458312988
1705061793115432700,6.2754326171875,2.684799909591675,3.256500005722046,-2.4502999782562256
1705061793175432700,6.3354326171875,0.559499979019165,5.130499839782715,-2.9206998348236084
1705061793235432700,6.3954326171875,0.1964999884366989,1.6004999876022339,-0.09449999779462814
1705061793295432700,6.4554326171875,1.8951998949050903,-3.0398998260498047,1.8207999467849731
1705061793355432700,6.5154326171875,-0.5428000092506409,-3.8148999214172363,0.444599986076355
1705061793415432700,6.5754326171875,0.885699987411499,-4.529699802398682,-1.376099944114685
1705061793475432700,6.6354326171875,1.8213999271392822,-0.9972999691963196,-1.5131999254226685
1705061793535432700,6.6954326171875,1.3335999250411987,0.3098999857902527,-0.2719999849796295
1705061793595432700,6.7554326171875,0.1264999955892563,-0.8484999537467957,-0.6771000027656555
1705061793655432700,6.8154326171875,-0.31619998812675476,1.815999984741211,-0.6053999662399292
1705061793715432700,6.8754326171875,0.4250999987125397,1.8884999752044678,-0.6207999587059021
1705061793775432700,6.9354326171875,0.2360999882221222,0.8098999857902527,0.2883000075817108
1705061793835432700,6.9954326171875,-1.8894000053405762,-3.229599952697754,0.010699999518692493
1705061793895432700,7.0554326171875,-2.2193000316619873,-2.397899866104126,-0.46879997849464417
1705061793955432700,7.1154326171875,-1.854200005531311,-1.476699948310852,-1.3880999088287354
1705061794015432700,7.1754326171875,-1.0151000022888184,-1.2091000080108643,-0.22089999914169312
1705061794075432700,7.2354326171875,-0.832099974155426,0.3188000023365021,-0.2094999998807907
1705061794135432700,7.2954326171875,-0.4649999737739563,-2.0139999389648438,-3.40939998626709
1705061794195432700,7.3554326171875,1.5435999631881714,2.4168999195098877,-1.3198000192642212
1705061794255432700,7.4154326171875,3.9570000171661377,4.137899875640869,0.8859999775886536
1705061794315432700,7.4754326171875,3.468400001525879,3.636699914932251,0.14639998972415924
1705061794375432700,7.5354326171875,-1.5389000177383423,-0.39980000257492065,-0.25859999656677246
1705061794435432700,7.5954326171875,-2.0418999195098877,-6.815199851989746,5.713699817657471
1705061794495432700,7.6554326171875,-4.213399887084961,-5.123300075531006,3.689499855041504
1705061794555432700,7.7154326171875,-0.8148999810218811,-0.35189998149871826,1.7666999101638794
1705061794615432700,7.7754326171875,3.5037999153137207,3.1034998893737793,-0.18239998817443848
1705061794675432700,7.8354326171875,2.291100025177002,1.656499981880188,-1.4036999940872192
1705061794735432700,7.8954326171875,-0.4502999782562256,0.20839999616146088,-0.8784999847412109
1705061794795432700,7.9554326171875,-1.3387999534606934,0.023599999025464058,0.23639999330043793
1705061794855432700,8.0154326171875,2.5262999534606934,-0.8669999837875366,3.9368999004364014
1705061794915432700,8.0754326171875,-1.3049999475479126,-1.6579999923706055,0.042899999767541885
1705061794975432700,8.1354326171875,-1.011099934577942,1.953399896621704,0.3894999921321869
1705061795035432700,8.1954326171875,1.8743000030517578,-4.114599704742432,1.458400011062622
1705061795095432700,8.2554326171875,-3.179999828338623,-2.4457998275756836,-0.08980000019073486
1705061795155432700,8.3154326171875,-2.9709999561309814,-0.373199999332428,-0.45649999380111694
1705061795215432700,8.3754326171875,-0.5304999947547913,2.9114999771118164,-2.1141998767852783
1705061795275432700,8.4354326171875,-0.4633999764919281,-1.191999912261963,-0.37779998779296875
1705061795335432700,8.4954326171875,0.41920000314712524,-1.1000999212265015,-4.161299705505371
1705061795395432700,8.5554326171875,-0.8197000026702881,3.3994998931884766,-4.407299995422363
1705061795455432700,8.6154326171875,0.9593999981880188,2.3371999263763428,-1.5568000078201294
1705061795515432700,8.6754326171875,1.1058999300003052,-0.6414999961853027,3.2376999855041504
1705061795575432700,8.7354326171875,0.7906999588012695,-2.110300064086914,5.134900093078613
1705061795635432700,8.7954326171875,2.0427000522613525,-1.6933000087738037,3.4883999824523926
1705061795695432700,8.8554326171875,2.1096999645233154,-1.6836999654769897,0.9722999930381775
1705061795755432700,8.9154326171875,2.6819000244140625,2.3278000354766846,-3.190500020980835
1705061795815432700,8.9754326171875,-0.9734999537467957,1.8644999265670776,-3.1283998489379883
1705061795875432700,9.0354326171875,-0.5425999760627747,-1.5769999027252197,-0.3425000011920929
1705061795935432700,9.0954326171875,0.09290000051259995,1.628499984741211,-0.40869998931884766
1705061795995432700,9.1554326171875,-0.2978000044822693,3.3471999168395996,-1.5367000102996826
1705061796055432700,9.2154326171875,-0.14880000054836273,1.619499921798706,-0.2945999801158905
1705061796115432700,9.2754326171875,-1.6130999326705933,-2.998800039291382,3.060299873352051
1705061796175432700,9.3354326171875,-0.847000002861023,-4.650799751281738,4.064399719238281
1705061796235432700,9.3954326171875,-0.7389000058174133,-2.577399969100952,1.299899935722351
1705061796295432700,9.4554326171875,-1.6200000047683716,1.0413999557495117,-3.457899808883667
1705061796355432700,9.5154326171875,0.10619999468326569,0.1412999927997589,-2.0729000568389893
1705061796415432700,9.5754326171875,-2.142899990081787,0.8822999596595764,-3.363999843597412
1705061796475432700,9.6354326171875,-1.9883999824523926,2.9062998294830322,-2.5130999088287354
1705061796535432700,9.6954326171875,0.9261999726295471,1.6345999240875244,-0.2230999916791916
1705061796595432700,9.7554326171875,3.4285998344421387,-0.001500000013038516,1.2177000045776367
1705061796655432700,9.8154326171875,1.6431999206542969,-1.312600016593933,2.500999927520752
1705061796715432700,9.8754326171875,0.3271999955177307,-3.089900016784668,2.5550999641418457
1705061796775432700,9.9354326171875,0.8499999642372131,-6.296799659729004,3.972099781036377
1705061796835432700,9.9954326171875,3.9818999767303467,-1.0636999607086182,-0.30539998412132263
1705061796895432700,10.0554326171875,1.0140999555587769,8.989399909973145,-4.8750996589660645
1705061796955432700,10.1154326171875,0.7084999680519104,7.734099864959717,-2.5576999187469482
1705061797015432700,10.1754326171875,-1.323599934577942,8.865699768066406,-5.123499870300293
1705061797075432700,10.2354326171875,-2.8952999114990234,4.7795000076293945,7.080599784851074
1705061797135432700,10.2954326171875,-2.9517998695373535,0.2635999917984009,0.6969000101089478
1705061797195432700,10.3554326171875,0.2935999929904938,-6.653299808502197,6.357999801635742
1705061797255432700,10.4154326171875,-5.282700061798096,-5.367499828338623,2.6614999771118164
1705061797315432700,10.4754326171875,-3.0409998893737793,-4.639100074768066,1.7596999406814575
1705061797375432700,10.5354326171875,-5.255399703979492,-6.055999755859375,2.5806000232696533
1705061797435432700,10.5954326171875,-2.3364999294281006,-9.862699508666992,2.170599937438965
1705061797495432700,10.6554326171875,4.458399772644043,-7.573400020599365,-2.7165000438690186
1705061797555432700,10.7154326171875,2.492499828338623,3.401599884033203,-8.042499542236328
1705061797615432700,10.7754326171875,-3.7035999298095703,24.331298828125,-2.1533000469207764
1705061797675432700,10.8354326171875,-6.313899993896484,1.8729000091552734,8.869199752807617
1705061797735432700,10.8954326171875,2.696499824523926,-5.149499893188477,1.0855000019073486
1705061797795432700,10.9554326171875,-0.4536999762058258,-1.607800006866455,9.220399856567383
1705061797855432700,11.0154326171875,0.21849998831748962,0.7929999828338623,3.859499931335449
1705061797915432700,11.0754326171875,1.3747999668121338,4.097700119018555,2.567699909210205
1705061797975432700,11.1354326171875,2.786900043487549,2.807999849319458,1.0896999835968018
1705061798035432700,11.1954326171875,3.632499933242798,4.627799987792969,-3.256999969482422
1705061798095434200,11.255434326171875,0.9929999709129333,1.8490999937057495,-4.65369987487793
1705061798155432700,11.3154326171875,1.4930999279022217,2.2358999252319336,-5.976099967956543
1705061798215432700,11.3754326171875,1.7213000059127808,-3.2890000343322754,-6.323299884796143
1705061798275432700,11.4354326171875,0.45350000262260437,-4.969699859619141,-4.532399654388428
1705061798335432700,11.4954326171875,-1.567699909210205,-3.041100025177002,-2.529599905014038
1705061798395432700,11.5554326171875,-2.6350998878479004,-0.6726999878883362,-1.6349999904632568
1705061798455432700,11.6154326171875,-1.7316999435424805,1.3991999626159668,-1.1488999128341675
1705061798515432700,11.6754326171875,0.20899999141693115,1.107100009918213,-1.517799973487854
1705061798575432700,11.7354326171875,2.3736000061035156,2.257699966430664,-2.083099842071533
1705061798635432700,11.7954326171875,2.9958999156951904,9.765600204467773,-0.48979997634887695
1705061798695432700,11.8554326171875,2.1605000495910645,5.108399868011475,1.4816999435424805
1705061798755432700,11.9154326171875,2.8099000453948975,-0.8039000034332275,2.099900007247925
1705061798815432700,11.9754326171875,2.451900005340576,-2.2635998725891113,3.4520998001098633
1705061798875432700,12.0354326171875,2.951900005340576,-1.1476999521255493,4.598400115966797
1705061798935432700,12.0954326171875,2.6689000129699707,0.09649999439716339,4.804599761962891
1705061798995432700,12.1554326171875,2.4266998767852783,3.7284998893737793,2.8394999504089355
1705061799055432700,12.2154326171875,-1.1638000011444092,5.316799640655518,3.700399875640869
1705061799115432700,12.2754326171875,-3.3710999488830566,3.3457000255584717,3.76419997215271
1705061799175432700,12.3354326171875,-1.020300030708313,7.337299823760986,1.1309999227523804
1705061799235432700,12.3954326171875,-1.243499994277954,3.4602999687194824,2.1122000217437744
1705061799295432700,12.4554326171875,1.635599970817566,-0.5925999879837036,0.4120999872684479
1705061799355432700,12.5154326171875,3.058499813079834,-1.774899959564209,-0.524899959564209
1705061799415432700,12.5754326171875,2.9358999729156494,-0.8600999712944031,-1.1129000186920166
1705061799475432700,12.6354326171875,3.5174999237060547,0.43879997730255127,-2.4851999282836914
1705061799535432700,12.6954326171875,2.7316999435424805,0.21969999372959137,-5.745599746704102
1705061799595432700,12.7554326171875,1.8465999364852905,0.7001000046730042,-6.681299686431885
1705061799655432700,12.8154326171875,1.508099913597107,2.142899990081787,-5.105899810791016
1705061799715432700,12.8754326171875,1.785599946975708,4.500499725341797,-4.304100036621094
1705061799775432700,12.9354326171875,0.20340000092983246,5.38100004196167,-1.5723999738693237
1705061799835432700,12.9954326171875,-1.3025000095367432,1.5362999439239502,3.1648998260498047
1705061799895432700,13.0554326171875,-0.03229999914765358,-1.4510999917984009,2.2112998962402344
1705061799955432700,13.1154326171875,2.5362000465393066,-0.20430000126361847,1.8937000036239624
1705061800015432700,13.1754326171875,4.466599941253662,0.7773000001907349,3.089099884033203
1705061800075432700,13.2354326171875,4.039999961853027,3.4021999835968018,3.38539981842041
1705061800135432700,13.2954326171875,-0.1111999973654747,3.9595999717712402,5.752699851989746
1705061800195432700,13.3554326171875,-1.0967999696731567,3.2166998386383057,5.872600078582764
1705061800255432700,13.4154326171875,0.26019999384880066,5.989899635314941,3.1089999675750732
1705061800315432700,13.4754326171875,-0.03500000014901161,4.833399772644043,2.165299892425537
1705061800375432700,13.5354326171875,1.0566999912261963,0.6060000061988831,1.5774999856948853
1705061800435432700,13.5954326171875,2.5817999839782715,-1.3453999757766724,-0.38929998874664307
1705061800495432700,13.6554326171875,2.1928000450134277,-0.4916999936103821,-1.288599967956543
1705061800555432700,13.7154326171875,2.1980998516082764,0.10719999670982361,-3.0914998054504395
1705061800615432700,13.7754326171875,2.8775999546051025,-0.22699999809265137,-5.948400020599365
1705061800675432700,13.8354326171875,2.283799886703491,0.010199999436736107,-6.297299861907959
1705061800735432700,13.8954326171875,2.652099847793579,-2.1986000537872314,-6.949199676513672
1705061800795432700,13.9554326171875,3.1116998195648193,3.960099935531616,-4.755300045013428
1705061800855432700,14.0154326171875,0.5539000034332275,7.270699977874756,-1.36899995803833
1705061800915432700,14.0754326171875,1.0724999904632568,4.792999744415283,-0.47609999775886536
1705061800975432700,14.1354326171875,0.9186999797821045,0.6936999559402466,2.458899974822998
1705061801035432700,14.1954326171875,1.7656999826431274,0.9602999687194824,3.003199815750122
1705061801095432700,14.2554326171875,2.7269999980926514,1.212899923324585,3.88919997215271
1705061801155432700,14.3154326171875,3.3665997982025146,1.7750999927520752,4.713799953460693
1705061801215432700,14.3754326171875,1.8113999366760254,2.381899833679199,5.7581000328063965
1705061801275432700,14.4354326171875,-0.24709999561309814,3.2204999923706055,5.8065996170043945
1705061801335432700,14.4954326171875,-0.5457000136375427,4.972799777984619,3.5583999156951904
1705061801395432700,14.5554326171875,-1.2307000160217285,7.763599872589111,2.3977999687194824
1705061801455432700,14.6154326171875,-0.9388999938964844,3.4696998596191406,2.0329999923706055
1705061801515432700,14.6754326171875,2.6526999473571777,-0.683899998664856,1.668299913406372
1705061801575432700,14.7354326171875,2.875499963760376,-1.131500005722046,-1.2716000080108643
1705061801635432700,14.7954326171875,2.7809998989105225,0.801099956035614,-2.5109000205993652
1705061801695432700,14.8554326171875,2.8264000415802,1.594499945640564,-3.7585999965667725
1705061801755432700,14.9154326171875,2.230599880218506,1.525999903678894,-6.247200012207031
1705061801815432700,14.9754326171875,1.7802000045776367,0.14309999346733093,-8.632100105285645
1705061801875432700,15.0354326171875,1.396899938583374,1.7852998971939087,-5.700099945068359
1705061801935432700,15.0954326171875,0.3774999976158142,4.902499675750732,-4.344099998474121
1705061801995432700,15.1554326171875,1.0052999258041382,4.319999694824219,-2.7137999534606934
1705061802055432700,15.2154326171875,1.3782999515533447,1.8467999696731567,0.10969999432563782
1705061802115432700,15.2754326171875,2.670599937438965,0.181099995970726,1.3460999727249146
1705061802175432700,15.3354326171875,4.340199947357178,1.768799901008606,2.0924999713897705
1705061802235432700,15.3954326171875,4.5903000831604,5.76669979095459,2.0950000286102295
1705061802295432700,15.4554326171875,2.4495999813079834,6.342899799346924,5.741699695587158
1705061802355432700,15.5154326171875,-0.4870999753475189,4.080999851226807,8.560999870300293
1705061802415432700,15.5754326171875,-2.115299940109253,1.996999979019165,5.198899745941162
1705061802475432700,15.6354326171875,-1.1132999658584595,6.330899715423584,5.258299827575684
1705061802535432700,15.6954326171875,0.11769999563694,2.8376998901367188,2.105599880218506
1705061802595432700,15.7554326171875,1.000499963760376,-0.40359997749328613,1.6317999362945557
1705061802655432700,15.8154326171875,2.7509000301361084,0.31129997968673706,0.42829999327659607
1705061802715432700,15.8754326171875,2.3966000080108643,2.436300039291382,-2.1031999588012695
1705061802775432700,15.9354326171875,2.8877999782562256,0.4404999911785126,-4.6417999267578125
1705061802835432700,15.9954326171875,3.6253998279571533,1.730199933052063,-7.115900039672852
1705061802895432700,16.0554326171875,2.596799850463867,1.4699000120162964,-8.591099739074707
1705061802955432700,16.1154326171875,1.9936999082565308,3.448199987411499,-6.102799892425537
1705061803015432700,16.1754326171875,1.1405999660491943,3.209199905395508,-3.7623000144958496
1705061803075432700,16.2354326171875,0.3236999809741974,5.321700096130371,-1.1618999242782593
1705061803135432700,16.2954326171875,1.0993999242782593,1.4218999147415161,1.0677999258041382
1705061803195432700,16.3554326171875,2.0964999198913574,1.4989999532699585,1.7867999076843262
1705061803255432700,16.4154326171875,3.7064998149871826,2.164599895477295,3.2200000286102295
1705061803315432700,16.4754326171875,3.473299980163574,3.3622000217437744,5.190899848937988
1705061803375432700,16.5354326171875,2.314300060272217,3.620999813079834,6.586199760437012
1705061803435432700,16.5954326171875,0.20430000126361847,1.6775000095367432,5.759999752044678
1705061803495432700,16.6554326171875,0.14159999787807465,4.069799900054932,6.568699836730957
1705061803555432700,16.7154326171875,2.183300018310547,6.660799980163574,4.182199954986572
1705061803615432700,16.7754326171875,0.4310999810695648,7.452499866485596,1.4498000144958496
1705061803675432700,16.8354326171875,-0.44919997453689575,1.0037999153137207,-0.48809999227523804
1705061803735432700,16.8954326171875,3.072000026702881,0.21369999647140503,-0.3880999982357025
1705061803795432700,16.9554326171875,2.116499900817871,1.789099931716919,-2.2585999965667725
1705061803855432700,17.0154326171875,2.0578999519348145,1.7484999895095825,-5.844899654388428
1705061803915432700,17.0754326171875,1.6999999284744263,-0.5924000144004822,-8.807600021362305
1705061803975432700,17.1354326171875,1.336899995803833,0.3449999988079071,-7.604300022125244
1705061804035432700,17.1954326171875,1.4025999307632446,1.2549999952316284,-7.50469970703125
1705061804095432700,17.2554326171875,2.096400022506714,4.908599853515625,-5.356499671936035
1705061804155432700,17.3154326171875,1.3055999279022217,7.230999946594238,-1.9632999897003174
1705061804215432700,17.3754326171875,-0.3360999822616577,6.389199733734131,1.8899999856948853
1705061804275432700,17.4354326171875,1.354699969291687,1.455299973487854,2.8207998275756836
1705061804335432700,17.4954326171875,3.213399887084961,2.4094998836517334,6.328099727630615
1705061804395432700,17.5554326171875,2.8499999046325684,2.0913000106811523,4.93779993057251
1705061804455432700,17.6154326171875,2.25,2.699199914932251,4.686699867248535
1705061804515432700,17.6754326171875,0.6061999797821045,2.9968998432159424,5.653199672698975
1705061804575432700,17.7354326171875,-0.3662000000476837,4.950500011444092,4.03410005569458
1705061804635432700,17.7954326171875,-0.2818000018596649,6.366499900817871,3.398099899291992
1705061804695432700,17.8554326171875,-2.064300060272217,6.102200031280518,1.3697999715805054
1705061804755432700,17.9154326171875,-2.979599952697754,0.19499999284744263,0.3044999837875366
1705061804815432700,17.9754326171875,1.7215999364852905,-2.421799898147583,2.234099864959717
1705061804875432700,18.0354326171875,1.4218000173568726,1.876099944114685,-2.384199857711792
1705061804935432700,18.0954326171875,-0.8560000061988831,0.6333000063896179,-3.997799873352051
1705061804995432700,18.1554326171875,3.6213998794555664,0.11319999396800995,-4.780699729919434
1705061805055432700,18.2154326171875,3.608099937438965,1.4713000059127808,-4.3059000968933105
1705061805115432700,18.2754326171875,3.5151000022888184,2.3825998306274414,-4.483299732208252
1705061805175432700,18.3354326171875,3.173799991607666,4.933799743652344,-2.3352999687194824
1705061805235432700,18.3954326171875,2.039099931716919,3.868299961090088,-1.5329999923706055
1705061805295432700,18.4554326171875,0.8852999806404114,0.9050999879837036,1.1060999631881714
1705061805355432700,18.5154326171875,1.5230000019073486,0.2874000072479248,1.8983999490737915
1705061805415432700,18.5754326171875,2.9972000122070312,0.17329999804496765,1.892899990081787
1705061805475432700,18.6354326171875,3.8777999877929688,0.8032999634742737,3.681199789047241
1705061805535432700,18.6954326171875,3.0532000064849854,2.5989999771118164,4.155699729919434
1705061805595432700,18.7554326171875,-0.5479999780654907,3.030900001525879,5.071599960327148
1705061805655432700,18.8154326171875,-0.7401999831199646,3.819899797439575,5.283400058746338
1705061805715432700,18.8754326171875,0.4562999904155731,6.177199840545654,3.6962997913360596
1705061805775432700,18.9354326171875,0.09099999815225601,6.566699981689453,2.109099864959717
1705061805835432700,18.9954326171875,2.3722000122070312,1.5795999765396118,0.784500002861023
1705061805895432700,19.0554326171875,3.922799825668335,0.33730000257492065,-0.5586000084877014
1705061805955432700,19.1154326171875,3.6250998973846436,2.606299877166748,-1.5148999691009521
1705061806015432700,19.1754326171875,4.492599964141846,1.4577000141143799,-5.249899864196777
1705061806075432700,19.2354326171875,5.678899765014648,0.9233999848365784,-7.673199653625488
1705061806135432700,19.2954326171875,3.22189998626709,1.2024999856948853,-8.534500122070312
1705061806195432700,19.3554326171875,3.2898998260498047,2.259500026702881,-8.109700202941895
1705061806255432700,19.4154326171875,0.16300000250339508,7.121399879455566,-2.3120999336242676
1705061806315432700,19.4754326171875,-0.5565999746322632,8.778900146484375,-0.039000000804662704
1705061806375432700,19.5354326171875,1.180299997329712,3.272599935531616,0.13279999792575836
1705061806435432700,19.5954326171875,2.80079984664917,-0.7633000016212463,1.6514999866485596
1705061806495432700,19.6554326171875,4.827600002288818,0.8166999816894531,2.379999876022339
1705061806555432700,19.7154326171875,4.887899875640869,3.8805999755859375,4.025599956512451
1705061806615432700,19.7754326171875,3.883699893951416,7.000899791717529,6.314899921417236
1705061806675432700,19.8354326171875,0.6735000014305115,5.204599857330322,7.356400012969971
1705061806735432700,19.8954326171875,0.27230000495910645,1.4782999753952026,4.135499954223633
1705061806795432700,19.9554326171875,-0.7633000016212463,4.057499885559082,4.215699672698975
1705061806855432700,20.0154326171875,-1.0081000328063965,5.7153000831604,3.5160999298095703
1705061806915432700,20.0754326171875,-1.94569993019104,3.760499954223633,-0.1859000027179718
1705061806975432700,20.1354326171875,1.5927000045776367,-1.5658999681472778,-0.024299999698996544
1705061807035432700,20.1954326171875,3.0443999767303467,-0.7024999856948853,-4.291500091552734
1705061807095432700,20.2554326171875,0.17949999868869781,4.088699817657471,-2.6606998443603516
1705061807155432700,20.3154326171875,5.777899742126465,1.9555999040603638,-4.668099880218506
1705061807215432700,20.3754326171875,8.038999557495117,0.9912999868392944,-4.332600116729736
1705061807275432700,20.4354326171875,2.711699962615967,3.054800033569336,-5.747499942779541
1705061807335432700,20.4954326171875,0.5564999580383301,4.537799835205078,-1.0099999904632568
1705061807395432700,20.5554326171875,0.25839999318122864,4.559299945831299,-0.6341999769210815
1705061807455432700,20.6154326171875,0.28919997811317444,1.4986000061035156,-0.39159998297691345
1705061807515432700,20.6754326171875,0.11169999837875366,-0.46709999442100525,1.5781999826431274
1705061807575432700,20.7354326171875,2.0040998458862305,-0.7392999529838562,2.210399866104126
1705061807635432700,20.7954326171875,3.3755998611450195,-0.6437000036239624,3.7563998699188232
1705061807695432700,20.8554326171875,4.493199825286865,1.1187999248504639,3.343600034713745
1705061807755432700,20.9154326171875,1.6384999752044678,6.742199897766113,4.365600109100342
1705061807815432700,20.9754326171875,-2.6504998207092285,6.07889986038208,5.007999897003174
1705061807875432700,21.0354326171875,-2.2224998474121094,4.318399906158447,4.873899936676025
1705061807935432700,21.0954326171875,-0.4834999740123749,4.799900054931641,3.6791999340057373
1705061807995432700,21.1554326171875,1.5857999324798584,1.5382999181747437,0.9217000007629395
1705061808055432700,21.2154326171875,2.9176998138427734,-0.06549999862909317,-0.42499998211860657
1705061808115432700,21.2754326171875,3.137899875640869,1.1948000192642212,-0.9843999743461609
1705061808175432700,21.3354326171875,4.370299816131592,0.8050999641418457,-2.5018999576568604
1705061808235432700,21.3954326171875,5.813199996948242,-0.045399997383356094,-4.9679999351501465
1705061808295432700,21.4554326171875,3.595599889755249,1.0930999517440796,-6.765999794006348
1705061808355432700,21.5154326171875,4.039400100708008,0.9208999872207642,-9.151800155639648
1705061808415432700,21.5754326171875,1.4005999565124512,6.7820000648498535,-3.9158999919891357
1705061808475432700,21.6354326171875,1.347000002861023,3.3387999534606934,-2.3073999881744385
1705061808535432700,21.6954326171875,1.313499927520752,4.659899711608887,-1.6105999946594238
1705061808595432700,21.7554326171875,1.2201999425888062,1.805400013923645,-0.19029998779296875
1705061808655432700,21.8154326171875,3.7901999950408936,2.144899845123291,2.371299982070923
1705061808715432700,21.8754326171875,4.77869987487793,2.2032999992370605,4.451699733734131
1705061808775432700,21.9354326171875,4.43720006942749,4.167999744415283,5.866600036621094
1705061808835432700,21.9954326171875,2.533799886703491,4.009099960327148,6.51639986038208
1705061808895432700,22.0554326171875,0.05549999698996544,3.747999906539917,5.474299907684326
1705061808955432700,22.1154326171875,-1.7023999691009521,4.619699954986572,3.874799966812134
1705061809015432700,22.1754326171875,-0.8810999989509583,6.19350004196167,2.124500036239624
1705061809075432700,22.2354326171875,0.093299999833107,2.796099901199341,1.28249990940094
1705061809135432700,22.2954326171875,2.1835999488830566,-0.5613999962806702,-0.2825999855995178
1705061809195432700,22.3554326171875,3.5227999687194824,-0.4910999834537506,-0.23429998755455017
1705061809255432700,22.4154326171875,3.36080002784729,2.7286999225616455,-1.0168999433517456
1705061809315432700,22.4754326171875,4.779999732971191,1.9204999208450317,-2.7625999450683594
1705061809375432700,22.5354326171875,3.73799991607666,1.2967000007629395,-8.627900123596191
1705061809435432700,22.5954326171875,1.4507999420166016,2.3264999389648438,-7.966399669647217
1705061809495432700,22.6554326171875,1.7243999242782593,3.495499849319458,-5.610799789428711
1705061809555432700,22.7154326171875,0.065700002014637,6.58489990234375,-2.8190999031066895
1705061809615432700,22.7754326171875,-0.0810999944806099,4.205100059509277,-0.8036999702453613
1705061809675432700,22.8354326171875,1.479099988937378,0.7550999522209167,3.1910998821258545
1705061809735432700,22.8954326171875,2.2342000007629395,0.1881999969482422,1.2727999687194824
1705061809795432700,22.9554326171875,4.519599914550781,0.6304000020027161,3.2921998500823975
1705061809855432700,23.0154326171875,5.356800079345703,2.7022998332977295,3.715099811553955
1705061809915432700,23.0754326171875,3.2163000106811523,4.154200077056885,4.385900020599365
1705061809975432700,23.1354326171875,-0.06889999657869339,4.011899948120117,7.089099884033203
1705061810035432700,23.1954326171875,-0.5083000063896179,3.4532999992370605,5.5808000564575195
1705061810095432700,23.2554326171875,0.4602999985218048,7.129799842834473,2.338599920272827
1705061810155432700,23.3154326171875,-0.17059999704360962,2.944000005722046,1.5164999961853027
1705061810215432700,23.3754326171875,1.1589999198913574,-1.0434999465942383,1.101199984550476
1705061810275432700,23.4354326171875,3.651099920272827,-1.6138999462127686,0.5160999894142151
1705061810335432700,23.4954326171875,2.999300003051758,0.7989000082015991,-2.6738998889923096
1705061810395432700,23.5554326171875,0.902899980545044,3.714599847793579,-5.249599933624268
1705061810455432700,23.6154326171875,2.5915000438690186,2.4056999683380127,-6.3379998207092285
1705061810515432700,23.6754326171875,3.6255998611450195,-0.7963999509811401,-8.70199966430664
1705061810575432700,23.7354326171875,3.167799949645996,1.19569993019104,-5.131499767303467
1705061810635432700,23.7954326171875,2.0428998470306396,5.4197998046875,-2.7440998554229736
1705061810695432700,23.8554326171875,1.2380999326705933,6.283699989318848,-1.529099941253662
1705061810755432700,23.9154326171875,2.100399971008301,1.9079999923706055,2.550999879837036
1705061810815432700,23.9754326171875,2.3095998764038086,0.5605999827384949,2.0334999561309814
1705061810875432700,24.0354326171875,3.7030999660491943,0.9926999807357788,3.850099802017212
1705061810935432700,24.0954326171875,4.164599895477295,1.3459999561309814,4.978899955749512
1705061810995432700,24.1554326171875,3.058300018310547,2.5199999809265137,6.148099899291992
1705061811055432700,24.2154326171875,-0.14090000092983246,5.166599750518799,5.701900005340576
1705061811115432700,24.2754326171875,-0.035999998450279236,2.7101998329162598,2.2581000328063965
1705061811175432700,24.3354326171875,1.3387999534606934,5.595799922943115,0.2401999980211258
1705061811235432700,24.3954326171875,0.23199999332427979,3.500699996948242,0.765500009059906
1705061811295432700,24.4554326171875,2.291300058364868,0.8405999541282654,2.7428998947143555
1705061811355432700,24.5154326171875,2.7139999866485596,1.2960000038146973,0.816100001335144
1705061811415432700,24.5754326171875,3.8805999755859375,0.683899998664856,-1.0606999397277832
1705061811475432700,24.6354326171875,4.260900020599365,-0.6929999589920044,-4.448400020599365
1705061811535432700,24.6954326171875,2.28439998626709,-0.10080000013113022,-6.892899990081787
1705061811595434200,24.755434326171876,1.810499906539917,2.6907999515533447,-7.413899898529053
1705061811655432700,24.8154326171875,1.6273999214172363,4.008199691772461,-6.123199939727783
1705061811715432700,24.8754326171875,0.7900999784469604,4.76099967956543,-4.246999740600586
1705061811775432700,24.9354326171875,1.1002999544143677,4.770999908447266,-2.617799997329712
1705061811835432700,24.9954326171875,1.378000020980835,2.199399948120117,2.134500026702881
1705061811895432700,25.0554326171875,2.4635000228881836,1.069599986076355,1.2638999223709106
1705061811955432700,25.1154326171875,5.438799858093262,2.440199851989746,2.5976998805999756
1705061812015432700,25.1754326171875,5.567399978637695,3.9007999897003174,3.6347999572753906
1705061812075432700,25.2354326171875,4.711899757385254,5.031799793243408,5.853999614715576
1705061812135432700,25.2954326171875,1.9959999322891235,4.020699977874756,6.165099620819092
1705061812195432700,25.3554326171875,-0.670199990272522,2.9733998775482178,5.587399959564209
1705061812255432700,25.4154326171875,-0.45639997720718384,5.9467997550964355,1.4499999284744263
1705061812315432700,25.4754326171875,-0.6227999925613403,4.494800090789795,3.729599952697754
1705061812375432700,25.5354326171875,-0.7836999893188477,1.0419999361038208,-0.31219998002052307
1705061812435432700,25.5954326171875,4.106299877166748,-1.0662000179290771,1.1442999839782715
1705061812495432700,25.6554326171875,3.66159987449646,1.2461999654769897,-1.9354000091552734
1705061812555432700,25.7154326171875,2.243000030517578,3.5316998958587646,-3.850299835205078
1705061812615432700,25.7754326171875,3.5005998611450195,2.3770999908447266,-6.792699813842773
1705061812675432700,25.8354326171875,2.882999897003174,2.898900032043457,-9.024799346923828
1705061812735432700,25.8954326171875,1.9345999956130981,0.8941999673843384,-6.751999855041504
1705061812795432700,25.9554326171875,1.6912999153137207,5.3979997634887695,-4.730599880218506
1705061812855432700,26.0154326171875,0.9417999982833862,6.26609992980957,-2.9485998153686523
1705061812915432700,26.0754326171875,0.8986999988555908,3.2166998386383057,4.253900051116943
1705061812975432700,26.1354326171875,2.110300064086914,0.1597999930381775,-0.6524999737739563
1705061813035432700,26.1954326171875,4.626999855041504,0.6776999831199646,3.5023999214172363
1705061813095432700,26.2554326171875,5.244800090789795,2.503200054168701,3.985499858856201
1705061813155432700,26.3154326171875,3.780399799346924,4.301000118255615,4.762899875640869
1705061813215434200,26.375434326171874,0.2920999825000763,2.20989990234375,5.451299667358398
1705061813275432700,26.4354326171875,-1.3351999521255493,4.916599750518799,5.240099906921387
1705061813335432700,26.4954326171875,0.5234000086784363,6.083600044250488,2.730799913406372
1705061813395432700,26.5554326171875,0.3862999975681305,4.581099987030029,3.1648998260498047
1705061813455434200,26.615434326171876,0.28290000557899475,-0.20889998972415924,0.07739999890327454
1705061813515432700,26.6754326171875,3.9208998680114746,-1.9016000032424927,1.6175999641418457
1705061813575432700,26.7354326171875,4.108099937438965,0.42239999771118164,-2.2582998275756836
1705061813635432700,26.7954326171875,1.190999984741211,2.655400037765503,-3.5117998123168945
1705061813695432700,26.8554326171875,1.5891999006271362,3.2154998779296875,-5.388400077819824
1705061813755432700,26.9154326171875,3.0244998931884766,1.1409999132156372,-7.272599697113037
1705061813815432700,26.9754326171875,1.8509999513626099,1.5931999683380127,-6.378200054168701
1705061813875432700,27.0354326171875,1.5413999557495117,4.319999694824219,-4.157099723815918
1705061813935432700,27.0954326171875,1.2668999433517456,5.36899995803833,-2.6129000186920166
1705061813995432700,27.1554326171875,1.0263999700546265,1.9148999452590942,1.2436000108718872
1705061814055432700,27.2154326171875,2.0432000160217285,-1.3084999322891235,0.15079998970031738
1705061814115432700,27.2754326171875,4.470200061798096,-0.692799985408783,2.7107999324798584
1705061814175432700,27.3354326171875,5.485199928283691,1.6459999084472656,2.566499948501587
1705061814235432700,27.3954326171875,4.3780999183654785,4.103699684143066,3.0264999866485596
1705061814295432700,27.4554326171875,1.3386999368667603,3.2151999473571777,6.081500053405762
1705061814355432700,27.5154326171875,-0.9501999616622925,4.549599647521973,6.93619966506958
1705061814415432700,27.5754326171875,0.4412999749183655,3.4677000045776367,2.025899887084961
1705061814475432700,27.6354326171875,0.788100004196167,5.745199680328369,2.3461999893188477
1705061814535432700,27.6954326171875,-0.17999999225139618,1.5478999614715576,0.0892999991774559
1705061814595432700,27.7554326171875,3.952699899673462,-1.5104999542236328,0.9213999509811401
1705061814655432700,27.8154326171875,4.101900100708008,-0.4813999831676483,-1.1039999723434448
1705061814715432700,27.8754326171875,2.0232999324798584,1.7039999961853027,-2.898200035095215
1705061814775432700,27.9354326171875,2.116799831390381,2.2431998252868652,-5.338399887084961
1705061814835432700,27.9954326171875,1.889299988746643,0.9412999749183655,-7.217899799346924
1705061814895432700,28.0554326171875,1.6617000102996826,1.1404999494552612,-7.3451995849609375
1705061814955432700,28.1154326171875,1.105299949645996,5.164999961853027,-4.329999923706055
1705061815015432700,28.1754326171875,0.7041999697685242,4.753900051116943,-3.2563998699188232
1705061815075432700,28.2354326171875,1.3431999683380127,2.9166998863220215,-0.13369999825954437
1705061815135432700,28.2954326171875,1.6004999876022339,0.09969999641180038,0.5548999905586243
1705061815195432700,28.3554326171875,3.89739990234375,0.7529000043869019,2.2941999435424805
1705061815255432700,28.4154326171875,5.039700031280518,1.9598000049591064,3.0902998447418213
1705061815315432700,28.4754326171875,4.809000015258789,4.6666998863220215,3.4763998985290527
1705061815375432700,28.5354326171875,3.2026000022888184,2.9256999492645264,5.264199733734131
1705061815435432700,28.5954326171875,0.48069998621940613,5.039299964904785,4.884699821472168
1705061815495432700,28.6554326171875,-0.7049999833106995,4.183199882507324,4.171099662780762
1705061815555432700,28.7154326171875,0.9215999841690063,6.557299613952637,3.2441999912261963
1705061815615432700,28.7754326171875,-0.9580999612808228,1.0063999891281128,0.8544999957084656
1705061815675432700,28.8354326171875,1.5620999336242676,-2.571499824523926,0.5159000158309937
1705061815735432700,28.8954326171875,5.0183000564575195,-1.8884999752044678,0.07899999618530273
1705061815795432700,28.9554326171875,2.8722000122070312,3.8320999145507812,-3.5927999019622803
1705061815855432700,29.0154326171875,1.1583999395370483,4.428899765014648,-4.094200134277344
1705061815915432700,29.0754326171875,3.2171998023986816,0.22190000116825104,-6.43149995803833
1705061815975432700,29.1354326171875,3.4948999881744385,0.6204999685287476,-7.762399673461914
1705061816035432700,29.1954326171875,1.309499979019165,5.554599761962891,-4.485699653625488
1705061816095432700,29.2554326171875,-0.34289997816085815,5.521399974822998,-2.550999879837036
1705061816155432700,29.3154326171875,0.6110000014305115,2.324399948120117,0.670799970626831
1705061816215432700,29.3754326171875,0.9419999718666077,-0.9756999611854553,1.774899959564209
1705061816275432700,29.4354326171875,2.8259999752044678,-0.26579999923706055,0.7342000007629395
1705061816335432700,29.4954326171875,5.041199684143066,1.236799955368042,2.6029000282287598
1705061816395432700,29.5554326171875,4.529599666595459,3.722899913787842,2.7555999755859375
1705061816455432700,29.6154326171875,2.3526999950408936,3.9699997901916504,6.139899730682373
1705061816515432700,29.6754326171875,1.045300006866455,4.143499851226807,7.386899948120117
1705061816575432700,29.7354326171875,0.06560000032186508,2.1549999713897705,4.821399688720703
1705061816635432700,29.7954326171875,0.8978999853134155,5.870899677276611,1.5008999109268188
1705061816695432700,29.8554326171875,-0.5841000080108643,2.909099817276001,-0.29919999837875366
1705061816755432700,29.9154326171875,3.057799816131592,-0.6342999935150146,0.35740000009536743
1705061816815432700,29.9754326171875,3.447399854660034,-0.7347999811172485,-1.9529999494552612
1705061816875432700,30.0354326171875,3.22409987449646,0.6496999859809875,-4.032599925994873
1705061816935432700,30.0954326171875,2.2523000240325928,1.584399938583374,-6.455899715423584
1705061816995432700,30.1554326171875,1.1963999271392822,1.4496999979019165,-6.3516998291015625
1705061817055432700,30.2154326171875,2.5295000076293945,1.4341999292373657,-7.179800033569336
1705061817115432700,30.2754326171875,1.8121999502182007,2.395599842071533,-4.420799732208252
1705061817175432700,30.3354326171875,0.5295000076293945,6.8282999992370605,-3.2542998790740967
1705061817235432700,30.3954326171875,1.4092999696731567,5.929100036621094,0.14000000059604645
1705061817295432700,30.4554326171875,1.2324999570846558,0.6355999708175659,0.586899995803833
1705061817355432700,30.5154326171875,3.116299867630005,0.02459999918937683,2.5155999660491943
1705061817415432700,30.5754326171875,5.297399997711182,1.6484999656677246,3.3406999111175537
1705061817475432700,30.6354326171875,5.054500102996826,3.6633999347686768,3.940199851989746
1705061817535432700,30.6954326171875,3.250999927520752,4.026700019836426,5.794899940490723
1705061817595432700,30.7554326171875,1.1460000276565552,2.7318999767303467,5.906399726867676
1705061817655432700,30.8154326171875,-0.7705000042915344,2.5765998363494873,4.838500022888184
1705061817715432700,30.8754326171875,0.13660000264644623,5.926799774169922,1.1038999557495117
1705061817775432700,30.9354326171875,-1.674399971961975,3.8454999923706055,1.017899990081787
1705061817835432700,30.9954326171875,0.7493999600410461,-0.6936999559402466,-0.20229999721050262
1705061817895432700,31.0554326171875,4.608999729156494,-1.3274999856948853,0.5525999665260315
1705061817955432700,31.1154326171875,3.260699987411499,1.3737000226974487,-3.2393999099731445
1705061818015432700,31.1754326171875,1.160599946975708,1.681399941444397,-4.914899826049805
1705061818075432700,31.2354326171875,2.2664999961853027,1.2375999689102173,-5.33489990234375
1705061818135432700,31.2954326171875,2.7891998291015625,1.9615999460220337,-7.355899810791016
1705061818195432700,31.3554326171875,2.200399875640869,2.481600046157837,-4.952499866485596
1705061818255432700,31.4154326171875,2.001199960708618,4.875699996948242,-3.597399950027466
1705061818315432700,31.4754326171875,2.0983998775482178,3.9149999618530273,-2.3187999725341797
1705061818375432700,31.5354326171875,1.3133999109268188,0.07249999791383743,0.6827999949455261
1705061818435432700,31.5954326171875,2.5460000038146973,-1.2412999868392944,1.0282000303268433
1705061818495432700,31.6554326171875,4.517899990081787,0.7261999845504761,2.032099962234497
1705061818555432700,31.7154326171875,4.492499828338623,4.851200103759766,2.134000062942505
1705061818615432700,31.7754326171875,1.4954999685287476,3.8332998752593994,7.158299922943115
1705061818675432700,31.8354326171875,1.4383999109268188,3.1401000022888184,7.536499977111816
1705061818735432700,31.8954326171875,0.5935999751091003,4.370699882507324,5.4868998527526855
1705061818795432700,31.9554326171875,-0.6126999855041504,6.941499710083008,2.113800048828125
1705061818855432700,32.0154326171875,-0.41509997844696045,1.743899941444397,1.583899974822998
1705061818915432700,32.0754326171875,3.2863998413085938,-2.654599905014038,0.0510999970138073
1705061818975432700,32.1354326171875,3.9951999187469482,-1.6277999877929688,-1.3881999254226685
1705061819035432700,32.1954326171875,2.5009000301361084,1.0210999250411987,-3.232599973678589
1705061819095432700,32.2554326171875,2.311699867248535,2.240499973297119,-4.553999900817871
1705061819155432700,32.3154326171875,3.3270998001098633,2.441999912261963,-6.300099849700928
1705061819215432700,32.3754326171875,2.7416000366210938,4.3043999671936035,-7.51669979095459
1705061819275432700,32.4354326171875,-0.09759999811649323,2.2214999198913574,-2.652899980545044
1705061819335432700,32.4954326171875,0.7935000061988831,5.304599761962891,-2.1498000621795654
1705061819395432700,32.5554326171875,-0.09139999747276306,2.0725998878479004,-0.7757999897003174
1705061819455432700,32.6154326171875,1.3199999332427979,-2.9726998805999756,2.461199998855591
1705061819515432700,32.6754326171875,2.6710000038146973,-2.5399999618530273,0.18699999153614044
1705061819575432700,32.7354326171875,5.165999889373779,0.3804999887943268,1.5964999198913574
1705061819635432700,32.7954326171875,4.482199668884277,2.5332000255584717,2.3127999305725098
1705061819695432700,32.8554326171875,2.9495999813079834,5.577199935913086,3.4197998046875
1705061819755432700,32.9154326171875,0.8520999550819397,4.734499931335449,5.904599666595459
1705061819815432700,32.9754326171875,-0.75409996509552,0.6114000082015991,3.718599796295166
1705061819875432700,33.0354326171875,-1.611799955368042,5.9918999671936035,1.1556999683380127
1705061819935432700,33.0954326171875,-1.1746000051498413,1.833899974822998,1.9997999668121338
1705061819995432700,33.1554326171875,1.3167999982833862,-2.467599868774414,0.46389999985694885
1705061820055432700,33.2154326171875,3.68149995803833,-2.9891998767852783,0.7364999651908875
1705061820115432700,33.2754326171875,3.2616000175476074,-1.0652999877929688,-1.3166999816894531
1705061820175432700,33.3354326171875,2.9621999263763428,0.5127999782562256,-2.2757999897003174
1705061820235432700,33.3954326171875,2.9456000328063965,3.307799816131592,-3.4963998794555664
1705061820295432700,33.4554326171875,3.108099937438965,1.8539999723434448,-5.209699630737305
1705061820355432700,33.5154326171875,1.6766999959945679,3.357499837875366,-5.122200012207031
1705061820415432700,33.5754326171875,0.40039998292922974,3.937199831008911,-2.061499834060669
1705061820475432700,33.6354326171875,0.07149999588727951,3.2268998622894287,-2.011399984359741
1705061820535432700,33.6954326171875,1.5956999063491821,-1.0587999820709229,-0.3698999881744385
1705061820595432700,33.7554326171875,1.5042999982833862,-2.7976999282836914,0.9466999769210815
1705061820655432700,33.8154326171875,2.9196999073028564,-0.7651000022888184,1.983799934387207
1705061820715432700,33.8754326171875,3.385499954223633,0.005200000014156103,3.777899980545044
1705061820775432700,33.9354326171875,3.3483998775482178,3.4735000133514404,3.404599905014038
1705061820835432700,33.9954326171875,0.04149999842047691,3.4457998275756836,4.78879976272583
1705061820895432700,34.0554326171875,-0.07859999686479568,3.0697999000549316,3.1740000247955322
1705061820955432700,34.1154326171875,-0.12029999494552612,4.052199840545654,3.469599962234497
1705061821015432700,34.1754326171875,-0.8632999658584595,5.971999645233154,1.9205999374389648
1705061821075432700,34.2354326171875,-0.003700000001117587,-0.5546000003814697,1.7955999374389648
1705061821135432700,34.2954326171875,3.4258999824523926,-2.7962000370025635,1.5983999967575073
1705061821195432700,34.3554326171875,3.3197999000549316,-0.5250999927520752,-0.02759999968111515
1705061821255432700,34.4154326171875,3.8215999603271484,1.9418998956680298,-1.0648999214172363
1705061821315432700,34.4754326171875,3.9094998836517334,1.711300015449524,-2.6290998458862305
1705061821375432700,34.5354326171875,4.472499847412109,1.1733999252319336,-5.281899929046631
1705061821435432700,34.5954326171875,2.9417998790740967,1.886299967765808,-6.273900032043457
1705061821495432700,34.6554326171875,2.27810001373291,5.1793999671936035,-4.924299716949463
1705061821555432700,34.7154326171875,0.9412999749183655,3.704399824142456,-4.048299789428711
1705061821615432700,34.7754326171875,0.9678999781608582,2.765399932861328,-3.308799982070923
1705061821675432700,34.8354326171875,2.2523999214172363,1.6995999813079834,0.3310999870300293
1705061821735432700,34.8954326171875,3.311699867248535,2.3652000427246094,0.7222999930381775
1705061821795434200,34.955434326171876,5.264599800109863,3.2261998653411865,2.699399948120117
1705061821855432700,35.0154326171875,4.928199768066406,3.4198999404907227,4.705599784851074
1705061821915432700,35.0754326171875,4.585999965667725,4.566999912261963,5.348299980163574
1705061821975432700,35.1354326171875,1.3178999423980713,1.285599946975708,6.537099838256836
1705061822035432700,35.1954326171875,-0.28519999980926514,1.6870999336242676,4.822400093078613
1705061822095432700,35.2554326171875,1.6166999340057373,7.892499923706055,2.3732998371124268
1705061822155432700,35.3154326171875,-0.14389999210834503,5.7388997077941895,1.965399980545044
1705061822215432700,35.3754326171875,-0.13130000233650208,0.8233000040054321,-0.574400007724762
1705061822275432700,35.4354326171875,4.500699996948242,-1.1776000261306763,1.1064000129699707
1705061822335432700,35.4954326171875,3.6382999420166016,1.838499903678894,-2.8901000022888184
1705061822395432700,35.5554326171875,1.983199954032898,3.3306000232696533,-4.358699798583984
1705061822455432700,35.6154326171875,3.2525999546051025,1.4960999488830566,-6.245699882507324
1705061822515432700,35.6754326171875,2.8295998573303223,-0.12379999458789825,-7.80049991607666
1705061822575432700,35.7354326171875,3.577199935913086,1.1579999923706055,-7.787199974060059
1705061822635432700,35.7954326171875,2.0269999504089355,6.6230998039245605,-3.471599817276001
1705061822695432700,35.8554326171875,2.2513999938964844,6.777099609375,-2.42579984664917
1705061822755432700,35.9154326171875,1.8483999967575073,4.1479997634887695,-0.3743000030517578
1705061822815432700,35.9754326171875,1.6750999689102173,1.2582999467849731,2.895599842071533
1705061822875432700,36.0354326171875,3.186199903488159,1.0791000127792358,3.019899845123291
1705061822935432700,36.0954326171875,4.0843000411987305,1.003999948501587,4.214099884033203
1705061822995432700,36.1554326171875,4.445699691772461,2.9654998779296875,4.376800060272217
1705061823055432700,36.2154326171875,1.3040999174118042,1.8197999000549316,6.928799629211426
1705061823115432700,36.2754326171875,-0.5013999938964844,4.5792999267578125,3.9236998558044434
1705061823175432700,36.3354326171875,-0.6936999559402466,8.432700157165527,1.3840999603271484
1705061823235432700,36.3954326171875,-0.3367999792098999,5.079899787902832,1.5805000066757202
1705061823295432700,36.4554326171875,0.7303000092506409,-0.32499998807907104,1.1854000091552734
1705061823355432700,36.5154326171875,4.240699768066406,-1.8596999645233154,1.0694999694824219
1705061823415432700,36.5754326171875,3.602799892425537,0.013299999758601189,-1.6071999073028564
1705061823475432700,36.6354326171875,3.3519999980926514,1.7604999542236328,-2.9159998893737793
1705061823535432700,36.6954326171875,4.112400054931641,2.2862000465393066,-3.9485998153686523
1705061823595432700,36.7554326171875,3.5433998107910156,2.2163000106811523,-6.216099739074707
1705061823655432700,36.8154326171875,2.722599983215332,0.6071000099182129,-6.76099967956543
1705061823715432700,36.8754326171875,2.508699893951416,5.63569974899292,-4.842099666595459
1705061823775432700,36.9354326171875,0.6122999787330627,6.5548996925354,-3.015399932861328
1705061823835432700,36.9954326171875,0.1824999898672104,3.2375998497009277,0.9423999786376953
1705061823895432700,37.0554326171875,1.5978000164031982,0.2687999904155731,0.8026999831199646
1705061823955432700,37.1154326171875,3.665299892425537,0.6872999668121338,2.902599811553955
1705061824015432700,37.1754326171875,4.449100017547607,1.504499912261963,3.8932998180389404
1705061824075432700,37.2354326171875,4.123899936676025,4.086699962615967,3.3005998134613037
1705061824135432700,37.2954326171875,2.4315998554229736,3.25219988822937,4.593999862670898
1705061824195432700,37.3554326171875,1.124899983406067,4.434999942779541,5.728099822998047
1705061824255432700,37.4154326171875,3.013000011444092,3.4691998958587646,4.963699817657471
1705061824315432700,37.4754326171875,3.0748000144958496,5.616499900817871,2.3671998977661133
1705061824375432700,37.5354326171875,1.419600009918213,2.3903000354766846,-0.13089999556541443
1705061824435432700,37.5954326171875,1.5745999813079834,-0.1687999963760376,-0.8068999648094177
1705061824495432700,37.6554326171875,3.6564998626708984,1.110700011253357,1.2213000059127808
1705061824555432700,37.7154326171875,2.5813000202178955,3.4803998470306396,-1.4559999704360962
1705061824615432700,37.7754326171875,3.384199857711792,2.385200023651123,-5.5177998542785645
1705061824675432700,37.8354326171875,2.490499973297119,0.8016999959945679,-8.284099578857422
1705061824735432700,37.8954326171875,3.9955999851226807,3.033799886703491,-6.501999855041504
1705061824795432700,37.9554326171875,3.893099784851074,3.607499837875366,-5.513499736785889
1705061824855432700,38.0154326171875,2.6836998462677,6.419399738311768,-2.989300012588501
1705061824915432700,38.0754326171875,1.7264999151229858,6.6280999183654785,-0.8590999841690063
1705061824975432700,38.1354326171875,2.1122000217437744,2.1499998569488525,0.8098999857902527
1705061825035432700,38.1954326171875,4.0868000984191895,1.7252999544143677,1.374400019645691
1705061825095432700,38.2554326171875,5.315099716186523,3.0983998775482178,2.287099838256836
1705061825155432700,38.3154326171875,5.046999931335449,2.634199857711792,4.974699974060059
1705061825215432700,38.3754326171875,3.956399917602539,3.8320999145507812,6.801599979400635
1705061825275432700,38.4354326171875,0.09160000085830688,4.847799777984619,7.085599899291992
1705061825335432700,38.4954326171875,0.19579999148845673,5.957799911499023,4.619999885559082
1705061825395432700,38.5554326171875,0.7738999724388123,8.3774995803833,4.121699810028076
1705061825455432700,38.6154326171875,0.42289999127388,3.746299982070923,0.8420999646186829
1705061825515432700,38.6754326171875,0.7489999532699585,-0.06989999860525131,0.1647000014781952
1705061825575432700,38.7354326171875,4.711599826812744,0.5928999781608582,1.5906000137329102
1705061825635432700,38.7954326171875,3.206899881362915,3.5871999263763428,-2.6720998287200928
1705061825695432700,38.8554326171875,2.261199951171875,2.2105000019073486,-3.615499973297119
1705061825755432700,38.9154326171875,4.192299842834473,0.36910000443458557,-5.711799621582031
1705061825815432700,38.9754326171875,5.489999771118164,0.5490999817848206,-7.332499980926514
1705061825875432700,39.0354326171875,3.8127999305725098,2.632999897003174,-6.105999946594238
1705061825935432700,39.0954326171875,2.7166998386383057,6.242599964141846,-4.110300064086914
1705061825995432700,39.1554326171875,1.802299976348877,7.365299701690674,-1.9703999757766724
1705061826055432700,39.2154326171875,1.3668999671936035,3.043599843978882,3.3093998432159424
1705061826115432700,39.2754326171875,2.211899995803833,0.8728999495506287,0.9875999689102173
1705061826175432700,39.3354326171875,3.8949999809265137,2.0429999828338623,3.2072999477386475
1705061826235432700,39.3954326171875,4.747399806976318,2.8825998306274414,3.8401999473571777
1705061826295432700,39.4554326171875,4.029799938201904,3.3152999877929688,5.263599872589111
1705061826355432700,39.5154326171875,1.2733999490737915,1.5823999643325806,6.35189962387085
1705061826415432700,39.5754326171875,-0.38979998230934143,3.0593998432159424,5.609299659729004
1705061826475432700,39.6354326171875,0.8203999996185303,3.6185998916625977,4.6743998527526855
1705061826535432700,39.6954326171875,-0.17249999940395355,8.10260009765625,2.4275999069213867
1705061826595432700,39.7554326171875,-1.2318999767303467,4.213900089263916,1.0196999311447144
1705061826655432700,39.8154326171875,2.8297998905181885,0.9442999958992004,0.7949999570846558
1705061826715432700,39.8754326171875,3.542799949645996,0.6581000089645386,0.2459999918937683
1705061826775432700,39.9354326171875,3.742799997329712,1.4860999584197998,-2.3999998569488525
1705061826835432700,39.9954326171875,3.687299966812134,1.5949000120162964,-3.9799997806549072
1705061826895432700,40.0554326171875,5.594899654388428,0.6728999614715576,-4.160999774932861
1705061826955432700,40.1154326171875,6.457099914550781,0.9697999954223633,-6.234399795532227
1705061827015432700,40.1754326171875,3.529099941253662,4.050300121307373,-3.4644999504089355
1705061827075432700,40.2354326171875,1.6181999444961548,5.672399997711182,-1.6318999528884888
1705061827135432700,40.2954326171875,-0.1947999894618988,3.782599925994873,0.2635999917984009
1705061827195432700,40.3554326171875,0.7328000068664551,0.6836999654769897,0.43479999899864197
1705061827255432700,40.4154326171875,0.8197000026702881,0.4285999834537506,-0.8797000050544739
1705061827315432700,40.4754326171875,3.9679999351501465,2.4802000522613525,1.8174999952316284
1705061827375432700,40.5354326171875,3.364300012588501,3.231099843978882,3.6359000205993652
1705061827435432700,40.5954326171875,2.9393999576568604,4.088900089263916,5.816400051116943
1705061827495432700,40.6554326171875,2.236599922180176,3.043299913406372,6.292500019073486
1705061827555432700,40.7154326171875,1.5407999753952026,2.6691999435424805,5.098700046539307
1705061827615432700,40.7754326171875,0.7203999757766724,1.1269999742507935,3.1374998092651367
1705061827675432700,40.8354326171875,1.0023000240325928,1.3489999771118164,1.4668999910354614
1705061827735432700,40.8954326171875,-1.371899962425232,2.8113999366760254,1.0925999879837036
1705061827795432700,40.9554326171875,-2.0700998306274414,3.8135998249053955,1.525999903678894
1705061827855432700,41.0154326171875,-0.7408999800682068,0.03819999843835831,1.9674999713897705
1705061827915432700,41.0754326171875,2.1103999614715576,0.1876000016927719,1.58079993724823
1705061827975432700,41.1354326171875,1.88510000705719,1.6721999645233154,-1.6288999319076538
1705061828035432700,41.1954326171875,1.3589999675750732,-0.6237999796867371,-2.375
1705061828095432700,41.2554326171875,1.7135999202728271,-0.0044999998062849045,-2.947499990463257
1705061828155432700,41.3154326171875,1.782599925994873,0.7145000100135803,-4.624499797821045
1705061828215432700,41.3754326171875,2.4951999187469482,2.4735000133514404,-5.150000095367432
1705061828275432700,41.4354326171875,2.8329999446868896,1.121399998664856,-3.4348998069763184
1705061828335432700,41.4954326171875,3.345899820327759,1.8040999174118042,-2.2458999156951904
1705061828395432700,41.5554326171875,2.6649999618530273,3.130999803543091,-0.6121000051498413
1705061828455432700,41.6154326171875,2.411900043487549,1.0954999923706055,0.3958999812602997
1705061828515432700,41.6754326171875,3.3935999870300293,-0.9750999808311462,1.398800015449524
1705061828575432700,41.7354326171875,4.55109977722168,-1.4108999967575073,2.3738999366760254
1705061828635432700,41.7954326171875,4.736299991607666,-1.0836999416351318,2.7667999267578125
1705061828695432700,41.8554326171875,4.8445000648498535,0.14880000054836273,2.732800006866455
1705061828755432700,41.9154326171875,3.7182998657226562,1.8761999607086182,3.3603999614715576
1705061828815434200,41.97543432617187,1.8305999040603638,0.9970999956130981,3.2592999935150146
1705061828875432700,42.0354326171875,1.7716000080108643,6.794299602508545,-0.014299999922513962
1705061828935432700,42.0954326171875,-1.4986999034881592,2.7430999279022217,3.274399995803833
1705061828995432700,42.1554326171875,0.6123999953269958,5.351999759674072,0.3944000005722046
1705061829055432700,42.2154326171875,1.295799970626831,0.9136999845504761,-1.1413999795913696
1705061829115432700,42.2754326171875,2.448499917984009,-2.2503998279571533,-3.1427998542785645
1705061829175432700,42.3354326171875,3.233799934387207,-0.2945999801158905,-3.595899820327759
1705061829235432700,42.3954326171875,2.5937998294830322,0.9970999956130981,-4.457099914550781
1705061829295432700,42.4554326171875,2.8557000160217285,-0.6452999711036682,-8.058799743652344
1705061829355432700,42.5154326171875,2.2674999237060547,-0.36980000138282776,-9.104399681091309
1705061829415432700,42.5754326171875,1.055400013923645,2.1826000213623047,-6.56279993057251
1705061829475432700,42.6354326171875,-0.5719000101089478,5.9593000411987305,-3.0920000076293945
1705061829535432700,42.6954326171875,1.2603999376296997,6.500999927520752,-1.2888000011444092
1705061829595432700,42.7554326171875,1.9361999034881592,4.418499946594238,-1.8566999435424805
1705061829655432700,42.8154326171875,2.7551000118255615,3.3866000175476074,-0.7217999696731567
1705061829715432700,42.8754326171875,4.107500076293945,2.2597999572753906,2.8940999507904053
1705061829775432700,42.9354326171875,3.9706997871398926,0.6326999664306641,5.2490997314453125
1705061829835432700,42.9954326171875,4.217899799346924,0.5825999975204468,6.997499942779541
1705061829895432700,43.0554326171875,1.0749000310897827,0.1793999969959259,8.659600257873535
1705061829955432700,43.1154326171875,-0.3953000009059906,2.9277000427246094,8.645500183105469
1705061830015432700,43.1754326171875,0.38519999384880066,9.055999755859375,1.256500005722046
1705061830075432700,43.2354326171875,0.4602999985218048,8.957399368286133,2.446899890899658
1705061830135432700,43.2954326171875,-0.028699999675154686,6.177499771118164,-2.4144999980926514
1705061830195432700,43.3554326171875,1.4270999431610107,2.6541998386383057,-1.6990000009536743
1705061830255432700,43.4154326171875,4.10759973526001,1.5085999965667725,-2.8048999309539795
1705061830315432700,43.4754326171875,3.9306998252868652,0.8495999574661255,-5.278899669647217
1705061830375432700,43.5354326171875,3.6053998470306396,-0.8297999501228333,-7.046099662780762
1705061830435432700,43.5954326171875,4.0731000900268555,1.3034999370574951,-7.84559965133667
1705061830495432700,43.6554326171875,4.833699703216553,2.9354000091552734,-9.194199562072754
1705061830555432700,43.7154326171875,1.4941999912261963,6.938499927520752,-3.026099920272827
1705061830615432700,43.7754326171875,0.37549999356269836,7.681299686431885,-0.5972999930381775
1705061830675432700,43.8354326171875,0.6549999713897705,6.319699764251709,-0.02589999884366989
1705061830735432700,43.8954326171875,0.6875,-1.1165000200271606,3.6676998138427734
1705061830795432700,43.9554326171875,2.897199869155884,-1.8507999181747437,1.409500002861023
1705061830855432700,44.0154326171875,4.553599834442139,0.5414999723434448,2.6171000003814697
1705061830915432700,44.0754326171875,4.837100028991699,5.1591997146606445,3.4589998722076416
1705061830975432700,44.1354326171875,1.3777999877929688,3.7720999717712402,7.969299793243408
1705061831035432700,44.1954326171875,1.7785999774932861,3.6720998287200928,5.297399997711182
1705061831095432700,44.2554326171875,0.2777000069618225,5.245199680328369,2.5667998790740967
1705061831155432700,44.3154326171875,-1.7069000005722046,6.99429988861084,2.625999927520752
1705061831215432700,44.3754326171875,-0.3868999779224396,3.1514999866485596,0.8704999685287476
1705061831275432700,44.4354326171875,2.169100046157837,-1.3935999870300293,-0.21609999239444733
1705061831335432700,44.4954326171875,4.121099948883057,-0.8809999823570251,-0.683899998664856
1705061831395432700,44.5554326171875,3.5349998474121094,2.350299835205078,-1.9808999300003052
1705061831455432700,44.6154326171875,3.143399953842163,2.0606000423431396,-2.5971999168395996
1705061831515432700,44.6754326171875,4.230099678039551,0.04559999704360962,-4.602399826049805
1705061831575432700,44.7354326171875,3.1816999912261963,0.512499988079071,-7.4101996421813965
1705061831635432700,44.7954326171875,3.2868998050689697,1.968999981880188,-4.568599700927734
1705061831695432700,44.8554326171875,1.4327999353408813,6.92609977722168,-2.0520999431610107
1705061831755432700,44.9154326171875,2.0595998764038086,5.330899715423584,-1.9620999097824097
1705061831815432700,44.9754326171875,2.275899887084961,1.2939999103546143,-0.4139999747276306
1705061831875432700,45.0354326171875,2.2311999797821045,-0.9837999939918518,2.4593000411987305
1705061831935432700,45.0954326171875,3.526700019836426,-1.0642999410629272,3.6873998641967773
1705061831995432700,45.1554326171875,4.430799961090088,1.4740999937057495,2.892400026321411
1705061832055432700,45.2154326171875,4.214699745178223,6.53279972076416,2.708699941635132
1705061832115432700,45.2754326171875,0.13669998943805695,1.8558999300003052,6.533999919891357
1705061832175432700,45.3354326171875,-0.14839999377727509,1.3299999237060547,3.7209999561309814
1705061832235432700,45.3954326171875,-0.20899999141693115,6.875499725341797,1.8585000038146973
1705061832295432700,45.4554326171875,-0.8470999598503113,6.513099670410156,2.0774998664855957
1705061832355432700,45.5154326171875,1.9404999017715454,1.1624000072479248,0.5888999700546265
1705061832415432700,45.5754326171875,4.395400047302246,-0.6412999629974365,0.07599999755620956
1705061832475432700,45.6354326171875,3.623199939727783,-0.5823000073432922,-1.767199993133545
1705061832535432700,45.6954326171875,3.902599811553955,-0.32519999146461487,-3.894699811935425
1705061832595460900,45.7554609375,4.527499675750732,1.2532999515533447,-5.013700008392334
1705061832655432700,45.8154326171875,4.300600051879883,2.7019999027252197,-6.658299922943115
1705061832715432700,45.8754326171875,3.806299924850464,2.790299892425537,-5.330499649047852
1705061832775432700,45.9354326171875,3.0207998752593994,6.187900066375732,-3.193199872970581
1705061832835432700,45.9954326171875,1.7039999961853027,6.1803998947143555,-0.8912999629974365
1705061832895432700,46.0554326171875,2.358099937438965,1.653499960899353,-0.08449999988079071
1705061832955432700,46.1154326171875,3.327399969100952,-0.4258999824523926,0.9353999495506287
1705061833015432700,46.1754326171875,4.475399971008301,0.22849999368190765,2.012699842453003
1705061833075432700,46.2354326171875,5.035399913787842,2.4349000453948975,2.023900032043457
1705061833135432700,46.2954326171875,4.469799995422363,4.223700046539307,3.9485998153686523
1705061833195432700,46.3554326171875,2.6527998447418213,1.8837999105453491,6.591899871826172
1705061833255432700,46.4154326171875,0.3560999929904938,2.6331000328063965,6.2692999839782715
1705061833315432700,46.4754326171875,-0.9929999709129333,8.964399337768555,5.536799907684326
1705061833375432700,46.5354326171875,-0.5471000075340271,6.830599784851074,3.8509998321533203
1705061833435432700,46.5954326171875,0.6345999836921692,1.7160999774932861,-0.5270999670028687
1705061833495432700,46.6554326171875,4.254499912261963,-0.7886999845504761,-0.08329999446868896
1705061833555432700,46.7154326171875,3.1659998893737793,1.793299913406372,-2.80679988861084
1705061833615432700,46.7754326171875,3.325899839401245,1.4987999200820923,-3.0097999572753906
1705061833675432700,46.8354326171875,5.5879998207092285,-0.9286999702453613,-6.5600996017456055
1705061833735432700,46.8954326171875,4.303299903869629,0.6834999918937683,-8.157899856567383
1705061833795432700,46.9554326171875,2.5627999305725098,3.895599842071533,-8.041600227355957
1705061833855432700,47.0154326171875,0.9236999750137329,10.052599906921387,-4.207200050354004
1705061833915432700,47.0754326171875,0.964199960231781,6.302000045776367,-1.1865999698638916
1705061833975432700,47.1354326171875,2.2799999713897705,2.923799991607666,0.2336999922990799
1705061834035432700,47.1954326171875,0.7148999571800232,1.2023999691009521,0.8781999945640564
1705061834095432700,47.2554326171875,3.471400022506714,1.3502999544143677,3.921299934387207
1705061834155432700,47.3154326171875,4.949100017547607,1.2580000162124634,4.878799915313721
1705061834215432700,47.3754326171875,4.317999839782715,2.703199863433838,5.7789998054504395
1705061834275432700,47.4354326171875,0.7198999524116516,2.237499952316284,6.993599891662598
1705061834335432700,47.4954326171875,0.7348999977111816,6.699100017547607,4.5929999351501465
1705061834395432700,47.5554326171875,0.06700000166893005,10.12339973449707,3.2453999519348145
1705061834455432700,47.6154326171875,0.4892999827861786,6.2363996505737305,3.6484999656677246
1705061834515432700,47.6754326171875,1.9298999309539795,1.9959999322891235,-1.1359999179840088
1705061834575432700,47.7354326171875,3.9395999908447266,0.3391999900341034,-0.42389997839927673
1705061834635432700,47.7954326171875,2.9691998958587646,0.9488999843597412,-2.473299980163574
1705061834695432700,47.8554326171875,3.9056999683380127,0.3017999827861786,-4.850299835205078
1705061834755432700,47.9154326171875,4.741099834442139,0.3813999891281128,-8.044400215148926
1705061834815432700,47.9754326171875,2.5251998901367188,1.7357999086380005,-8.494699478149414
1705061834875432700,48.0354326171875,3.214399814605713,2.9547998905181885,-6.931999683380127
1705061834935432700,48.0954326171875,2.8984999656677246,7.113100051879883,-4.518199920654297
1705061834995432700,48.1554326171875,1.8992999792099,8.711099624633789,-2.337899923324585
1705061835055432700,48.2154326171875,2.3244998455047607,5.583399772644043,0.28939998149871826
1705061835115432700,48.2754326171875,2.249300003051758,2.0964999198913574,1.9895999431610107
1705061835175432700,48.3354326171875,4.3414998054504395,2.4026999473571777,3.6534998416900635
1705061835235432700,48.3954326171875,5.1265997886657715,2.8753998279571533,4.95829963684082
1705061835295432700,48.4554326171875,5.482399940490723,3.5147998332977295,5.256099700927734
1705061835355432700,48.5154326171875,2.9220998287200928,1.437399983406067,6.961299896240234
1705061835415432700,48.5754326171875,0.628600001335144,7.5015997886657715,6.636199951171875
1705061835475432700,48.6354326171875,0.6236000061035156,4.083699703216553,4.566499710083008
1705061835535432700,48.6954326171875,1.8154000043869019,9.093799591064453,2.126999855041504
1705061835595432700,48.7554326171875,0.630299985408783,5.194799900054932,-0.8357999920845032
1705061835655432700,48.8154326171875,2.457900047302246,0.7949999570846558,-1.3055999279022217
1705061835715432700,48.8754326171875,2.6166999340057373,2.6900999546051025,-3.7824997901916504
1705061835775432700,48.9354326171875,4.089999675750732,2.7960000038146973,-3.547799825668335
1705061835835432700,48.9954326171875,6.2820000648498535,-0.6765999794006348,-9.405799865722656
1705061835895432700,49.0554326171875,6.320799827575684,2.154099941253662,-8.621999740600586
1705061835955432700,49.1154326171875,4.861099720001221,3.3822999000549316,-6.010599613189697
1705061836015432700,49.1754326171875,4.5401997566223145,8.384599685668945,-3.400899887084961
1705061836075432700,49.2354326171875,1.3030999898910522,10.647899627685547,0.7148999571800232
1705061836135432700,49.2954326171875,1.7888000011444092,5.707299709320068,4.498300075531006
1705061836195432700,49.3554326171875,0.7249999642372131,0.528499960899353,2.732300043106079
1705061836255432700,49.4154326171875,2.925299882888794,0.23629999160766602,4.437900066375732
1705061836315432700,49.4754326171875,4.690899848937988,0.9551999568939209,4.875499725341797
1705061836375432700,49.5354326171875,4.544300079345703,1.9405999183654785,5.3933000564575195
1705061836435432700,49.5954326171875,3.457899808883667,1.9187999963760376,5.678400039672852
1705061836495432700,49.6554326171875,0.7671999931335449,4.1875996589660645,3.495999813079834
1705061836555432700,49.7154326171875,-0.2847999930381775,6.1230998039245605,2.0039000511169434
1705061836615432700,49.7754326171875,-0.431799978017807,7.114999771118164,1.6869999170303345
1705061836675432700,49.8354326171875,-0.06579999625682831,4.245500087738037,1.9904999732971191
1705061836735432700,49.8954326171875,3.4563000202178955,0.34759998321533203,0.5424000024795532
1705061836795432700,49.9554326171875,4.807399749755859,-0.2744999825954437,-1.7747999429702759
1705061836855432700,50.0154326171875,4.558099746704102,0.6230999827384949,-3.407399892807007
1705061836915432700,50.0754326171875,5.350299835205078,2.750499963760376,-3.414799928665161
1705061836975432700,50.1354326171875,5.220799922943115,1.5281999111175537,-5.46999979019165
1705061837035432700,50.1954326171875,4.084799766540527,0.002699999837204814,-7.6016998291015625
1705061837095432700,50.2554326171875,3.9537999629974365,1.9157999753952026,-5.825599670410156
1705061837155432700,50.3154326171875,1.6933000087738037,9.401700019836426,-2.4814000129699707
1705061837215432700,50.3754326171875,0.5149999856948853,8.204699516296387,-2.2757999897003174
1705061837275432700,50.4354326171875,0.8847999572753906,2.0855000019073486,1.5221999883651733
1705061837335432700,50.4954326171875,2.2667999267578125,0.36809998750686646,1.4752999544143677
1705061837395432700,50.5554326171875,4.539899826049805,0.1306999921798706,4.484699726104736
1705061837455432700,50.6154326171875,4.918099880218506,1.6643999814987183,4.023799896240234
1705061837515432700,50.6754326171875,4.120999813079834,2.7960000038146973,4.816199779510498
1705061837575432700,50.7354326171875,1.3179999589920044,1.067199945449829,6.041999816894531
1705061837635432700,50.7954326171875,0.25270000100135803,4.789700031280518,4.541500091552734
1705061837695432700,50.8554326171875,0.5101999640464783,7.488999843597412,0.45809999108314514
1705061837755432700,50.9154326171875,-0.8578999638557434,4.4091997146606445,0.2827000021934509
1705061837815432700,50.9754326171875,0.0510999970138073,-0.13019999861717224,-0.43939998745918274
1705061837875432700,51.0354326171875,4.803699970245361,-1.5690999031066895,0.4000999927520752
1705061837935432700,51.0954326171875,1.747399926185608,0.48249998688697815,-4.634500026702881
1705061837995432700,51.1554326171875,2.005699872970581,2.4958999156951904,-5.212199687957764
1705061838055432700,51.2154326171875,5.1975998878479,1.343500018119812,-3.999499797821045
1705061838115432700,51.2754326171875,4.741399765014648,1.166700005531311,-6.823899745941162
1705061838175432700,51.3354326171875,4.424200057983398,3.883699893951416,-5.631799697875977
1705061838235432700,51.3954326171875,4.122699737548828,4.44819974899292,-1.9756999015808105
1705061838295432700,51.4554326171875,2.987799882888794,6.876800060272217,-2.4235999584198
1705061838355432700,51.5154326171875,1.2318999767303467,4.391599655151367,-0.1241999939084053
1705061838415432700,51.5754326171875,2.2361998558044434,1.1818000078201294,0.7860999703407288
1705061838475432700,51.6354326171875,3.499799966812134,0.7330999970436096,2.7695000171661377
1705061838535432700,51.6954326171875,4.028299808502197,0.9316999912261963,4.589200019836426
1705061838595432700,51.7554326171875,3.783900022506714,2.161099910736084,5.016599655151367
1705061838655432700,51.8154326171875,1.7254999876022339,0.9896999597549438,6.251699924468994
1705061838715432700,51.8754326171875,0.3203999996185303,5.61359977722168,4.428899765014648
1705061838775432700,51.9354326171875,1.010699987411499,7.340799808502197,3.7239999771118164
1705061838835432700,51.9954326171875,0.865399956703186,6.35290002822876,1.5478999614715576
1705061838895432700,52.0554326171875,0.47829997539520264,2.0363998413085938,-0.10989999771118164
1705061838955432700,52.1154326171875,3.5174999237060547,-0.4065999984741211,-0.014299999922513962
1705061839015432700,52.1754326171875,4.145599842071533,0.5512999892234802,-1.7687000036239624
1705061839075432700,52.2354326171875,4.446199893951416,1.7875999212265015,-3.6076998710632324
1705061839135432700,52.2954326171875,6.019899845123291,1.7680000066757202,-5.311299800872803
1705061839195503000,52.355503173828126,5.511300086975098,2.4879000186920166,-6.81279993057251
1705061839255432700,52.4154326171875,4.05679988861084,2.598599910736084,-6.271399974822998
1705061839315432700,52.4754326171875,4.268099784851074,5.392099857330322,-4.150599956512451
1705061839375432700,52.5354326171875,1.8244999647140503,7.5295000076293945,-1.543299913406372
1705061839435432700,52.5954326171875,1.42739999294281,5.313699722290039,-0.2574999928474426
1705061839495432700,52.6554326171875,1.1258000135421753,0.5253999829292297,0.7928999662399292
1705061839555432700,52.7154326171875,3.0827999114990234,0.17639999091625214,3.281100034713745
1705061839615432700,52.7754326171875,4.166999816894531,0.5400999784469604,4.354000091552734
1705061839675432700,52.8354326171875,4.049499988555908,1.6689999103546143,4.087800025939941
1705061839735432700,52.8954326171875,3.2918999195098877,1.2907999753952026,6.144499778747559
1705061839795432700,52.9554326171875,0.044499997049570084,1.798699975013733,6.917799949645996
1705061839855432700,53.0154326171875,0.7971999645233154,4.131999969482422,2.2498998641967773
1705061839915432700,53.0754326171875,0.5127999782562256,7.941699981689453,1.379499912261963
1705061839975432700,53.1354326171875,-0.468099981546402,5.313399791717529,-0.42890000343322754
1705061840035432700,53.1954326171875,3.110100030899048,1.0436999797821045,0.6372999548912048
1705061840095432700,53.2554326171875,4.159999847412109,-0.7526999711990356,-2.273900032043457
1705061840155432700,53.3154326171875,4.2881999015808105,-0.18789999186992645,-5.352099895477295
1705061840215432700,53.3754326171875,3.982800006866455,1.482100009918213,-6.248600006103516
1705061840275432700,53.4354326171875,3.9495999813079834,2.071199893951416,-6.45389986038208
1705061840335432700,53.4954326171875,4.981899738311768,4.074100017547607,-7.206599712371826
1705061840395432700,53.5554326171875,4.107500076293945,6.958099842071533,-4.198299884796143
1705061840455432700,53.6154326171875,2.3034000396728516,8.704999923706055,-1.9047999382019043
1705061840515432700,53.6754326171875,2.062999963760376,4.5493998527526855,-0.39989998936653137
1705061840575432700,53.7354326171875,1.4254999160766602,0.4380999803543091,-0.32979997992515564
1705061840635432700,53.7954326171875,3.949199914932251,1.345099925994873,2.8416998386383057
1705061840695432700,53.8554326171875,4.855000019073486,1.4061999320983887,4.52269983291626
1705061840755432700,53.9154326171875,5.009099960327148,3.2005999088287354,4.405600070953369
1705061840815432700,53.9754326171875,3.562299966812134,2.0511999130249023,5.594599723815918
1705061840875432700,54.0354326171875,0.5069999694824219,4.386899948120117,4.802099704742432
1705061840935432700,54.0954326171875,0.36389997601509094,5.194399833679199,3.158399820327759
1705061840995432700,54.1554326171875,0.930899977684021,8.148399353027344,1.695199966430664
1705061841055432700,54.2154326171875,0.08169999718666077,4.007299900054932,-0.6779999732971191
1705061841115432700,54.2754326171875,0.7981999516487122,0.6406999826431274,-2.0183000564575195
1705061841175432700,54.3354326171875,4.552499771118164,-0.3780999779701233,-0.23389999568462372
1705061841235432700,54.3954326171875,3.7620999813079834,0.9298999905586243,-4.075200080871582
1705061841295432700,54.4554326171875,3.8780999183654785,0.9610999822616577,-6.669699668884277
1705061841355432700,54.5154326171875,3.512699842453003,1.6556999683380127,-7.983599662780762
1705061841415432700,54.5754326171875,4.025199890136719,5.158599853515625,-7.509599685668945
1705061841475432700,54.6354326171875,2.5580999851226807,4.176599979400635,-5.255699634552002
1705061841535432700,54.6954326171875,0.8682000041007996,7.841300010681152,-2.0469000339508057
1705061841595432700,54.7554326171875,1.9258999824523926,3.449199914932251,-1.441100001335144
1705061841655432700,54.8154326171875,1.764699935913086,-0.9286999702453613,1.249899983406067
1705061841715432700,54.8754326171875,3.425999879837036,-0.6643999814987183,2.5120999813079834
1705061841775432700,54.9354326171875,4.930500030517578,1.624899983406067,2.3392999172210693
1705061841835432700,54.9954326171875,4.502199649810791,5.1066999435424805,2.431999921798706
1705061841895432700,55.0554326171875,1.6216999292373657,2.3710999488830566,6.200799942016602
1705061841955432700,55.1154326171875,1.250100016593933,4.337299823760986,5.151599884033203
1705061842015432700,55.1754326171875,0.07999999821186066,3.9519999027252197,4.1992998123168945
1705061842075432700,55.2354326171875,-0.05559999868273735,7.119499683380127,2.0946998596191406
1705061842135432700,55.2954326171875,-0.6143999695777893,1.4858999252319336,0.09559999406337738
1705061842195432700,55.3554326171875,2.5312998294830322,-3.4475998878479004,-0.7947999835014343
1705061842255432700,55.4154326171875,4.75029993057251,-2.8362998962402344,-0.8069999814033508
1705061842315432700,55.4754326171875,2.958899974822998,1.1619999408721924,-4.64169979095459
1705061842375432700,55.5354326171875,2.255499839782715,3.075199842453003,-5.00469970703125
1705061842435432700,55.5954326171875,4.8242998123168945,1.83489990234375,-5.564499855041504
1705061842495432700,55.6554326171875,4.877199649810791,4.166199684143066,-7.609099864959717
1705061842555432700,55.7154326171875,3.173499822616577,6.183599948883057,-3.5444998741149902
1705061842615432700,55.7754326171875,1.2437999248504639,8.073200225830078,-1.1008999347686768
1705061842675432700,55.8354326171875,-0.142099991440773,1.448099970817566,0.8376999497413635
1705061842735432700,55.8954326171875,0.571399986743927,-2.7711000442504883,0.8300999999046326
1705061842795432700,55.9554326171875,2.8785998821258545,-1.2070999145507812,1.9714999198913574
1705061842855432700,56.0154326171875,3.6129000186920166,0.046699997037649155,3.734499931335449
1705061842915432700,56.0754326171875,3.5123000144958496,3.185699939727783,3.2284998893737793
1705061842975432700,56.1354326171875,1.625999927520752,1.8769999742507935,5.543799877166748
1705061843035432700,56.1954326171875,0.3595999777317047,4.379199981689453,3.4970998764038086
1705061843095432700,56.2554326171875,1.5209999084472656,9.097000122070312,2.7925000190734863
1705061843155432700,56.3154326171875,0.46230000257492065,6.6053996086120605,3.1735999584198
1705061843215432700,56.3754326171875,1.4352999925613403,1.670699954032898,0.07530000060796738
1705061843275432700,56.4354326171875,3.9766998291015625,-1.1755999326705933,-0.0429999977350235
1705061843335432700,56.4954326171875,3.941999912261963,-0.7053999900817871,-2.0374999046325684
1705061843395432700,56.5554326171875,3.588899850845337,0.7507999539375305,-3.192999839782715
1705061843455432700,56.6154326171875,2.3838999271392822,-0.32739999890327454,-6.034499645233154
1705061843515432700,56.6754326171875,1.708400011062622,1.5262999534606934,-9.09119987487793
1705061843575432700,56.7354326171875,1.1922999620437622,1.9620999097824097,-8.23390007019043
1705061843635432700,56.7954326171875,3.7294998168945312,3.0595998764038086,-7.237099647521973
1705061843695432700,56.8554326171875,0.04559999704360962,11.151599884033203,3.828699827194214
1705061843755432700,56.9154326171875,0.49729999899864197,7.543900012969971,0.3384000062942505
1705061843815432700,56.9754326171875,-0.9301999807357788,-0.9497999548912048,4.535399913787842
1705061843875432700,57.0354326171875,1.0037999153137207,-1.3411999940872192,1.1822999715805054
1705061843935432700,57.0954326171875,4.6255998611450195,0.38009998202323914,3.6218998432159424
1705061843995432700,57.1554326171875,3.849900007247925,-0.558899998664856,3.9011998176574707
1705061844055432700,57.2154326171875,3.3125998973846436,-2.167099952697754,4.359999656677246
1705061844115432700,57.2754326171875,3.866499900817871,0.9870999455451965,3.910399913787842
1705061844175434200,57.33543432617188,1.3497999906539917,1.180400013923645,0.3401999771595001
1705061844235432700,57.3954326171875,-1.1794999837875366,1.26010000705719,3.2164998054504395
1705061844295432700,57.4554326171875,0.15680000185966492,7.669999599456787,1.7936999797821045
1705061844355432700,57.5154326171875,-1.312600016593933,7.87939977645874,3.1577999591827393
1705061844415432700,57.5754326171875,1.8711999654769897,3.6171000003814697,0.11089999973773956
1705061844475432700,57.6354326171875,3.442499876022339,0.7623999714851379,-0.31119999289512634
1705061844535432700,57.6954326171875,4.441100120544434,0.3790999948978424,-1.7461999654769897
1705061844595432700,57.7554326171875,5.2947998046875,1.0835000276565552,-3.3759000301361084
1705061844655432700,57.8154326171875,4.3765997886657715,-2.412899971008301,-6.502500057220459
1705061844715432700,57.8754326171875,3.2746999263763428,-1.4680999517440796,-9.77299976348877
1705061844775432700,57.9354326171875,0.8603999614715576,-0.00559999980032444,-6.767999649047852
1705061844835432700,57.9954326171875,2.4266998767852783,4.0605998039245605,-7.250699996948242
1705061844895432700,58.0554326171875,-0.19099999964237213,14.235300064086914,0.18219999969005585
1705061844955432700,58.1154326171875,0.2800999879837036,9.641499519348145,1.3150999546051025
1705061845015432700,58.1754326171875,1.2903000116348267,0.3797999918460846,1.6973999738693237
1705061845075432700,58.2354326171875,3.3899998664855957,-0.814300000667572,3.011899948120117
1705061845135432700,58.2954326171875,4.710700035095215,1.6473000049591064,4.271999835968018
1705061845195432700,58.3554326171875,5.203499794006348,5.406300067901611,5.750799655914307
1705061845255432700,58.4154326171875,1.2105000019073486,5.09559965133667,8.567999839782715
1705061845315432700,58.4754326171875,1.535499930381775,0.28129997849464417,7.013700008392334
1705061845375432700,58.5354326171875,1.0855000019073486,4.671099662780762,4.455199718475342
1705061845435432700,58.5954326171875,1.3277000188827515,10.005399703979492,0.6455999612808228
1705061845495432700,58.6554326171875,0.4400999844074249,8.080499649047852,1.4512999057769775
1705061845555432700,58.7154326171875,2.170799970626831,3.7030999660491943,1.7446999549865723
1705061845615432700,58.7754326171875,4.313699722290039,2.412799835205078,-4.894000053405762
1705061845675432700,58.8354326171875,1.9850999116897583,-3.056299924850464,-9.677000045776367
1705061845735432700,58.8954326171875,4.339600086212158,2.1412999629974365,-9.607399940490723
1705061845795432700,58.9554326171875,4.68720006942749,1.2293999195098877,-12.953999519348145
1705061845855432700,59.0154326171875,6.647599697113037,5.384099960327148,-6.0894999504089355
1705061845915432700,59.0754326171875,4.436500072479248,13.407599449157715,-3.332899808883667
1705061845975432700,59.1354326171875,2.773399829864502,15.12559986114502,-4.4893999099731445
1705061846035432700,59.1954326171875,2.892400026321411,6.398399829864502,1.1337000131607056
1705061846095432700,59.2554326171875,3.915099859237671,4.345099925994873,3.721599817276001
1705061846155432700,59.3154326171875,4.873300075531006,5.248300075531006,4.772200107574463
1705061846215432700,59.3754326171875,6.340099811553955,5.842099666595459,5.983999729156494
1705061846275432700,59.4354326171875,4.918399810791016,4.181999683380127,7.3989996910095215
1705061846335432700,59.4954326171875,2.343899965286255,5.161200046539307,7.14739990234375
1705061846395432700,59.5554326171875,0.21040000021457672,4.500799655914307,5.562999725341797
1705061846455432700,59.6154326171875,1.4049999713897705,8.88599967956543,1.0734000205993652
1705061846515432700,59.6754326171875,3.0261998176574707,4.862799644470215,2.762199878692627
1705061846575432700,59.7354326171875,1.9866999387741089,2.6895999908447266,-2.9413998126983643
1705061846635432700,59.7954326171875,1.0002999305725098,1.1460000276565552,-3.2914998531341553
1705061846695432700,59.8554326171875,3.676800012588501,4.1946001052856445,-1.9078999757766724
1705061846755432700,59.9154326171875,0.6542999744415283,3.7107999324798584,-7.614999771118164
1705061846815432700,59.9754326171875,0.12280000001192093,2.5299999713897705,-9.957799911499023
1705061846875432700,60.0354326171875,1.2201999425888062,3.081199884414673,-11.79419994354248
1705061846935432700,60.0954326171875,2.1092000007629395,1.8851999044418335,-7.325999736785889
1705061846995432700,60.1554326171875,1.0291999578475952,4.119100093841553,-6.8867998123168945
1705061847055432700,60.2154326171875,-0.3564999997615814,10.109199523925781,-4.439599990844727
1705061847115432700,60.2754326171875,1.1036999225616455,2.2321999073028564,-0.4294999837875366
1705061847175432700,60.3354326171875,3.9261999130249023,1.4808999300003052,1.6775999069213867
1705061847235432700,60.3954326171875,6.5737996101379395,3.589399814605713,2.123499870300293
1705061847295432700,60.4554326171875,5.303099632263184,5.735099792480469,2.2525999546051025
1705061847355432700,60.5154326171875,3.187199831008911,3.495699882507324,8.15250015258789
1705061847415432700,60.5754326171875,2.8200998306274414,3.382499933242798,9.144499778747559
1705061847475432700,60.6354326171875,2.329900026321411,4.924299716949463,4.668299674987793
1705061847535432700,60.6954326171875,0.538599967956543,8.68340015411377,2.559499979019165
1705061847595432700,60.7554326171875,0.34219998121261597,2.090100049972534,-1.5482999086380005
1705061847655432700,60.8154326171875,-0.7209999561309814,-0.8061999678611755,-1.670799970626831
1705061847715432700,60.8754326171875,2.716099977493286,-1.1262999773025513,1.517699956893921
1705061847775432700,60.9354326171875,0.6146000027656555,3.353099822998047,-7.055299758911133
1705061847835432700,60.9954326171875,0.09959999471902847,1.663599967956543,-7.673699855804443
1705061847895432700,61.0554326171875,3.747299909591675,1.51010000705719,-8.700699806213379
1705061847955432700,61.1154326171875,3.2679998874664307,3.1213998794555664,-9.012399673461914
1705061848015432700,61.1754326171875,4.717700004577637,4.15369987487793,-5.884699821472168
1705061848075432700,61.2354326171875,2.661799907684326,8.8597993850708,-3.623499870300293
1705061848135432700,61.2954326171875,1.8797999620437622,6.993000030517578,-0.5108999609947205
1705061848195432700,61.3554326171875,2.3880999088287354,2.4687998294830322,1.084399938583374
1705061848255432700,61.4154326171875,3.748199939727783,1.309999942779541,3.0426998138427734
1705061848315432700,61.4754326171875,4.5945000648498535,1.1786999702453613,4.068699836730957
1705061848375432700,61.5354326171875,4.102799892425537,-0.10539999604225159,5.248199939727783
1705061848435432700,61.5954326171875,2.816200017929077,1.8603999614715576,7.044099807739258
1705061848495432700,61.6554326171875,-1.5626999139785767,2.503000020980835,7.212399959564209
1705061848555432700,61.7154326171875,-0.6208999752998352,6.8850998878479,3.333199977874756
1705061848615432700,61.7754326171875,-0.14169999957084656,8.129599571228027,0.12929999828338623
1705061848675432700,61.8354326171875,-0.7470999956130981,6.888000011444092,0.21819999814033508
1705061848735432700,61.8954326171875,2.2182998657226562,3.941999912261963,0.6556999683380127
1705061848795432700,61.9554326171875,6.125199794769287,4.711599826812744,-0.687999963760376
1705061848855432700,62.0154326171875,7.241999626159668,2.634199857711792,-1.8708999156951904
1705061848915432700,62.0754326171875,8.002399444580078,0.8035999536514282,-6.221299648284912
1705061848975432700,62.1354326171875,9.869199752807617,3.111999988555908,-4.874000072479248
1705061849035432700,62.1954326171875,9.785999298095703,3.553299903869629,-7.414599895477295
1705061849095432700,62.2554326171875,5.1697998046875,7.790299892425537,-4.300099849700928
1705061849155432700,62.3154326171875,1.215999960899353,9.88539981842041,-1.125
1705061849215432700,62.3754326171875,0.7504000067710876,6.4319000244140625,-0.910099983215332
1705061849275432700,62.4354326171875,0.20649999380111694,1.6347999572753906,0.020800000056624413
1705061849335432700,62.4954326171875,3.2348999977111816,2.120300054550171,1.6883000135421753
1705061849395432700,62.5554326171875,4.820499897003174,1.9444999694824219,3.541100025177002
1705061849455432700,62.6154326171875,5.622299671173096,4.12529993057251,3.7899999618530273
1705061849515432700,62.6754326171875,2.541800022125244,2.97189998626709,7.4315996170043945
1705061849575432700,62.7354326171875,-0.10269999504089355,4.270299911499023,7.019999980926514
1705061849635432700,62.7954326171875,0.06239999830722809,6.144000053405762,4.2044997215271
1705061849695432700,62.8554326171875,1.018399953842163,8.946399688720703,1.7315999269485474
1705061849755432700,62.9154326171875,1.1625999212265015,2.474400043487549,0.7702999711036682
1705061849815432700,62.9754326171875,2.107100009918213,-0.47859999537467957,-1.8664000034332275
1705061849875432700,63.0354326171875,4.503999710083008,0.5493999719619751,-1.4728999137878418
1705061849935432700,63.0954326171875,3.6347999572753906,3.6277999877929688,-3.3899998664855957
1705061849995432700,63.1554326171875,3.7617998123168945,2.9803998470306396,-6.182299613952637
1705061850055432700,63.2154326171875,5.370500087738037,1.5196999311447144,-7.145899772644043
1705061850115432700,63.2754326171875,6.483399868011475,1.812999963760376,-8.239299774169922
1705061850175432700,63.3354326171875,4.598299980163574,4.363500118255615,-4.970399856567383
1705061850235432700,63.3954326171875,1.9435999393463135,8.87869930267334,-2.232100009918213
1705061850295432700,63.4554326171875,1.305799961090088,5.505799770355225,-1.0042999982833862
1705061850355432700,63.5154326171875,1.531999945640564,0.3986999988555908,1.8907999992370605
1705061850415432700,63.5754326171875,2.982100009918213,-0.28849998116493225,1.472100019454956
1705061850475432700,63.6354326171875,3.97409987449646,0.5575000047683716,3.0648000240325928
1705061850535432700,63.6954326171875,5.027199745178223,3.0600998401641846,2.9191999435424805
1705061850595432700,63.7554326171875,2.769199848175049,3.347100019454956,6.721499919891357
1705061850655432700,63.8154326171875,1.38919997215271,4.560199737548828,6.283799648284912
1705061850715432700,63.8754326171875,-0.22039999067783356,4.247399806976318,4.560199737548828
1705061850775432700,63.9354326171875,0.14739999175071716,8.179800033569336,1.3651999235153198
1705061850835432700,63.9954326171875,1.1741999387741089,2.525099992752075,0.7996999621391296
1705061850895432700,64.0554326171875,3.2623000144958496,-1.0372999906539917,-0.7803999781608582
1705061850955432700,64.1154326171875,3.9809999465942383,-0.13099999725818634,-1.2389999628067017
1705061851015432700,64.1754326171875,3.4631998538970947,2.0185999870300293,-3.1798999309539795
1705061851075432700,64.2354326171875,3.256899833679199,1.0061999559402466,-6.119499683380127
1705061851135432700,64.2954326171875,4.015599727630615,2.0623998641967773,-6.945099830627441
1705061851195432700,64.3554326171875,4.390399932861328,2.6141998767852783,-8.57289981842041
1705061851255432700,64.4154326171875,3.7732999324798584,5.916100025177002,-5.441699981689453
1705061851315432700,64.4754326171875,2.5715999603271484,8.134099960327148,-3.597299814224243
1705061851375432700,64.5354326171875,2.444000005722046,3.7475998401641846,-2.149099826812744
1705061851435432700,64.5954326171875,2.257499933242798,0.6078999638557434,-0.4958999752998352
1705061851495432700,64.6554326171875,4.681999683380127,1.271899938583374,0.6718999743461609
1705061851555432700,64.7154326171875,5.464099884033203,3.491999864578247,0.8000999689102173
1705061851615432700,64.7754326171875,5.984299659729004,3.6855998039245605,3.071199893951416
1705061851675432700,64.8354326171875,4.300300121307373,3.5371999740600586,8.111899375915527
1705061851735432700,64.8954326171875,2.533599853515625,5.444999694824219,8.011499404907227
1705061851795432700,64.9554326171875,1.816499948501587,7.081699848175049,2.7393999099731445
1705061851855432700,65.0154326171875,-0.49789997935295105,6.708399772644043,2.0327000617980957
1705061851915432700,65.0754326171875,-1.3583999872207642,-0.14790000021457672,-1.3717999458312988
1705061851975432700,65.1354326171875,-1.8483999967575073,-3.1933000087738037,-1.823099970817566
1705061852035432700,65.1954326171875,4.8125,-0.5449999570846558,1.3615000247955322
1705061852095432700,65.2554326171875,2.8294999599456787,3.374199867248535,-3.915099859237671
1705061852155432700,65.3154326171875,3.4059998989105225,2.9637999534606934,-3.338099956512451
1705061852215432700,65.3754326171875,5.599099636077881,2.2690000534057617,-5.530099868774414
1705061852275432700,65.4354326171875,4.5696001052856445,1.6466999053955078,-6.295499801635742
1705061852335432700,65.4954326171875,3.2552998065948486,5.746099948883057,-5.059700012207031
1705061852395432700,65.5554326171875,0.6484999656677246,5.8592000007629395,-1.9483000040054321
1705061852455432700,65.6154326171875,1.6662999391555786,1.1291999816894531,-1.539099931716919
1705061852515432700,65.6754326171875,0.41449999809265137,-2.97379994392395,-0.27619999647140503
1705061852575432700,65.7354326171875,1.802299976348877,-2.7854998111724854,-1.5353999137878418
1705061852635432700,65.7954326171875,4.667399883270264,-0.7669000029563904,0.5500999689102173
1705061852695432700,65.8554326171875,4.594699859619141,4.999300003051758,0.9457999467849731
1705061852755432700,65.9154326171875,1.0221999883651733,3.2995998859405518,3.956199884414673
1705061852815432700,65.9754326171875,2.835099935531616,4.339900016784668,6.570999622344971
1705061852875432700,66.0354326171875,1.1713999509811401,4.40809965133667,6.259500026702881
1705061852935432700,66.0954326171875,0.8330999612808228,6.877899646759033,2.950399875640869
1705061852995432700,66.1554326171875,1.7963999509811401,1.5613999366760254,1.556399941444397
1705061853055432700,66.2154326171875,3.6023998260498047,-2.3446998596191406,0.4724999964237213
1705061853115432700,66.2754326171875,3.6153998374938965,-0.713699996471405,-2.4336998462677
1705061853175432700,66.3354326171875,2.0411999225616455,2.9333999156951904,-3.872299909591675
1705061853235432700,66.3954326171875,4.0279998779296875,2.818699836730957,-5.10099983215332
1705061853295432700,66.4554326171875,4.225599765777588,1.5262999534606934,-8.925000190734863
1705061853355432700,66.5154326171875,3.2453999519348145,3.1467998027801514,-9.761799812316895
1705061853415432700,66.5754326171875,1.586899995803833,4.745500087738037,-7.036900043487549
1705061853475432700,66.6354326171875,1.013100028038025,7.406199932098389,-5.664799690246582
1705061853535432700,66.6954326171875,2.2342000007629395,7.606099605560303,-3.1008999347686768
1705061853595432700,66.7554326171875,2.7704999446868896,4.184499740600586,-0.2304999977350235
1705061853655432700,66.8154326171875,4.688699722290039,2.073899984359741,2.5325000286102295
1705061853715432700,66.8754326171875,5.7581000328063965,4.0680999755859375,3.880999803543091
1705061853775432700,66.9354326171875,5.683599948883057,5.964399814605713,7.064399719238281
1705061853835432700,66.9954326171875,3.6717000007629395,2.991799831390381,9.1496000289917
1705061853895432700,67.0554326171875,1.133099913597107,2.0140998363494873,8.588399887084961
1705061853955432700,67.1154326171875,0.3831000030040741,5.425600051879883,3.685999870300293
1705061854015432700,67.1754326171875,1.5231000185012817,9.12809944152832,4.358099937438965
1705061854075432700,67.2354326171875,0.1022999957203865,6.652899742126465,0.30869999527931213
1705061854135432700,67.2954326171875,-1.8416999578475952,2.003200054168701,-3.3145999908447266
1705061854195432700,67.3554326171875,3.625,1.0239999294281006,0.44349998235702515
1705061854255432700,67.4154326171875,2.2187998294830322,5.243599891662598,-6.530600070953369
1705061854315432700,67.4754326171875,1.6552999019622803,1.6642999649047852,-7.642299652099609
1705061854375432700,67.5354326171875,5.027400016784668,1.4254999160766602,-9.19219970703125
1705061854435432700,67.5954326171875,3.000699996948242,0.916700005531311,-10.313699722290039
1705061854495432700,67.6554326171875,2.214099884033203,4.018099784851074,-7.699699878692627
1705061854555432700,67.7154326171875,1.924899935722351,7.842399597167969,-4.723499774932861
1705061854615432700,67.7754326171875,0.8536999821662903,8.797900199890137,-4.126399993896484
1705061854675432700,67.8354326171875,2.2625999450683594,3.4955999851226807,-1.527999997138977
1705061854735432700,67.8954326171875,5.212800025939941,1.2156000137329102,1.4390000104904175
1705061854795432700,67.9554326171875,6.423799991607666,3.1972999572753906,2.7052998542785645
1705061854855432700,68.0154326171875,6.0447998046875,7.433399677276611,3.8519999980926514
1705061854915432700,68.0754326171875,3.418099880218506,3.857100009918213,9.319899559020996
1705061854975432700,68.1354326171875,0.5049999952316284,4.874599933624268,8.842000007629395
1705061855035432700,68.1954326171875,-0.2703999876976013,6.689899921417236,4.035799980163574
1705061855095432700,68.2554326171875,-0.5166999697685242,6.651299953460693,3.1340999603271484
1705061855155432700,68.3154326171875,0.6473000049591064,2.0785999298095703,0.3643999993801117
1705061855215432700,68.3754326171875,0.7800999879837036,0.468999981880188,-1.4645999670028687
1705061855275432700,68.4354326171875,1.733799934387207,3.1148998737335205,-3.7199997901916504
1705061855335432700,68.4954326171875,1.6399999856948853,2.7832999229431152,-6.120999813079834
1705061855395432700,68.5554326171875,4.251899719238281,2.388700008392334,-9.442599296569824
1705061855455432700,68.6154326171875,2.625999927520752,1.70169997215271,-10.59469985961914
1705061855515432700,68.6754326171875,3.349599838256836,2.4066998958587646,-8.242799758911133
1705061855575432700,68.7354326171875,3.7451999187469482,7.461299896240234,-5.349299907684326
1705061855635432700,68.7954326171875,3.3188998699188232,8.246399879455566,-3.8887999057769775
1705061855695432700,68.8554326171875,3.263899803161621,3.214099884033203,-0.9318999648094177
1705061855755432700,68.9154326171875,4.86929988861084,1.1686999797821045,1.5082999467849731
1705061855815432700,68.9754326171875,5.431299686431885,2.8180999755859375,1.8590999841690063
1705061855875432700,69.0354326171875,4.106199741363525,6.866099834442139,3.3651998043060303
1705061855935432700,69.0954326171875,2.3803999423980713,3.3687000274658203,7.156199932098389
1705061855995432700,69.1554326171875,2.333400011062622,-0.6516000032424927,7.094599723815918
1705061856055432700,69.2154326171875,0.22450000047683716,3.7063000202178955,5.9151997566223145
1705061856115432700,69.2754326171875,0.3790999948978424,7.874699592590332,2.944999933242798
1705061856175432700,69.3354326171875,2.2328999042510986,3.8065998554229736,0.585099995136261
1705061856235432700,69.3954326171875,1.000499963760376,0.8877999782562256,-1.7388999462127686
1705061856295432700,69.4554326171875,2.9808998107910156,1.2269999980926514,-1.7267999649047852
1705061856355432700,69.5154326171875,2.4649999141693115,4.431600093841553,-3.915599822998047
1705061856415432700,69.5754326171875,5.4440999031066895,3.8128998279571533,-7.155900001525879
1705061856475432700,69.6354326171875,7.4517998695373535,3.0476999282836914,-6.936100006103516
1705061856535432700,69.6954326171875,6.6118998527526855,4.222899913787842,-10.533100128173828
1705061856595432700,69.7554326171875,5.465799808502197,4.5,-5.605400085449219
1705061856655432700,69.8154326171875,2.485999822616577,8.19219970703125,-2.5857999324798584
1705061856715432700,69.8754326171875,1.5252999067306519,3.448499917984009,-0.8447999954223633
1705061856775432700,69.9354326171875,1.6446999311447144,0.038100000470876694,0.0016999999061226845
1705061856835432700,69.9954326171875,2.9407999515533447,1.3985999822616577,1.0155999660491943
1705061856895432700,70.0554326171875,3.539599895477295,3.659600019454956,2.196500062942505
1705061856955432700,70.1154326171875,2.297299861907959,3.34879994392395,6.372999668121338
1705061857015432700,70.1754326171875,0.13779999315738678,0.1256999969482422,7.9502997398376465
1705061857075432700,70.2354326171875,0.13809999823570251,3.268399953842163,5.124899864196777
1705061857135432700,70.2954326171875,1.7151999473571777,8.038599967956543,3.6011998653411865
1705061857195432700,70.3554326171875,0.054099999368190765,5.711899757385254,0.17099998891353607
1705061857255432700,70.4154326171875,0.13759998977184296,-0.5819000005722046,-1.1919000148773193
1705061857315432700,70.4754326171875,4.2353997230529785,-2.5669000148773193,-0.9775999784469604
1705061857375432700,70.5354326171875,2.522199869155884,1.301800012588501,-5.013499736785889
1705061857435432700,70.5954326171875,-0.15600000321865082,4.538599967956543,-5.937900066375732
1705061857495432700,70.6554326171875,6.343699932098389,1.6955000162124634,-6.540799617767334
1705061857555432700,70.7154326171875,6.742300033569336,1.9529999494552612,-8.632200241088867
1705061857615432700,70.7754326171875,4.388299942016602,5.784599781036377,-5.1921000480651855
1705061857675432700,70.8354326171875,3.1332998275756836,8.286199569702148,-3.5493998527526855
1705061857735432700,70.8954326171875,1.4469999074935913,4.249799728393555,-1.2698999643325806
1705061857795432700,70.9554326171875,2.8178000450134277,0.9879999756813049,1.4739999771118164
1705061857855432700,71.0154326171875,2.945199966430664,0.6026999950408936,1.3746999502182007
1705061857915432700,71.0754326171875,4.371299743652344,1.440999984741211,2.752699851989746
1705061857975432700,71.1354326171875,4.6479997634887695,3.782399892807007,3.505999803543091
1705061858035432700,71.1954326171875,0.950499951839447,2.577899932861328,7.940899848937988
1705061858095432700,71.2554326171875,0.26269999146461487,3.2311999797821045,6.450999736785889
1705061858155432700,71.3154326171875,1.684899926185608,9.293399810791016,2.676800012588501
1705061858215432700,71.3754326171875,0.21089999377727509,5.642099857330322,2.814199924468994
1705061858275432700,71.4354326171875,2.192999839782715,2.770699977874756,-0.6450999975204468
1705061858335432700,71.4954326171875,3.2782998085021973,-0.31540000438690186,-1.589900016784668
1705061858395432700,71.5554326171875,2.061800003051758,0.805899977684021,-4.976500034332275
1705061858455432700,71.6154326171875,0.7373999953269958,0.2345999926328659,-7.332499980926514
1705061858515432700,71.6754326171875,9.48799991607666,3.019199848175049,-5.609600067138672
1705061858575432700,71.7354326171875,6.5605998039245605,2.1308000087738037,-10.47089958190918
1705061858635432700,71.7954326171875,5.7667999267578125,4.614699840545654,-5.789299964904785
1705061858695432700,71.8554326171875,5.493899822235107,6.418599605560303,-2.636699914932251
1705061858755432700,71.9154326171875,3.32069993019104,10.56029987335205,-1.0118999481201172
1705061858815432700,71.9754326171875,2.0406999588012695,5.512199878692627,0.08049999922513962
1705061858875432700,72.0354326171875,2.802000045776367,2.2756998538970947,2.281100034713745
1705061858935432700,72.0954326171875,3.432299852371216,1.9752999544143677,4.2241997718811035
1705061858995432700,72.1554326171875,4.117199897766113,0.9181999564170837,5.509399890899658
1705061859055432700,72.2154326171875,0.11679999530315399,1.0307999849319458,7.691299915313721
1705061859115432700,72.2754326171875,-2.8255999088287354,4.776000022888184,10.715700149536133
1705061859175432700,72.3354326171875,-0.7809999585151672,5.321899890899658,2.4312000274658203
1705061859235432700,72.3954326171875,0.25369998812675476,8.139399528503418,2.6654999256134033
1705061859295432700,72.4554326171875,2.1259000301361084,5.997699737548828,0.3920999765396118
1705061859355432700,72.5154326171875,2.234799861907959,0.7726999521255493,-3.677299976348877
1705061859415432700,72.5754326171875,4.256199836730957,-0.08129999786615372,-2.7518999576568604
1705061859475432700,72.6354326171875,3.654099941253662,3.7226998805999756,-2.855299949645996
1705061859535434200,72.69543432617188,6.298699855804443,3.0052998065948486,-4.883399963378906
1705061859595432700,72.7554326171875,6.9328999519348145,0.8445000052452087,-7.877099990844727
1705061859655432700,72.8154326171875,5.174200057983398,2.9298999309539795,-8.613399505615234
1705061859715432700,72.8754326171875,3.781599998474121,3.9315998554229736,-6.395400047302246
1705061859775432700,72.9354326171875,1.8219999074935913,6.921000003814697,-4.1315999031066895
1705061859835432700,72.9954326171875,1.0694999694824219,6.9475998878479,-3.1238999366760254
1705061859895432700,73.0554326171875,1.1208999156951904,2.2700998783111572,-1.1243000030517578
1705061859955432700,73.1154326171875,2.857499837875366,1.5252999067306519,0.9258999824523926
1705061860015432700,73.1754326171875,4.593800067901611,2.2337000370025635,2.3880999088287354
1705061860075432700,73.2354326171875,4.859600067138672,2.879699945449829,2.9031999111175537
1705061860135432700,73.2954326171875,4.651299953460693,2.488499879837036,6.303499698638916
1705061860195432700,73.3554326171875,2.1740000247955322,2.860100030899048,6.657899856567383
1705061860255432700,73.4154326171875,0.34619998931884766,4.674200057983398,3.8506999015808105
1705061860315432700,73.4754326171875,1.1324999332427979,8.29319953918457,1.955399990081787
1705061860375432700,73.5354326171875,1.910599946975708,4.120100021362305,0.7172999978065491
1705061860435432700,73.5954326171875,2.120300054550171,-0.39980000257492065,-1.3041999340057373
1705061860495432700,73.6554326171875,2.8237998485565186,-1.607699990272522,-2.043299913406372
1705061860555432700,73.7154326171875,1.4922999143600464,1.972000002861023,-3.1706998348236084
1705061860615432700,73.7754326171875,1.0181000232696533,2.9549999237060547,-5.814499855041504
1705061860675432700,73.8354326171875,2.111999988555908,1.0017999410629272,-9.6496000289917
1705061860735432700,73.8954326171875,1.2829999923706055,1.3280999660491943,-9.199999809265137
1705061860795432700,73.9554326171875,2.1868999004364014,2.2605998516082764,-7.925299644470215
1705061860855432700,74.0154326171875,1.5468999147415161,5.296999931335449,-4.529699802398682
1705061860915432700,74.0754326171875,0.8434999585151672,7.238499641418457,-2.1766998767852783
1705061860975432700,74.1354326171875,2.089400053024292,3.1380999088287354,-1.074199914932251
1705061861035432700,74.1954326171875,2.77239990234375,-1.0812000036239624,1.097599983215332
1705061861095432700,74.2554326171875,3.539099931716919,-1.2706999778747559,2.812000036239624
1705061861155432700,74.3154326171875,4.470200061798096,1.3205000162124634,2.1445999145507812
1705061861215432700,74.3754326171875,4.1057000160217285,5.143799781799316,2.4350998401641846
1705061861275432700,74.4354326171875,0.5370000004768372,1.9673999547958374,6.709699630737305
1705061861335432700,74.4954326171875,-0.028599999845027924,3.5837998390197754,5.858099937438965
1705061861395432700,74.5554326171875,-0.28209999203681946,5.389400005340576,4.093199729919434
1705061861455432700,74.6154326171875,-0.259799987077713,6.277799606323242,1.7553999423980713
1705061861515432700,74.6754326171875,1.493499994277954,0.4172999858856201,-0.3287999927997589
1705061861575432700,74.7354326171875,3.117499828338623,-2.506199836730957,-0.8412999510765076
1705061861635432700,74.7954326171875,3.589099884033203,-0.6882999539375305,-2.1738998889923096
1705061861695432700,74.8554326171875,3.224299907684326,3.0237998962402344,-4.091300010681152
1705061861755432700,74.9154326171875,3.537299871444702,2.2346999645233154,-5.0594000816345215
1705061861815432700,74.9754326171875,5.473199844360352,2.0969998836517334,-6.297299861907959
1705061861875432700,75.0354326171875,4.538899898529053,2.0427000522613525,-7.325899600982666
1705061861935432700,75.0954326171875,3.1664998531341553,6.4517998695373535,-4.333199977874756
1705061861995432700,75.1554326171875,2.109099864959717,5.872999668121338,-3.1445000171661377
1705061862055432700,75.2154326171875,1.069100022315979,0.423799991607666,-1.5209999084472656
1705061862115432700,75.2754326171875,1.9916999340057373,-0.6261999607086182,-0.6995999813079834
1705061862175432700,75.3354326171875,3.1115000247955322,0.6918999552726746,1.7590999603271484
1705061862235432700,75.3954326171875,3.779099941253662,3.8511998653411865,2.0292999744415283
1705061862295432700,75.4554326171875,2.5406999588012695,2.649600028991699,4.910299777984619
1705061862355432700,75.5154326171875,1.8679999113082886,1.438599944114685,5.936299800872803
1705061862415432700,75.5754326171875,-0.6090999841690063,4.467899799346924,5.347399711608887
1705061862475432700,75.6354326171875,0.8001999855041504,7.721499919891357,1.6414999961853027
1705061862535432700,75.6954326171875,1.0200999975204468,3.0038998126983643,2.3997998237609863
1705061862595432700,75.7554326171875,2.0002999305725098,-1.632699966430664,0.2727999985218048
1705061862655432700,75.8154326171875,2.7605998516082764,-5.682300090789795,-2.1868999004364014
1705061862715432700,75.8754326171875,1.0709999799728394,1.966499924659729,-6.33489990234375
1705061862775432700,75.9354326171875,3.472100019454956,4.509900093078613,0.6502000093460083
1705061862835432700,75.9954326171875,7.196599960327148,1.184499979019165,-4.92519998550415
1705061862895432700,76.0554326171875,5.650599956512451,1.6288999319076538,-3.8997998237609863
1705061862955432700,76.1154326171875,4.008199691772461,2.6401000022888184,-3.6740000247955322
1705061863015432700,76.1754326171875,4.626899719238281,4.706999778747559,-2.3977999687194824
1705061863075432700,76.2354326171875,1.5206999778747559,6.85290002822876,-1.3109999895095825
1705061863135432700,76.2954326171875,0.18649999797344208,1.2443000078201294,0.6570999622344971
1705061863195432700,76.3554326171875,0.5834999680519104,-2.3801000118255615,1.074299931526184
1705061863255432700,76.4154326171875,2.9472999572753906,-2.14739990234375,2.6106998920440674
1705061863315432700,76.4754326171875,3.836399793624878,-0.44189998507499695,2.342900037765503
1705061863375432700,76.5354326171875,2.9071998596191406,1.9311999082565308,2.874199867248535
1705061863435432700,76.5954326171875,0.9720999598503113,2.981599807739258,4.265699863433838
1705061863495432700,76.6554326171875,-0.1289999932050705,2.8797998428344727,2.843600034713745
1705061863555432700,76.7154326171875,2.6858999729156494,7.198999881744385,2.621500015258789
1705061863615432700,76.7754326171875,1.8285999298095703,5.259599685668945,1.4093999862670898
1705061863675432700,76.8354326171875,2.787799835205078,-0.6570000052452087,-0.4325999915599823
1705061863735432700,76.8954326171875,4.279699802398682,-1.771799921989441,-1.6689000129699707
