time,seconds_elapsed,z,y,x
1702213602640838400,0.04283837890625,-1.1371999979019165,0.05829999968409538,-0.5863999724388123
1702213602700836900,0.1028369140625,-0.1273999959230423,-0.01809999905526638,-0.03929999843239784
1702213602760836900,0.1628369140625,0.0414000004529953,-0.02369999885559082,0.00279999990016222
1702213602820836900,0.2228369140625,0.51419997215271,-0.17499999701976776,-0.18199999630451202
1702213602880836900,0.2828369140625,0.1964999884366989,-0.094200000166893,-0.11009999364614487
1702213602940836900,0.3428369140625,-0.1597999930381775,0.04989999905228615,0.1046999990940094
1702213603000836900,0.4028369140625,-0.02759999968111515,-0.12199999392032623,0.10329999774694443
1702213603060836900,0.4628369140625,-0.07400000095367432,-0.02630000002682209,0.373199999332428
1702213603120836900,0.5228369140625,0.023000000044703484,0.023499999195337296,0.14000000059604645
1702213603180836900,0.5828369140625,-0.37139999866485596,0.15049999952316284,-0.4115999937057495
1702213603240836900,0.6428369140625,-0.25779998302459717,0.14949999749660492,-0.4818999767303467
1702213603300836900,0.7028369140625,-0.370199978351593,0.3676999807357788,-0.35850000381469727
1702213603360836900,0.7628369140625,-0.2206999957561493,0.04899999871850014,-0.6031000018119812
1702213603420836900,0.8228369140625,0.3423999845981598,0.011699999682605267,0.0916999951004982
1702213603480836900,0.8828369140625,0.3480999767780304,0.016200000420212746,0.7184999585151672
1702213603540836900,0.9428369140625,0.019999999552965164,-0.06769999861717224,0.3321000039577484
1702213603600836900,1.0028369140625,-0.609499990940094,0.12229999899864197,0.06379999965429306
1702213603660836900,1.0628369140625,0.2222999930381775,-0.3190000057220459,-0.025100000202655792
1702213603720836900,1.1228369140625,-0.13409999012947083,0.14999999105930328,0.7116000056266785
1702213603780836900,1.1828369140625,-0.39729997515678406,-0.06539999693632126,-0.37199997901916504
1702213603840836900,1.2428369140625,-0.2757999897003174,-0.04389999806880951,-0.8677999973297119
1702213603900836900,1.3028369140625,1.2695000171661377,-0.5550000071525574,-0.3569999933242798
1702213603960836900,1.3628369140625,0.08619999885559082,0.241799995303154,-0.32670000195503235
1702213604020836900,1.4228369140625,0.8526999950408936,0.25939998030662537,0.396699994802475
1702213604080836900,1.4828369140625,-0.37139999866485596,0.47509998083114624,0.5069999694824219
1702213604140836900,1.5428369140625,1.7048999071121216,-0.2890999913215637,-1.1625999212265015
1702213604200863500,1.602863525390625,0.0013000000035390258,0.12029999494552612,-0.39819997549057007
1702213604260836900,1.6628369140625,2.2381999492645264,-0.7949999570846558,-0.745199978351593
1702213604320836900,1.7228369140625,2.5016000270843506,0.34709998965263367,-0.5577999949455261
1702213604380836900,1.7828369140625,-0.7446999549865723,-0.15279999375343323,-0.13599999248981476
1702213604440836900,1.8428369140625,-1.2451999187469482,-0.8572999835014343,0.3456999957561493
1702213604500836900,1.9028369140625,-2.671799898147583,-0.9386999607086182,0.8244999647140503
1702213604560836900,1.9628369140625,-1.5699999332427979,-0.9892999529838562,0.8774999976158142
1702213604620836900,2.0228369140625,-1.493399977684021,-0.7173999547958374,0.5221999883651733
1702213604680836900,2.0828369140625,-0.3836999833583832,-0.5928999781608582,0.5719000101089478
1702213604740836900,2.1428369140625,-0.07249999791383743,-0.16089999675750732,0.0471000000834465
1702213604800836900,2.2028369140625,-0.505299985408783,0.15469999611377716,0.06499999761581421
1702213604860836900,2.2628369140625,-0.5953999757766724,0.04129999876022339,0.17589999735355377
1702213604920836900,2.3228369140625,-0.9251999855041504,-0.3407999873161316,-0.11429999768733978
1702213604980836900,2.3828369140625,-1.1776999235153198,-0.22519999742507935,0.659500002861023
1702213605040836900,2.4428369140625,-3.3966000080108643,-0.676800012588501,1.2336000204086304
1702213605100836900,2.5028369140625,-6.731799602508545,-2.743799924850464,4.094399929046631
1702213605160836900,2.5628369140625,-10.33739948272705,-6.744499683380127,7.678499698638916
1702213605220836900,2.6228369140625,-8.917499542236328,-12.55840015411377,10.521100044250488
1702213605280836900,2.6828369140625,-4.924499988555908,-19.06989860534668,9.346399307250977
1702213605340836900,2.7428369140625,-3.8559999465942383,-27.36669921875,-5.136399745941162
1702213605400836900,2.8028369140625,-5.665299892425537,-21.091798782348633,-10.28749942779541
1702213605460836900,2.8628369140625,-0.38769999146461487,-11.246999740600586,-13.464399337768555
1702213605520836900,2.9228369140625,3.833099842071533,-4.164400100708008,-4.726999759674072
1702213605580836900,2.9828369140625,3.4649999141693115,-1.9256999492645264,-8.852299690246582
1702213605640836900,3.0428369140625,2.0369999408721924,-0.9548999667167664,-13.568099975585938
1702213605700836900,3.1028369140625,2.3244998455047607,-0.5735999941825867,-14.046799659729004
1702213605760836900,3.1628369140625,4.115900039672852,0.21859999001026154,-11.278800010681152
1702213605820836900,3.2228369140625,5.519599914550781,-1.6208000183105469,-8.2391996383667
1702213605880836900,3.2828369140625,1.2913999557495117,-8.910699844360352,-11.75529956817627
1702213605940836900,3.3428369140625,1.7689999341964722,-9.923500061035156,-4.507499694824219
1702213606000836900,3.4028369140625,0.05219999700784683,-8.671099662780762,1.930899977684021
1702213606060836900,3.4628369140625,-0.07699999958276749,-6.421199798583984,3.0401999950408936
1702213606120836900,3.5228369140625,1.8644999265670776,-2.512199878692627,11.638899803161621
1702213606180836900,3.5828369140625,2.7342000007629395,-3.021899938583374,7.027699947357178
1702213606240836900,3.6428369140625,4.157400131225586,-2.990999937057495,6.851799964904785
1702213606300863500,3.702863525390625,3.018399953842163,-1.073099970817566,8.748700141906738
1702213606360836900,3.7628369140625,-0.2028999924659729,-0.9941999912261963,7.084099769592285
1702213606420836900,3.8228369140625,-1.1863999366760254,-2.1352999210357666,3.8056998252868652
1702213606480836900,3.8828369140625,-0.7073000073432922,-3.323199987411499,3.365000009536743
1702213606540836900,3.9428369140625,0.24639999866485596,-4.00570011138916,3.607999801635742
1702213606600836900,4.0028369140625,0.7512999773025513,-6.917599678039551,-1.3229999542236328
1702213606660836900,4.0628369140625,-0.5417999625205994,-4.549799919128418,-8.671099662780762
1702213606720836900,4.1228369140625,-0.7924000024795532,-2.5448999404907227,-6.656799793243408
1702213606780836900,4.1828369140625,-0.14429999887943268,1.0655999183654785,-5.802999973297119
1702213606840836900,4.2428369140625,0.8479999899864197,2.027400016784668,-5.786299705505371
1702213606900836900,4.3028369140625,1.5151000022888184,1.5521999597549438,-6.848199844360352
1702213606960836900,4.3628369140625,1.9016999006271362,0.4980999827384949,-5.791299819946289
1702213607020836900,4.4228369140625,1.1058999300003052,-2.86329984664917,-4.715399742126465
1702213607080836900,4.4828369140625,-0.48259997367858887,-1.9301999807357788,-3.4255998134613037
1702213607140836900,4.5428369140625,-0.11109999567270279,-2.3248000144958496,0.2777999937534332
1702213607200836900,4.6028369140625,-1.909999966621399,-1.9478999376296997,1.9026999473571777
1702213607260836900,4.6628369140625,-1.3071999549865723,-2.3157999515533447,0.8797999620437622
1702213607320836900,4.7228369140625,-1.2655999660491943,-2.187700033187866,0.8574999570846558
1702213607380836900,4.7828369140625,-2.808300018310547,-3.0505998134613037,1.1606999635696411
1702213607440836900,4.8428369140625,-1.5242999792099,-1.5952999591827393,2.964399814605713
1702213607500836900,4.9028369140625,-1.517799973487854,-0.4203999936580658,5.993899822235107
1702213607560836900,4.9628369140625,-0.5857999920845032,-0.310699999332428,8.436999320983887
1702213607620836900,5.0228369140625,0.773099958896637,-1.4688999652862549,7.329099655151367
1702213607680836900,5.0828369140625,-0.33869999647140503,-2.183199882507324,6.518599987030029
1702213607740836900,5.1428369140625,-1.4960999488830566,-2.082399845123291,4.6875
1702213607800836900,5.2028369140625,-2.213599920272827,-2.826900005340576,3.3576998710632324
1702213607860836900,5.2628369140625,-1.9632999897003174,-6.594799995422363,0.15689998865127563
1702213607920836900,5.3228369140625,-0.660099983215332,-4.921299934387207,-7.611999988555908
1702213607980836900,5.3828369140625,-0.6118999719619751,-4.0015997886657715,-7.6377997398376465
1702213608040836900,5.4428369140625,-0.38589999079704285,-0.7605999708175659,-7.808399677276611
1702213608100836900,5.5028369140625,-0.5690999627113342,2.1670000553131104,-6.73859977722168
1702213608160836900,5.5628369140625,-1.074199914932251,2.367300033569336,-7.586999893188477
1702213608220836900,5.6228369140625,0.9343000054359436,-0.9107999801635742,-6.931399822235107
1702213608280836900,5.6828369140625,4.190899848937988,-4.033999919891357,-4.624399662017822
1702213608340836900,5.7428369140625,2.4993999004364014,-6.099799633026123,-1.6669999361038208
1702213608400863500,5.802863525390625,0.03229999914765358,-6.090399742126465,0.602899968624115
1702213608460836900,5.8628369140625,-1.3264999389648438,-5.631700038909912,4.806299686431885
1702213608520836900,5.9228369140625,-3.4522998332977295,-2.907099962234497,5.891200065612793
1702213608580836900,5.9828369140625,-2.666299819946289,-1.9311999082565308,5.459799766540527
1702213608640836900,6.0428369140625,-2.5802998542785645,1.6502000093460083,6.899499893188477
1702213608700836900,6.1028369140625,-3.1277999877929688,2.444700002670288,5.986199855804443
1702213608760836900,6.1628369140625,-3.0257999897003174,1.5097999572753906,5.964699745178223
1702213608820836900,6.2228369140625,-1.3973000049591064,-0.2848999798297882,4.519199848175049
1702213608880836900,6.2828369140625,-0.18159998953342438,-1.0526000261306763,2.2316999435424805
1702213608940836900,6.3428369140625,-0.5446000099182129,-3.0505998134613037,0.3131999969482422
1702213609000836900,6.4028369140625,-1.114799976348877,-3.4567999839782715,-3.0782999992370605
1702213609060836900,6.4628369140625,0.0940999984741211,-5.099499702453613,-2.67330002784729
1702213609120836900,6.5228369140625,1.496999979019165,-0.98089998960495,-5.323800086975098
1702213609180836900,6.5828369140625,-0.20319999754428864,-2.5727999210357666,-7.0329999923706055
1702213609240836900,6.6428369140625,0.5552999973297119,-0.9071999788284302,-6.833499908447266
1702213609300836900,6.7028369140625,3.033099889755249,2.304499864578247,-5.085099697113037
1702213609360836900,6.7628369140625,1.0153999328613281,1.5037000179290771,-3.4154999256134033
1702213609420836900,6.8228369140625,-0.7333999872207642,-1.5729999542236328,-2.6161999702453613
1702213609480836900,6.8828369140625,-0.04859999939799309,-3.2670998573303223,-2.0416998863220215
1702213609540836900,6.9428369140625,-0.5234999656677246,-3.327199935913086,0.10459999740123749
1702213609600836900,7.0028369140625,-2.0782999992370605,-6.735599994659424,6.719799995422363
1702213609660836900,7.0628369140625,1.8452999591827393,-1.7788000106811523,9.22819995880127
1702213609720836900,7.1228369140625,-2.382499933242798,-5.044099807739258,4.956299781799316
1702213609780836900,7.1828369140625,-1.5999999046325684,0.04800000041723251,7.708399772644043
1702213609840836900,7.2428369140625,-0.013100000098347664,0.3652999997138977,5.032899856567383
1702213609900836900,7.3028369140625,1.3628000020980835,-0.6384999752044678,2.75219988822937
1702213609960836900,7.3628369140625,2.9131999015808105,-1.3543000221252441,0.6965999603271484
1702213610020836900,7.4228369140625,2.03659987449646,-0.5728999972343445,-1.0647000074386597
1702213610080836900,7.4828369140625,1.3633999824523926,-0.19329999387264252,-2.992499828338623
1702213610140836900,7.5428369140625,1.1704000234603882,-1.8917999267578125,-5.754199981689453
1702213610200836900,7.6028369140625,-1.9773999452590942,-3.7321999073028564,-10.09529972076416
1702213610260836900,7.6628369140625,0.3034999966621399,-2.7881999015808105,-10.662099838256836
1702213610320836900,7.7228369140625,1.8181999921798706,0.6681999564170837,-5.042999744415283
1702213610380836900,7.7828369140625,-0.6884999871253967,-2.579900026321411,-5.321899890899658
1702213610440836900,7.8428369140625,-1.2384999990463257,-4.113999843597412,-4.609600067138672
1702213610500836900,7.9028369140625,1.3865000009536743,-3.1088998317718506,-0.6539999842643738
1702213610560836900,7.9628369140625,1.6014999151229858,-2.691999912261963,2.3332998752593994
1702213610620836900,8.0228369140625,0.7696999907493591,-2.2251999378204346,4.386099815368652
1702213610680836900,8.0828369140625,0.9332999587059021,-2.348599910736084,5.8526997566223145
1702213610740836900,8.1428369140625,1.2181999683380127,-2.001499891281128,6.922399997711182
1702213610800836900,8.2028369140625,-0.752299964427948,-2.168799877166748,8.31659984588623
1702213610860836900,8.2628369140625,-2.102099895477295,-5.602799892425537,8.965399742126465
1702213610920836900,8.3228369140625,-0.24039998650550842,-6.649399757385254,4.318599700927734
1702213610980836900,8.3828369140625,0.18079999089241028,-4.710899829864502,3.220599889755249
1702213611040836900,8.4428369140625,0.1946999877691269,-2.9587998390197754,0.715499997138977
1702213611100836900,8.5028369140625,-0.18539999425411224,-1.6525999307632446,-2.2182998657226562
1702213611160836900,8.5628369140625,0.6753999590873718,-2.3043999671936035,-6.013099670410156
1702213611220836900,8.6228369140625,2.267899990081787,-1.7215999364852905,-8.851900100708008
1702213611280836900,8.6828369140625,2.7578999996185303,0.8452000021934509,-8.176199913024902
1702213611340836900,8.7428369140625,1.1025999784469604,0.9930999875068665,-7.298599720001221
1702213611400836900,8.8028369140625,-0.17379999160766602,-3.580899953842163,-7.954099655151367
1702213611460836900,8.8628369140625,2.4417998790740967,-5.25469970703125,-8.769000053405762
1702213611520836900,8.9228369140625,3.2893998622894287,-1.9559999704360962,-2.4423999786376953
1702213611580836900,8.9828369140625,0.9989999532699585,-3.2105000019073486,-0.07970000058412552
1702213611640836900,9.0428369140625,-0.7425000071525574,-4.005300045013428,-0.4001999795436859
1702213611700836900,9.1028369140625,0.8151999711990356,-2.9944000244140625,-0.9975999593734741
1702213611760836900,9.1628369140625,2.296999931335449,-1.934999942779541,1.5131999254226685
1702213611820836900,9.2228369140625,2.850100040435791,-2.9210000038146973,4.056399822235107
1702213611880836900,9.2828369140625,3.419099807739258,-3.579399824142456,5.134999752044678
1702213611940836900,9.3428369140625,1.5996999740600586,-2.7455999851226807,6.099099636077881
1702213612000836900,9.4028369140625,1.7209999561309814,-3.7273998260498047,9.967700004577637
1702213612060836900,9.4628369140625,-0.47119998931884766,-4.146599769592285,6.243799686431885
1702213612120836900,9.5228369140625,-1.025399923324585,-4.290899753570557,4.888599872589111
1702213612180836900,9.5828369140625,0.31369999051094055,-4.032099723815918,4.279599666595459
1702213612240836900,9.6428369140625,1.2007999420166016,-2.63539981842041,1.6878999471664429
1702213612300836900,9.7028369140625,0.15359999239444733,-1.8217999935150146,-1.1683999300003052
1702213612360836900,9.7628369140625,0.08919999748468399,-3.0687999725341797,-5.598999977111816
1702213612420836900,9.8228369140625,1.774399995803833,-2.2540998458862305,-8.206600189208984
1702213612480836900,9.8828369140625,2.400099992752075,-0.9142999649047852,-7.855799674987793
1702213612540836900,9.9428369140625,0.6961999535560608,-2.339599847793579,-10.891200065612793
1702213612600863500,10.002863525390625,-0.28999999165534973,-2.9896998405456543,-10.71519947052002
1702213612660836900,10.0628369140625,0.6089000105857849,-0.9960999488830566,-7.788399696350098
1702213612720836900,10.1228369140625,-1.4535999298095703,-3.7107999324798584,-4.465399742126465
1702213612780836900,10.1828369140625,-1.7847999334335327,-5.64739990234375,-2.9763998985290527
1702213612840836900,10.2428369140625,1.3710999488830566,-4.947499752044678,-0.1103999987244606
1702213612900836900,10.3028369140625,3.225099802017212,-4.34119987487793,3.0242998600006104
1702213612960836900,10.3628369140625,3.136399984359741,-4.261300086975098,5.514499664306641
1702213613020836900,10.4228369140625,2.4842000007629395,-4.11899995803833,6.801499843597412
1702213613080836900,10.4828369140625,2.3313000202178955,-3.3810999393463135,8.425899505615234
1702213613140836900,10.5428369140625,1.3504999876022339,-3.065500020980835,10.633599281311035
1702213613200836900,10.6028369140625,1.5327999591827393,-5.687999725341797,6.198699951171875
1702213613260836900,10.6628369140625,-0.7703999876976013,-5.13599967956543,2.8594000339508057
1702213613320836900,10.7228369140625,-0.8057999610900879,-3.8374998569488525,1.621399998664856
1702213613380836900,10.7828369140625,-0.15289999544620514,-2.0541999340057373,-0.373199999332428
1702213613440836900,10.8428369140625,-0.540399968624115,-1.6552000045776367,-3.2272000312805176
1702213613500836900,10.9028369140625,0.5055999755859375,-1.3036999702453613,-4.753599643707275
1702213613560836900,10.9628369140625,1.386699914932251,-0.7042999863624573,-4.710400104522705
1702213613620836900,11.0228369140625,1.1079000234603882,-0.3730999827384949,-6.441299915313721
1702213613680836900,11.0828369140625,0.6061999797821045,-1.0047999620437622,-7.974999904632568
1702213613740836900,11.1428369140625,0.4114999771118164,-1.5521999597549438,-6.795899868011475
1702213613800836900,11.2028369140625,-0.5087999701499939,-1.43559992313385,-10.360199928283691
1702213613860836900,11.2628369140625,0.6660000085830688,-2.0190999507904053,-4.137399673461914
1702213613920836900,11.3228369140625,0.5546999573707581,-2.879499912261963,-2.775399923324585
1702213613980836900,11.3828369140625,0.05979999899864197,-2.189499855041504,-1.719099998474121
1702213614040836900,11.4428369140625,0.46469998359680176,-1.6554999351501465,0.26669999957084656
1702213614100836900,11.5028369140625,1.9645999670028687,-2.0676000118255615,1.9479999542236328
1702213614160836900,11.5628369140625,2.9059998989105225,-2.9729998111724854,3.276700019836426
1702213614220836900,11.6228369140625,3.934199810028076,-2.963099956512451,5.115099906921387
1702213614280836900,11.6828369140625,4.502599716186523,-3.885199785232544,7.296199798583984
1702213614340836900,11.7428369140625,3.816999912261963,-5.545199871063232,8.847799301147461
1702213614400836900,11.8028369140625,-0.7989999651908875,-5.232199668884277,4.736199855804443
1702213614460836900,11.8628369140625,-0.42659997940063477,-4.790599822998047,4.243299961090088
1702213614520836900,11.9228369140625,0.32819998264312744,-2.1468000411987305,1.5716999769210815
1702213614580836900,11.9828369140625,-0.1777999997138977,0.27889999747276306,-0.30079999566078186
1702213614640836900,12.0428369140625,-1.82069993019104,0.26749998331069946,-2.732100009918213
1702213614700863500,12.102863525390624,-1.7530999183654785,-1.0570999383926392,-5.560499668121338
1702213614760836900,12.1628369140625,-0.18150000274181366,-1.3464999198913574,-9.616499900817871
1702213614820836900,12.2228369140625,-0.15349999070167542,-1.0300999879837036,-10.038000106811523
1702213614880836900,12.2828369140625,-0.461899995803833,0.11379999667406082,-7.140999794006348
1702213614940836900,12.3428369140625,-1.4692999124526978,-0.7755999565124512,-9.343099594116211
1702213615000836900,12.4028369140625,-2.5752999782562256,-4.501699924468994,-7.837599754333496
1702213615060836900,12.4628369140625,-1.7146999835968018,-5.731100082397461,-4.5731000900268555
1702213615120836900,12.5228369140625,1.902999997138977,-3.5652999877929688,-0.7576000094413757
1702213615180836900,12.5828369140625,2.5160999298095703,-3.2286999225616455,2.523699998855591
1702213615240836900,12.6428369140625,2.591899871826172,-3.3474998474121094,3.953699827194214
1702213615300836900,12.7028369140625,2.669800043106079,-2.8874998092651367,4.496500015258789
1702213615360836900,12.7628369140625,2.447399854660034,-2.7451000213623047,7.207399845123291
1702213615420836900,12.8228369140625,3.084199905395508,-2.098299980163574,8.225799560546875
1702213615480836900,12.8828369140625,-0.9267999529838562,-5.130199909210205,8.53219985961914
1702213615540836900,12.9428369140625,-1.9896999597549438,-7.09660005569458,5.573699951171875
1702213615600836900,13.0028369140625,-1.9738999605178833,-5.675600051879883,3.7333998680114746
1702213615660836900,13.0628369140625,-0.49859997630119324,-2.569499969482422,2.2194998264312744
1702213615720836900,13.1228369140625,0.4505999982357025,-2.0147998332977295,0.44599997997283936
1702213615780836900,13.1828369140625,0.7390999794006348,-2.344399929046631,-3.7724997997283936
1702213615840836900,13.2428369140625,2.935499906539917,-2.748199939727783,-6.052700042724609
1702213615900836900,13.3028369140625,3.3269999027252197,-2.2439000606536865,-4.323699951171875
1702213615960836900,13.3628369140625,3.57289981842041,-0.729200005531311,-6.388899803161621
1702213616020836900,13.4228369140625,1.9860999584197998,-1.2928999662399292,-11.857099533081055
1702213616080836900,13.4828369140625,-2.9784998893737793,-4.3933000564575195,-13.545599937438965
1702213616140836900,13.5428369140625,0.6082000136375427,-5.491999626159668,-7.031599998474121
1702213616200836900,13.6028369140625,2.7410998344421387,-3.148399829864502,-2.7274999618530273
1702213616260836900,13.6628369140625,1.7493999004364014,-2.6464998722076416,0.5084999799728394
1702213616320836900,13.7228369140625,0.6247999668121338,-3.4156999588012695,2.128999948501587
1702213616380836900,13.7828369140625,0.7224000096321106,-5.876199722290039,2.257200002670288
1702213616440836900,13.8428369140625,1.5271999835968018,-5.529900074005127,2.991299867630005
1702213616500836900,13.9028369140625,3.301800012588501,-4.770100116729736,7.742099761962891
1702213616560836900,13.9628369140625,1.4124000072479248,-5.142499923706055,10.56779956817627
1702213616620836900,14.0228369140625,2.1297998428344727,-4.227999687194824,10.811999320983887
1702213616680836900,14.0828369140625,0.015399999916553497,-5.5702996253967285,5.93209981918335
1702213616740836900,14.1428369140625,-1.030900001525879,-4.476500034332275,4.814899921417236
1702213616800863500,14.202863525390624,0.3330000042915344,-4.000100135803223,2.4679999351501465
1702213616860836900,14.2628369140625,0.2777000069618225,-5.4654998779296875,-0.9340999722480774
1702213616920836900,14.3228369140625,0.6347000002861023,-5.304599761962891,-6.814899921417236
1702213616980836900,14.3828369140625,1.1165999174118042,-2.0690999031066895,-10.735300064086914
1702213617040836900,14.4428369140625,1.4737999439239502,0.8631999492645264,-8.608399391174316
1702213617100836900,14.5028369140625,0.9958999752998352,-0.46949997544288635,-12.651299476623535
1702213617160836900,14.5628369140625,1.5231000185012817,-4.388199806213379,-13.890799522399902
1702213617220836900,14.6228369140625,2.594099998474121,-4.674299716949463,-8.14069938659668
1702213617280836900,14.6828369140625,1.5691999197006226,-6.9487996101379395,-3.414599895477295
1702213617340836900,14.7428369140625,0.6074999570846558,-5.725100040435791,-2.0722999572753906
1702213617400836900,14.8028369140625,1.675399899482727,-5.050699710845947,-0.16669999063014984
1702213617460836900,14.8628369140625,1.7703999280929565,-5.999899864196777,2.7211999893188477
1702213617520836900,14.9228369140625,1.5312999486923218,-6.0794997215271,4.571199893951416
1702213617580836900,14.9828369140625,2.3725998401641846,-4.968299865722656,6.922999858856201
1702213617640836900,15.0428369140625,1.514699935913086,-4.122799873352051,10.491000175476074
1702213617700836900,15.1028369140625,-0.2166999876499176,-3.2913999557495117,10.815400123596191
1702213617760836900,15.1628369140625,-3.6658999919891357,-4.759099960327148,10.57409954071045
1702213617820836900,15.2228369140625,-2.5590999126434326,-6.8668999671936035,5.380699634552002
1702213617880836900,15.2828369140625,-3.1885998249053955,-7.3526997566223145,5.26639986038208
1702213617940836900,15.3428369140625,-0.15230000019073486,-7.5000996589660645,1.3665000200271606
1702213618000836900,15.4028369140625,1.3485000133514404,-6.479499816894531,-3.397899866104126
1702213618060836900,15.4628369140625,0.8531999588012695,-4.14709997177124,-8.528200149536133
1702213618120836900,15.5228369140625,2.1362998485565186,-0.19749999046325684,-7.027299880981445
1702213618180836900,15.5828369140625,2.7396998405456543,-0.38019999861717224,-7.685999870300293
1702213618240836900,15.6428369140625,4.6579999923706055,-3.721299886703491,-13.964499473571777
1702213618300836900,15.7028369140625,5.833199977874756,-3.746299982070923,-10.457099914550781
1702213618360836900,15.7628369140625,2.9893999099731445,-3.035399913787842,-7.748199939727783
1702213618420836900,15.8228369140625,-0.917199969291687,-5.97599983215332,-5.243899822235107
1702213618480836900,15.8828369140625,0.22439999878406525,-6.884099960327148,-3.5797998905181885
1702213618540836900,15.9428369140625,1.712399959564209,-6.3480000495910645,0.3498999774456024
1702213618600836900,16.0028369140625,1.4020999670028687,-6.155600070953369,3.1631999015808105
1702213618660836900,16.0628369140625,0.842799961566925,-5.491499900817871,5.211100101470947
1702213618720836900,16.1228369140625,1.1205999851226807,-4.743199825286865,7.857499599456787
1702213618780836900,16.1828369140625,1.7476999759674072,-3.042099952697754,8.958700180053711
1702213618840836900,16.2428369140625,0.43219998478889465,-5.610799789428711,10.349899291992188
1702213618900865000,16.302864990234376,-1.7073999643325806,-5.301300048828125,8.155699729919434
1702213618960836900,16.3628369140625,-2.763200044631958,-6.430899620056152,6.640899658203125
1702213619020836900,16.4228369140625,-2.98829984664917,-5.679499626159668,4.895999908447266
1702213619080836900,16.4828369140625,0.5816999673843384,-4.201399803161621,1.9950000047683716
1702213619140836900,16.5428369140625,-0.5144999623298645,-3.7319998741149902,-1.1983000040054321
1702213619200836900,16.6028369140625,1.1171000003814697,-4.783899784088135,-6.242799758911133
1702213619260836900,16.6628369140625,3.424799919128418,-3.6205999851226807,-8.880499839782715
1702213619320836900,16.7228369140625,3.398099899291992,-2.309499979019165,-9.144999504089355
1702213619380836900,16.7828369140625,5.081399917602539,-2.1313998699188232,-9.309199333190918
1702213619440836900,16.8428369140625,3.71809983253479,-1.5937999486923218,-11.117599487304688
1702213619500836900,16.9028369140625,1.1138999462127686,-3.7757999897003174,-6.788699626922607
1702213619560836900,16.9628369140625,-0.4569999873638153,-5.712499618530273,-4.425699710845947
1702213619620836900,17.0228369140625,1.9280999898910522,-4.526400089263916,-2.246299982070923
1702213619680836900,17.0828369140625,1.743399977684021,-3.8469998836517334,1.045699954032898
1702213619740836900,17.1428369140625,0.6834999918937683,-4.0833001136779785,3.84309983253479
1702213619800836900,17.2028369140625,1.678399920463562,-4.122600078582764,4.858799934387207
1702213619860836900,17.2628369140625,2.249199867248535,-3.344099998474121,7.365599632263184
1702213619920836900,17.3228369140625,1.1841999292373657,-1.9021999835968018,9.39680004119873
1702213619980836900,17.3828369140625,-2.008699893951416,-5.227399826049805,10.067500114440918
1702213620040836900,17.4428369140625,1.1575000286102295,-6.638899803161621,7.183099746704102
1702213620100836900,17.5028369140625,-0.2833999991416931,-5.58489990234375,4.622699737548828
1702213620160836900,17.5628369140625,0.5586999654769897,-4.317299842834473,4.112499713897705
1702213620220836900,17.6228369140625,1.0478999614715576,-3.944499969482422,1.0467000007629395
1702213620280836900,17.6828369140625,0.8000999689102173,-4.531199932098389,-4.1605000495910645
1702213620340836900,17.7428369140625,1.7793999910354614,-3.809000015258789,-9.479000091552734
1702213620400836900,17.8028369140625,3.6928999423980713,0.9835000038146973,-7.002500057220459
1702213620460836900,17.8628369140625,1.8492999076843262,1.3727999925613403,-6.371699810028076
1702213620520836900,17.9228369140625,-2.3854000568389893,-3.5005998611450195,-13.150899887084961
1702213620580836900,17.9828369140625,0.6771000027656555,-1.671299934387207,-5.902499675750732
1702213620640836900,18.0428369140625,0.9239999651908875,-1.226599931716919,-5.769099712371826
1702213620700836900,18.1028369140625,-1.6215999126434326,-4.007299900054932,-6.139899730682373
1702213620760836900,18.1628369140625,-2.427000045776367,-5.933199882507324,-2.950899839401245
1702213620820865000,18.222864990234374,0.7754999995231628,-5.17579984664917,-0.5536999702453613
1702213620880836900,18.2828369140625,3.1903998851776123,-4.058399677276611,1.024999976158142
1702213620940836900,18.3428369140625,3.7027997970581055,-4.129199981689453,3.357599973678589
1702213621000865000,18.402864990234374,3.367799997329712,-3.5648999214172363,5.4355998039245605
1702213621060836900,18.4628369140625,3.2379000186920166,-2.9348998069763184,10.177299499511719
1702213621120836900,18.5228369140625,1.1898999214172363,-2.8711998462677,9.397799491882324
1702213621180836900,18.5828369140625,1.0480999946594238,-4.891599655151367,9.135899543762207
1702213621240836900,18.6428369140625,1.4239000082015991,-7.232399940490723,5.851199626922607
1702213621300836900,18.7028369140625,0.6843000054359436,-6.737400054931641,3.459199905395508
1702213621360836900,18.7628369140625,1.8691999912261963,-5.709399700164795,2.1384999752044678
1702213621420836900,18.8228369140625,0.8826999664306641,-4.78439998626709,-2.2681000232696533
1702213621480836900,18.8828369140625,-0.3093999922275543,-4.273799896240234,-7.450799942016602
1702213621540836900,18.9428369140625,0.8743999600410461,-1.403899908065796,-7.3414998054504395
1702213621600836900,19.0028369140625,5.259699821472168,-0.22360000014305115,-6.461999893188477
1702213621660836900,19.0628369140625,3.920599937438965,-3.0325000286102295,-11.687999725341797
1702213621720836900,19.1228369140625,2.923499822616577,-0.7687000036239624,-8.065099716186523
1702213621780836900,19.1828369140625,1.129499912261963,-2.410799980163574,-7.616600036621094
1702213621840836900,19.2428369140625,0.3174999952316284,-4.7368998527526855,-7.216599941253662
1702213621900836900,19.3028369140625,-0.8788999915122986,-7.9263997077941895,-4.310100078582764
1702213621960836900,19.3628369140625,0.7055000066757202,-6.450799942016602,-0.8762999773025513
1702213622020836900,19.4228369140625,1.3985999822616577,-4.720999717712402,2.358599901199341
1702213622080836900,19.4828369140625,0.7849000096321106,-3.708699941635132,5.382599830627441
1702213622140836900,19.5428369140625,1.5434999465942383,-3.3132998943328857,6.083099842071533
1702213622200836900,19.6028369140625,1.574299931526184,-3.1425998210906982,8.126299858093262
1702213622260836900,19.6628369140625,0.322299987077713,-3.645699977874756,10.024399757385254
1702213622320836900,19.7228369140625,0.18869999051094055,-3.244499921798706,10.364099502563477
1702213622380836900,19.7828369140625,-1.3626999855041504,-6.615499973297119,6.594599723815918
1702213622440836900,19.8428369140625,-0.41429999470710754,-6.336400032043457,4.574100017547607
1702213622500836900,19.9028369140625,2.0844998359680176,-5.845999717712402,3.120299816131592
1702213622560836900,19.9628369140625,0.8554999828338623,-4.252500057220459,-0.7737999558448792
1702213622620836900,20.0228369140625,0.026599999517202377,-3.3778998851776123,-5.23199987411499
1702213622680836900,20.0828369140625,1.7204999923706055,-2.9537999629974365,-7.853999614715576
1702213622740836900,20.1428369140625,3.0565998554229736,0.11029999703168869,-5.39769983291626
1702213622800836900,20.2028369140625,1.6649999618530273,-0.6617000102996826,-7.567800045013428
1702213622860836900,20.2628369140625,-0.25679999589920044,-2.948499917984009,-11.493800163269043
1702213622920836900,20.3228369140625,-0.8463000059127808,-2.741299867630005,-9.705900192260742
1702213622980836900,20.3828369140625,-1.3773000240325928,-2.4052999019622803,-6.5092997550964355
1702213623040836900,20.4428369140625,-2.517199993133545,-5.527199745178223,-4.738399982452393
1702213623100865000,20.502864990234375,0.03790000081062317,-6.731299877166748,-2.4240000247955322
1702213623160836900,20.5628369140625,2.5197999477386475,-5.252399921417236,0.44339999556541443
1702213623220836900,20.6228369140625,2.63919997215271,-4.062099933624268,3.660799980163574
1702213623280836900,20.6828369140625,2.4707999229431152,-3.5017998218536377,5.403500080108643
1702213623340836900,20.7428369140625,3.101300001144409,-3.2510998249053955,6.586899757385254
1702213623400836900,20.8028369140625,3.221299886703491,-3.571499824523926,8.071599960327148
1702213623460836900,20.8628369140625,0.9843999743461609,-3.9031999111175537,8.977499961853027
1702213623520836900,20.9228369140625,-0.054899998009204865,-4.298599720001221,8.664299964904785
1702213623580836900,20.9828369140625,-0.5831999778747559,-5.589200019836426,5.647500038146973
1702213623640836900,21.0428369140625,-0.11580000072717667,-6.029399871826172,4.385900020599365
1702213623700836900,21.1028369140625,1.2364000082015991,-5.936399936676025,1.6484999656677246
1702213623760836900,21.1628369140625,-0.11299999803304672,-4.108999729156494,-3.2291998863220215
1702213623820836900,21.2228369140625,-0.28049999475479126,-3.295300006866455,-8.125800132751465
1702213623880836900,21.2828369140625,2.0202999114990234,-1.0597000122070312,-6.472599983215332
1702213623940836900,21.3428369140625,2.4574999809265137,1.025499939918518,-7.17419958114624
1702213624000836900,21.4028369140625,0.5498999953269958,-1.6031999588012695,-10.86199951171875
1702213624060836900,21.4628369140625,-0.9922999739646912,-1.9519999027252197,-8.733799934387207
1702213624120836900,21.5228369140625,-1.4524999856948853,-2.7685999870300293,-8.731200218200684
1702213624180836900,21.5828369140625,-0.692799985408783,-5.153899669647217,-4.922999858856201
1702213624240836900,21.6428369140625,-0.26350000500679016,-6.471099853515625,-1.3125
1702213624300836900,21.7028369140625,1.011699914932251,-4.9807000160217285,0.35920000076293945
1702213624360836900,21.7628369140625,1.632099986076355,-3.6761999130249023,1.9429999589920044
1702213624420836900,21.8228369140625,2.0947999954223633,-3.7293999195098877,4.167699813842773
1702213624480836900,21.8828369140625,2.495300054550171,-3.2572999000549316,5.907099723815918
1702213624540907300,21.9429072265625,2.62749981880188,-1.5702999830245972,8.451299667358398
1702213624600836900,22.0028369140625,1.9879999160766602,-1.3770999908447266,10.527899742126465
1702213624660836900,22.0628369140625,-0.27320000529289246,-4.565499782562256,8.276899337768555
1702213624720836900,22.1228369140625,-0.10029999911785126,-6.215299606323242,6.763700008392334
1702213624780836900,22.1828369140625,-0.6545000076293945,-7.376899719238281,3.069700002670288
1702213624840836900,22.2428369140625,-1.191999912261963,-6.357999801635742,0.4892999827861786
1702213624900836900,22.3028369140625,0.8461999893188477,-4.894499778747559,-1.906599998474121
1702213624960836900,22.3628369140625,1.6536999940872192,-2.1541998386383057,-4.575999736785889
1702213625020836900,22.4228369140625,1.3285999298095703,-0.6718999743461609,-5.581299781799316
1702213625080836900,22.4828369140625,2.69350004196167,0.2604999840259552,-6.08329963684082
1702213625140836900,22.5428369140625,1.3328999280929565,1.0042999982833862,-5.6728997230529785
1702213625200865000,22.602864990234377,-1.9566999673843384,-0.9266999959945679,-7.826499938964844
1702213625260836900,22.6628369140625,-1.8564999103546143,-1.3192999362945557,-7.735199928283691
1702213625320836900,22.7228369140625,0.5194000005722046,-1.5442999601364136,-6.424999713897705
1702213625380836900,22.7828369140625,0.974399983882904,0.09109999984502792,-5.105999946594238
1702213625440836900,22.8428369140625,-1.0471999645233154,-4.109299659729004,-2.8097000122070312
1702213625500836900,22.9028369140625,-1.187600016593933,-7.8454999923706055,-3.8738999366760254
1702213625560836900,22.9628369140625,4.533799648284912,-5.9567999839782715,-1.678999900817871
1702213625620836900,23.0228369140625,3.607999801635742,-4.356499671936035,3.168299913406372
1702213625680836900,23.0828369140625,2.0730998516082764,-2.3217999935150146,5.872299671173096
1702213625740836900,23.1428369140625,1.8702999353408813,-0.6218000054359436,8.134099960327148
1702213625800836900,23.2028369140625,1.993899941444397,-2.6301000118255615,6.392999649047852
1702213625860836900,23.2628369140625,2.619499921798706,-4.542599678039551,7.596199989318848
1702213625920836900,23.3228369140625,3.2339999675750732,-5.916499614715576,7.025199890136719
1702213625980836900,23.3828369140625,2.6536998748779297,-5.2179999351501465,4.422699928283691
1702213626040836900,23.4428369140625,2.1789000034332275,-4.447400093078613,3.2345998287200928
1702213626100836900,23.5028369140625,2.145900011062622,-4.052499771118164,0.36479997634887695
1702213626160836900,23.5628369140625,-0.5670999884605408,-4.265899658203125,-4.829799652099609
1702213626220836900,23.6228369140625,-1.0562999248504639,-3.1029999256134033,-9.318299293518066
1702213626280836900,23.6828369140625,0.9199000000953674,-0.06799999624490738,-4.91949987411499
1702213626340836900,23.7428369140625,1.0678999423980713,1.0829999446868896,-5.261899948120117
1702213626400836900,23.8028369140625,-1.71999990940094,-0.4912000000476837,-7.2677998542785645
1702213626460836900,23.8628369140625,-2.8427999019622803,-3.0151000022888184,-8.79889965057373
1702213626520836900,23.9228369140625,-1.834299921989441,-0.7173999547958374,-7.352799892425537
1702213626580836900,23.9828369140625,-2.302299976348877,-0.8158999681472778,-3.333199977874756
1702213626640836900,24.0428369140625,-7.144599914550781,-5.0152997970581055,-3.76039981842041
1702213626700836900,24.1028369140625,-1.4488999843597412,-7.494499683380127,-4.3470001220703125
1702213626760836900,24.1628369140625,4.186800003051758,-5.436299800872803,0.3009999990463257
1702213626820865000,24.222864990234374,5.145299911499023,-5.019199848175049,2.9677000045776367
1702213626880836900,24.2828369140625,5.407099723815918,-4.435199737548828,4.1844000816345215
1702213626940836900,24.3428369140625,6.3125,-2.787099838256836,5.132499694824219
1702213627000836900,24.4028369140625,3.9968998432159424,-2.5423998832702637,5.674499988555908
1702213627060836900,24.4628369140625,1.8330999612808228,-1.778899908065796,5.933499813079834
1702213627120836900,24.5228369140625,-1.0729999542236328,-2.5809998512268066,6.386199951171875
1702213627180836900,24.5828369140625,-1.2253999710083008,-4.464399814605713,4.332499980926514
1702213627240836900,24.6428369140625,-2.3252999782562256,-3.576399803161621,2.0244998931884766
1702213627300865000,24.702864990234374,0.07349999994039536,-2.8763999938964844,3.235100030899048
1702213627360836900,24.7628369140625,2.921099901199341,-2.157399892807007,2.8295998573303223
1702213627420836900,24.8228369140625,4.449599742889404,-2.135200023651123,1.1171000003814697
1702213627480836900,24.8828369140625,3.4649999141693115,-2.1399998664855957,-2.0351998805999756
1702213627540836900,24.9428369140625,-0.7310000061988831,-3.8845999240875244,-8.585399627685547
1702213627600836900,25.0028369140625,-1.2608000040054321,-0.05509999766945839,-9.747099876403809
1702213627660836900,25.0628369140625,0.002899999963119626,2.187199831008911,-6.775799751281738
1702213627720836900,25.1228369140625,-0.6139000058174133,-0.6252999901771545,-8.382399559020996
1702213627780836900,25.1828369140625,-2.8736000061035156,-5.854399681091309,-10.832399368286133
1702213627840836900,25.2428369140625,-1.8463999032974243,-2.6541998386383057,-5.3856000900268555
1702213627900836900,25.3028369140625,-0.9317999482154846,-2.54229998588562,-1.827199935913086
1702213627960836900,25.3628369140625,0.48409998416900635,-6.229799747467041,-1.1008999347686768
1702213628020836900,25.4228369140625,2.373800039291382,-6.664899826049805,0.29580000042915344
1702213628080836900,25.4828369140625,4.6305999755859375,-4.748600006103516,2.9345998764038086
1702213628140836900,25.5428369140625,5.585000038146973,-1.9957998991012573,6.258800029754639
1702213628200836900,25.6028369140625,6.120599746704102,-1.3731999397277832,4.771999835968018
1702213628260836900,25.6628369140625,4.552499771118164,-2.891199827194214,4.756499767303467
1702213628320836900,25.7228369140625,2.1771998405456543,-4.259399890899658,3.900399923324585
1702213628380836900,25.7828369140625,-5.213099956512451,-1.2975999116897583,5.138199806213379
1702213628440836900,25.8428369140625,-6.860899925231934,-3.5209999084472656,7.037600040435791
1702213628500836900,25.9028369140625,-4.019499778747559,-5.472399711608887,4.580399990081787
1702213628560836900,25.9628369140625,-2.5185999870300293,-2.95169997215271,0.5683000087738037
1702213628620836900,26.0228369140625,-2.2376999855041504,-1.7114999294281006,0.37059998512268066
1702213628680836900,26.0828369140625,-1.2383999824523926,-0.7906000018119812,1.7757999897003174
1702213628740836900,26.1428369140625,3.1447999477386475,-0.535099983215332,1.1196999549865723
1702213628800836900,26.2028369140625,5.2743000984191895,-1.6107999086380005,-0.8075000047683716
1702213628860836900,26.2628369140625,6.100800037384033,-2.1470999717712402,-2.4766998291015625
1702213628920836900,26.3228369140625,4.115499973297119,-1.618899941444397,-3.786099910736084
1702213628980836900,26.3828369140625,-0.23929999768733978,-0.9581999778747559,-7.058899879455566
1702213629040836900,26.4428369140625,-0.6581999659538269,-5.324399948120117,-7.502499580383301
1702213629100836900,26.5028369140625,0.5378999710083008,-4.310999870300293,-7.731299877166748
1702213629160836900,26.5628369140625,1.2130999565124512,-1.138100028038025,-4.258800029754639
1702213629220836900,26.6228369140625,-1.1655999422073364,0.22519999742507935,-0.2897999882698059
1702213629280836900,26.6828369140625,-1.8104000091552734,-1.464900016784668,-2.0658998489379883
1702213629340836900,26.7428369140625,-0.065700002014637,-2.8132998943328857,-5.404200077056885
1702213629400865000,26.802864990234376,3.2970998287200928,-3.309299945831299,-1.358199954032898
1702213629460836900,26.8628369140625,5.336999893188477,-3.401599884033203,1.9333999156951904
1702213629520836900,26.9228369140625,4.94189977645874,-3.838099956512451,4.00600004196167
1702213629580836900,26.9828369140625,2.5708999633789062,-3.1987998485565186,4.8018999099731445
1702213629640836900,27.0428369140625,0.20109999179840088,-2.2623000144958496,5.3267998695373535
1702213629700836900,27.1028369140625,-1.5061999559402466,-3.471099853515625,7.860699653625488
1702213629760836900,27.1628369140625,-2.9853999614715576,-3.918299913406372,7.152499675750732
1702213629820836900,27.2228369140625,-3.4880998134613037,-3.6477999687194824,2.7983999252319336
1702213629880836900,27.2828369140625,1.1195999383926392,-3.234299898147583,3.0042998790740967
1702213629940836900,27.3428369140625,3.926999807357788,-1.3039000034332275,1.1453999280929565
1702213630000836900,27.4028369140625,-0.08349999785423279,0.5358999967575073,0.13729999959468842
1702213630060836900,27.4628369140625,-0.7008000016212463,-0.19169999659061432,-2.3443000316619873
1702213630120836900,27.5228369140625,2.710399866104126,-1.5073999166488647,-4.501399993896484
1702213630180836900,27.5828369140625,0.11589999496936798,-1.3949999809265137,-5.91949987411499
1702213630240836900,27.6428369140625,-2.63919997215271,-0.09529999643564224,-6.944399833679199
1702213630300836900,27.7028369140625,-2.109299898147583,-4.900300025939941,-7.576900005340576
1702213630360836900,27.7628369140625,-2.13100004196167,-3.1267998218536377,-10.698899269104004
1702213630420836900,27.8228369140625,-0.5460999608039856,-0.2962999939918518,-3.982999801635742
1702213630480836900,27.8828369140625,-0.6053000092506409,-1.2925000190734863,-1.2273999452590942
1702213630540836900,27.9428369140625,-0.35189998149871826,-2.3969998359680176,-0.9976999759674072
1702213630600836900,28.0028369140625,1.4071999788284302,-3.3755998611450195,-0.5270000100135803
1702213630660836900,28.0628369140625,3.745299816131592,-3.7537999153137207,0.6104999780654907
1702213630720836900,28.1228369140625,3.398099899291992,-2.572999954223633,2.857499837875366
1702213630780836900,28.1828369140625,4.257400035858154,-1.153499960899353,3.521099805831909
1702213630840836900,28.2428369140625,3.5441999435424805,-1.0572999715805054,5.493099689483643
1702213630900836900,28.3028369140625,2.5927999019622803,-3.0239999294281006,7.046799659729004
1702213630960836900,28.3628369140625,0.6211999654769897,-4.973499774932861,5.9579997062683105
1702213631020836900,28.4228369140625,0.1533999890089035,-5.3927998542785645,6.485099792480469
1702213631080836900,28.4828369140625,-1.5850999355316162,-5.640599727630615,2.0177998542785645
1702213631140836900,28.5428369140625,-3.2441999912261963,-3.079399824142456,-0.2549999952316284
1702213631200836900,28.6028369140625,0.3959999978542328,-0.901699960231781,-1.5867999792099
1702213631260836900,28.6628369140625,0.35850000381469727,0.16049998998641968,-2.446199893951416
1702213631320836900,28.7228369140625,2.290599822998047,-0.5418999791145325,-3.1270999908447266
1702213631380836900,28.7828369140625,3.960399866104126,0.17009998857975006,-2.7730000019073486
1702213631440836900,28.8428369140625,1.7697999477386475,0.9479999542236328,-1.952199935913086
1702213631500865000,28.902864990234374,3.1083998680114746,0.20679999887943268,0.9174999594688416
1702213631560836900,28.9628369140625,4.448400020599365,-4.195399761199951,-4.257499694824219
1702213631620836900,29.0228369140625,1.9401999711990356,-2.7897000312805176,-13.614699363708496
1702213631680836900,29.0828369140625,-0.847599983215332,-2.5715999603271484,-5.911099910736084
1702213631740836900,29.1428369140625,-0.4490000009536743,-5.06689977645874,-4.354799747467041
1702213631800836900,29.2028369140625,2.7530999183654785,-2.3262999057769775,-2.0627999305725098
1702213631860836900,29.2628369140625,0.45249998569488525,-1.8387999534606934,0.598800003528595
1702213631920836900,29.3228369140625,-0.5566999912261963,-2.129499912261963,3.222599983215332
1702213631980836900,29.3828369140625,0.2175999879837036,-2.5463998317718506,3.792099952697754
1702213632040836900,29.4428369140625,0.9422000050544739,-2.411799907684326,4.636300086975098
1702213632100836900,29.5028369140625,0.11979999393224716,-2.486599922180176,5.015899658203125
1702213632160836900,29.5628369140625,-2.5085999965667725,-2.8817999362945557,6.097300052642822
1702213632220836900,29.6228369140625,-1.1668000221252441,-3.6001999378204346,8.856499671936035
1702213632280836900,29.6828369140625,-2.5680999755859375,-2.5247998237609863,4.833699703216553
1702213632340836900,29.7428369140625,-2.293099880218506,-3.2388999462127686,6.501699924468994
1702213632400836900,29.8028369140625,1.2817000150680542,-3.588599920272827,3.5117998123168945
1702213632460836900,29.8628369140625,3.6100997924804688,-3.086199998855591,2.7934999465942383
1702213632520836900,29.9228369140625,2.5256998538970947,-3.653899908065796,-1.6047999858856201
1702213632580836900,29.9828369140625,0.4745999872684479,-2.5871999263763428,-6.862299919128418
1702213632640836900,30.0428369140625,1.5880999565124512,-0.3507999777793884,-6.490799903869629
1702213632700836900,30.1028369140625,2.0371999740600586,-3.0413999557495117,-7.551499843597412
1702213632760836900,30.1628369140625,3.5170998573303223,-5.707599639892578,-12.913299560546875
1702213632820836900,30.2228369140625,4.188199996948242,-1.0003999471664429,-7.505499839782715
1702213632880836900,30.2828369140625,0.29179999232292175,-4.565799713134766,-4.809599876403809
1702213632940836900,30.3428369140625,-1.145799994468689,-5.974799633026123,-4.2932000160217285
1702213633000836900,30.4028369140625,1.5413999557495117,-4.033100128173828,-0.5722999572753906
1702213633060836900,30.4628369140625,1.5561000108718872,-3.0038998126983643,2.581899881362915
1702213633120836900,30.5228369140625,-0.1907999962568283,-2.337399959564209,3.8177998065948486
1702213633180836900,30.5828369140625,0.8300999999046326,-1.3695999383926392,7.393899917602539
1702213633240836900,30.6428369140625,0.5945999622344971,-3.1009998321533203,7.255399703979492
1702213633300836900,30.7028369140625,2.073899984359741,-6.368599891662598,9.916899681091309
1702213633360836900,30.7628369140625,0.2352999895811081,-5.875199794769287,6.445199966430664
1702213633420836900,30.8228369140625,-1.2702000141143799,-3.2726998329162598,5.204699993133545
1702213633480836900,30.8828369140625,-1.8992999792099,0.439300000667572,4.797399997711182
1702213633540836900,30.9428369140625,-1.1013000011444092,0.601099967956543,2.691999912261963
1702213633600865000,31.002864990234375,1.1601999998092651,-1.3385999202728271,-0.6650999784469604
1702213633660836900,31.0628369140625,1.9467999935150146,-2.7841999530792236,-5.160299777984619
1702213633720836900,31.1228369140625,2.1614999771118164,-3.9193999767303467,-7.872900009155273
1702213633780836900,31.1828369140625,1.163699984550476,-4.076200008392334,-5.689599990844727
1702213633840836900,31.2428369140625,1.4738999605178833,-2.1259000301361084,-5.064899921417236
1702213633900836900,31.3028369140625,2.069200038909912,-0.4039999842643738,-4.657700061798096
1702213633960836900,31.3628369140625,0.1468999981880188,-0.45559999346733093,-6.011199951171875
1702213634020836900,31.4228369140625,-2.371299982070923,-1.138700008392334,-3.157399892807007
1702213634080836900,31.4828369140625,-0.15459999442100525,-1.7771999835968018,-0.8047999739646912
1702213634140836900,31.5428369140625,1.7055999040603638,-1.681399941444397,1.6892999410629272
1702213634200836900,31.6028369140625,1.8300999402999878,-1.754699945449829,3.2540998458862305
1702213634260836900,31.6628369140625,1.383099913597107,-1.410099983215332,3.866999864578247
1702213634320838400,31.72283837890625,1.2318999767303467,-0.6904000043869019,4.242799758911133
1702213634380836900,31.7828369140625,0.5654000043869019,-1.6894999742507935,4.617599964141846
1702213634440836900,31.8428369140625,-0.051500000059604645,-3.4856998920440674,4.038399696350098
1702213634500836900,31.9028369140625,-2.152899980545044,-2.1389999389648438,2.188699960708618
1702213634560836900,31.9628369140625,-1.601699948310852,-2.064300060272217,1.9304999113082886
1702213634620836900,32.0228369140625,-1.375100016593933,-1.1842999458312988,0.6710000038146973
1702213634680836900,32.0828369140625,-0.19189999997615814,-0.09149999916553497,-0.5555999875068665
1702213634740836900,32.1428369140625,-0.31450000405311584,0.832099974155426,-1.1794999837875366
1702213634800836900,32.2028369140625,0.9180999994277954,0.6563999652862549,-1.73989999294281
1702213634860836900,32.2628369140625,0.5324000120162964,1.1272000074386597,-2.6419999599456787
1702213634920836900,32.3228369140625,-0.7353999614715576,0.5730000138282776,-4.179699897766113
1702213634980836900,32.3828369140625,-1.8643999099731445,-1.4983999729156494,-5.54010009765625
1702213635040836900,32.4428369140625,-1.8842999935150146,-2.0244998931884766,-5.285799980163574
1702213635100836900,32.5028369140625,-0.30809998512268066,-1.9184999465942383,-3.293099880218506
1702213635160836900,32.5628369140625,0.5135999917984009,-0.17329999804496765,-2.3329999446868896
1702213635220836900,32.6228369140625,-0.5719000101089478,-0.8746999502182007,-0.8697999715805054
1702213635280836900,32.6828369140625,0.45479997992515564,-1.5976999998092651,-0.21449999511241913
1702213635340836900,32.7428369140625,2.7983999252319336,-0.6983000040054321,0.375
1702213635400836900,32.8028369140625,3.6148998737335205,-1.263700008392334,1.4076999425888062
1702213635460836900,32.8628369140625,2.8382999897003174,-1.5145999193191528,1.9290999174118042
1702213635520836900,32.9228369140625,1.6234999895095825,-1.1787999868392944,2.620299816131592
1702213635580836900,32.9828369140625,0.37439998984336853,-1.3955999612808228,2.659600019454956
1702213635640836900,33.0428369140625,-0.31379997730255127,-0.3188000023365021,3.4427998065948486
1702213635700865000,33.10286499023437,-0.2662999927997589,-2.352599859237671,5.6001996994018555
1702213635760836900,33.1628369140625,2.0710999965667725,-4.008999824523926,4.746399879455566
1702213635820836900,33.2228369140625,-0.8335999846458435,-3.6445999145507812,0.1996999979019165
1702213635880836900,33.2828369140625,-1.26829993724823,-0.7888000011444092,0.45639997720718384
1702213635940836900,33.3428369140625,0.6240999698638916,2.1153998374938965,0.7325999736785889
1702213636000836900,33.4028369140625,2.2368998527526855,2.099799871444702,0.40639999508857727
1702213636060836900,33.4628369140625,1.7508000135421753,0.09629999846220016,-1.1552000045776367
1702213636120836900,33.5228369140625,0.46719998121261597,-1.483199954032898,-4.275599956512451
1702213636180836900,33.5828369140625,-0.515500009059906,-0.2563000023365021,-7.099599838256836
1702213636240836900,33.6428369140625,-3.791099786758423,-1.2936999797821045,-8.64330005645752
1702213636300836900,33.7028369140625,-3.268699884414673,-2.2647998332977295,-7.294600009918213
1702213636360836900,33.7628369140625,0.430899977684021,-4.2216997146606445,-6.1016998291015625
1702213636420836900,33.8228369140625,0.18279999494552612,-5.107500076293945,-6.424799919128418
1702213636480836900,33.8828369140625,1.194700002670288,-5.586799621582031,-0.28679999709129333
1702213636540836900,33.9428369140625,2.197399854660034,-3.8630998134613037,2.974900007247925
1702213636600836900,34.0028369140625,2.686300039291382,-2.033400058746338,6.278299808502197
1702213636660836900,34.0628369140625,0.369299978017807,-0.875,6.430799961090088
1702213636720836900,34.1228369140625,0.049799997359514236,-1.4775999784469604,5.563600063323975
1702213636780836900,34.1828369140625,-0.7746999859809875,-1.8249999284744263,4.391299724578857
1702213636840836900,34.2428369140625,-2.6029999256134033,-3.5035998821258545,-0.2962999939918518
1702213636900836900,34.3028369140625,-3.271399974822998,-2.989300012588501,-0.32099997997283936
1702213636960836900,34.3628369140625,-0.2336999922990799,-1.7740999460220337,-2.0295000076293945
1702213637020836900,34.4228369140625,-0.3005000054836273,-0.5641999840736389,-4.164700031280518
1702213637080836900,34.4828369140625,-1.4785999059677124,1.6390999555587769,-2.353099822998047
1702213637140836900,34.5428369140625,2.0785000324249268,0.8693000078201294,-1.7145999670028687
1702213637200836900,34.6028369140625,3.5439000129699707,0.531499981880188,1.899399995803833
1702213637260836900,34.6628369140625,4.239200115203857,-0.2013999968767166,2.481299877166748
1702213637320836900,34.7228369140625,2.2860000133514404,-1.496399998664856,0.8351999521255493
1702213637380836900,34.7828369140625,3.27239990234375,-3.7425999641418457,1.2619999647140503
1702213637440836900,34.8428369140625,2.0462000370025635,-5.918399810791016,-0.11710000038146973
1702213637500836900,34.9028369140625,-7.1057000160217285,-3.799499988555908,1.9702999591827393
1702213637560836900,34.9628369140625,-6.173099994659424,-1.048699975013733,7.036099910736084
1702213637620836900,35.0228369140625,1.1608999967575073,-0.9569999575614929,-3.250699996948242
1702213637680836900,35.0828369140625,2.6064000129699707,0.49559998512268066,0.8014999628067017
1702213637740836900,35.1428369140625,-0.3463999927043915,0.5737999677658081,4.432600021362305
1702213637800865000,35.202864990234374,-1.1962999105453491,0.13099999725818634,1.521899938583374
1702213637860836900,35.2628369140625,-1.0893999338150024,0.3634999990463257,1.2178999185562134
1702213637920836900,35.3228369140625,-2.7795000076293945,0.31849998235702515,-0.06749999523162842
1702213637980836900,35.3828369140625,-2.4017999172210693,-0.2505999803543091,-0.1022999957203865
1702213638040836900,35.4428369140625,-0.05989999696612358,-0.9264999628067017,-5.012899875640869
1702213638100836900,35.5028369140625,0.8980000019073486,-1.6840999126434326,-2.4512999057769775
1702213638160836900,35.5628369140625,1.6166999340057373,-0.9623000025749207,0.1340000033378601
1702213638220836900,35.6228369140625,-0.2565000057220459,-1.0982999801635742,-0.3579999804496765
1702213638280836900,35.6828369140625,1.3909000158309937,-0.2175000011920929,2.3264000415802
1702213638340836900,35.7428369140625,1.0698999166488647,-0.15600000321865082,2.5909998416900635
1702213638400836900,35.8028369140625,-1.7350999116897583,-1.9418998956680298,2.1166999340057373
1702213638460836900,35.8628369140625,-3.322499990463257,-2.754499912261963,1.3033000230789185
1702213638520836900,35.9228369140625,-6.562900066375732,-1.6383999586105347,4.93209981918335
1702213638580836900,35.9828369140625,-5.234600067138672,-1.8219999074935913,5.508999824523926
1702213638640836900,36.0428369140625,1.2020000219345093,-4.294699668884277,2.8142998218536377
1702213638700836900,36.1028369140625,3.0212998390197754,-3.8641998767852783,-1.061900019645691
1702213638760836900,36.1628369140625,3.8280999660491943,-0.8610000014305115,2.6552999019622803
1702213638820836900,36.2228369140625,4.732100009918213,-2.5214998722076416,5.141499996185303
1702213638880836900,36.2828369140625,4.080100059509277,-8.66819953918457,2.790599822998047
1702213638940836900,36.3428369140625,0.7425000071525574,-11.122300148010254,-6.510599613189697
1702213639000836900,36.4028369140625,-1.3464999198913574,-4.601799964904785,-12.000299453735352
1702213639060836900,36.4628369140625,-2.9467999935150146,1.162500023841858,0.44679999351501465
1702213639120836900,36.5228369140625,-1.9042999744415283,0.6158999800682068,0.44179999828338623
1702213639180836900,36.5828369140625,-0.9241999983787537,-2.79830002784729,0.02449999935925007
1702213639240836900,36.6428369140625,-0.2969000041484833,-4.617700099945068,-1.2421000003814697
1702213639300836900,36.7028369140625,0.24169999361038208,-2.3977999687194824,-2.6821999549865723
1702213639360836900,36.7628369140625,-1.3574999570846558,0.7293999791145325,-0.6025999784469604
1702213639420836900,36.8228369140625,-1.0203999280929565,2.554999828338623,0.8769999742507935
1702213639480836900,36.8828369140625,0.5274999737739563,3.2602999210357666,0.6446999907493591
1702213639540836900,36.9428369140625,0.6359999775886536,1.385200023651123,0.4131999909877777
1702213639600836900,37.0028369140625,0.23169998824596405,0.6312999725341797,-0.4262000024318695
1702213639660836900,37.0628369140625,-0.5662999749183655,0.36550000309944153,-0.36820000410079956
1702213639720836900,37.1228369140625,-0.626800000667572,-0.48579999804496765,-0.666700005531311
1702213639780836900,37.1828369140625,-1.7074999809265137,-1.0328999757766724,-1.642899990081787
1702213639840836900,37.2428369140625,-1.9303998947143555,-0.8150999546051025,-2.2035000324249268
1702213639900865000,37.302864990234376,-3.646399974822998,0.6298999786376953,-2.533900022506714
1702213639960836900,37.3628369140625,-4.40779972076416,-1.9336999654769897,-3.4958999156951904
1702213640020836900,37.4228369140625,-1.1246999502182007,-2.0876998901367188,-4.9054999351501465
1702213640080836900,37.4828369140625,1.411199927330017,-0.49639999866485596,-2.544299840927124
1702213640140836900,37.5428369140625,2.7281999588012695,-0.49390000104904175,0.7849000096321106
1702213640200836900,37.6028369140625,3.056999921798706,-0.6938999891281128,2.150899887084961
1702213640260836900,37.6628369140625,4.122600078582764,-0.2970999777317047,2.2849998474121094
1702213640320838400,37.72283837890625,2.176300048828125,-2.172299861907959,3.159299850463867
1702213640380836900,37.7828369140625,-0.1599999964237213,-3.19569993019104,2.8345999717712402
1702213640440836900,37.8428369140625,1.0099999904632568,-4.281799793243408,4.366600036621094
1702213640500836900,37.9028369140625,-0.025200000032782555,-2.156100034713745,1.4876999855041504
1702213640560836900,37.9628369140625,0.48169997334480286,-0.6520000100135803,2.0416998863220215
1702213640620836900,38.0228369140625,1.7325999736785889,0.7361999750137329,1.3528999090194702
1702213640680836900,38.0828369140625,2.141700029373169,0.5462999939918518,-0.06949999928474426
1702213640740836900,38.1428369140625,1.3708999156951904,0.03610000014305115,-1.5812000036239624
1702213640800836900,38.2028369140625,0.19529999792575836,0.3245999813079834,-2.714399814605713
1702213640860836900,38.2628369140625,-2.9140000343322754,0.1832999885082245,-3.3342998027801514
1702213640920836900,38.3228369140625,-5.088299751281738,-0.5184999704360962,-4.682399749755859
1702213640980836900,38.3828369140625,-3.2437000274658203,-2.534899950027466,-5.514100074768066
1702213641040836900,38.4428369140625,-3.3160998821258545,-2.363800048828125,-4.8196001052856445
1702213641100836900,38.5028369140625,-3.0271999835968018,-2.4484000205993652,-4.603099822998047
1702213641160836900,38.5628369140625,-0.9362999796867371,-2.72189998626709,-4.107100009918213
1702213641220836900,38.6228369140625,1.351199984550476,-0.789900004863739,-3.1679999828338623
1702213641280836900,38.6828369140625,2.728600025177002,-0.9751999974250793,-0.21769998967647552
1702213641340836900,38.7428369140625,3.7448999881744385,-2.072200059890747,2.000999927520752
1702213641400836900,38.8028369140625,3.258699893951416,-2.6248998641967773,2.244999885559082
1702213641460836900,38.8628369140625,2.3244998455047607,-3.486299991607666,3.779599905014038
1702213641520836900,38.9228369140625,3.9106998443603516,-3.4563000202178955,5.036599636077881
1702213641580836900,38.9828369140625,4.390899658203125,-3.0200998783111572,5.989199638366699
1702213641640836900,39.0428369140625,2.62749981880188,-3.918599843978882,3.4524998664855957
1702213641700836900,39.1028369140625,2.9883999824523926,-3.7995998859405518,2.5441999435424805
1702213641760836900,39.1628369140625,2.7899999618530273,-1.9800999164581299,1.1318999528884888
1702213641820836900,39.2228369140625,1.3456000089645386,-0.6466000080108643,-0.09549999982118607
1702213641880836900,39.2828369140625,1.493499994277954,-1.5439999103546143,-1.5710999965667725
1702213641940836900,39.3428369140625,-0.45260000228881836,-1.5131999254226685,-3.8870999813079834
1702213642000865000,39.40286499023438,-0.3472999930381775,-1.45579993724823,-4.781399726867676
1702213642060836900,39.4628369140625,-2.5760998725891113,-2.498699903488159,-7.802599906921387
1702213642120836900,39.5228369140625,-5.028500080108643,-0.48499998450279236,-8.86870002746582
1702213642180836900,39.5828369140625,-4.91949987411499,0.059699997305870056,-7.544299602508545
1702213642240836900,39.6428369140625,-5.417900085449219,-2.0932998657226562,-8.085599899291992
1702213642300836900,39.7028369140625,-4.710000038146973,-7.017499923706055,-6.030999660491943
1702213642360836900,39.7628369140625,-0.8429999947547913,-5.844899654388428,-4.357999801635742
1702213642420836900,39.8228369140625,2.2779998779296875,-4.430500030517578,-0.14710000157356262
1702213642480836900,39.8828369140625,3.7472000122070312,-5.110199928283691,2.8731000423431396
1702213642540836900,39.9428369140625,4.834399700164795,-4.363199710845947,3.9915997982025146
1702213642600836900,40.0028369140625,5.24869966506958,-3.910799980163574,5.02810001373291
1702213642660836900,40.0628369140625,5.107699871063232,-4.273699760437012,7.903299808502197
1702213642720836900,40.1228369140625,3.089900016784668,-4.324999809265137,10.285699844360352
1702213642780836900,40.1828369140625,3.100399971008301,-7.225399971008301,7.357999801635742
1702213642840836900,40.2428369140625,0.32359999418258667,-7.877399921417236,3.761399984359741
1702213642900836900,40.3028369140625,2.186800003051758,-5.824999809265137,1.812399983406067
1702213642960836900,40.3628369140625,3.176100015640259,-4.417500019073486,0.30230000615119934
1702213643020836900,40.4228369140625,0.7682999968528748,-4.932199954986572,-4.099699974060059
1702213643080836900,40.4828369140625,-0.6236000061035156,-5.090699672698975,-9.650199890136719
1702213643140836900,40.5428369140625,0.4740999937057495,-1.2138999700546265,-8.550399780273438
1702213643200836900,40.6028369140625,-2.531100034713745,0.11840000003576279,-7.05049991607666
1702213643260836900,40.6628369140625,-4.661999702453613,-3.0625998973846436,-10.849100112915039
1702213643320836900,40.7228369140625,-5.253900051116943,-1.934999942779541,-10.142899513244629
1702213643380836900,40.7828369140625,-3.311499834060669,-1.87309992313385,-5.061100006103516
1702213643440836900,40.8428369140625,-4.100500106811523,-5.476500034332275,-4.674699783325195
1702213643500836900,40.9028369140625,-2.5790998935699463,-7.267599582672119,-4.832499980926514
1702213643560836900,40.9628369140625,1.2143999338150024,-5.920499801635742,-1.4970999956130981
1702213643620836900,41.0228369140625,4.028299808502197,-5.648699760437012,1.406599998474121
1702213643680836900,41.0828369140625,5.7266998291015625,-4.768599987030029,3.4880998134613037
1702213643740836900,41.1428369140625,6.82859992980957,-3.348099946975708,4.184799671173096
1702213643800836900,41.2028369140625,5.625199794769287,-4.2444000244140625,5.670300006866455
1702213643860836900,41.2628369140625,5.067299842834473,-3.4819998741149902,8.149999618530273
1702213643920836900,41.3228369140625,3.257699966430664,-5.136399745941162,8.374499320983887
1702213643980836900,41.3828369140625,2.507200002670288,-6.039700031280518,4.304599761962891
1702213644040836900,41.4428369140625,1.8319998979568481,-5.906499862670898,3.4584999084472656
1702213644100865000,41.50286499023437,2.541800022125244,-6.024799823760986,1.6891999244689941
1702213644160836900,41.5628369140625,0.7116999626159668,-6.24839973449707,-2.982100009918213
1702213644220836900,41.6228369140625,-2.8970999717712402,-5.052599906921387,-8.130399703979492
1702213644280836900,41.6828369140625,-2.976799964904785,-1.3033000230789185,-7.638000011444092
1702213644340836900,41.7428369140625,-2.0973000526428223,-1.0947999954223633,-6.88599967956543
1702213644400836900,41.8028369140625,-6.223499774932861,-0.3075999915599823,-9.151100158691406
1702213644460836900,41.8628369140625,-5.837699890136719,-2.037899971008301,-7.912599563598633
1702213644520836900,41.9228369140625,-3.3705999851226807,-2.1150999069213867,-6.7154998779296875
1702213644580836900,41.9828369140625,-4.538099765777588,-6.586899757385254,-4.083399772644043
1702213644640836900,42.0428369140625,-2.930500030517578,-7.015899658203125,-3.8222999572753906
1702213644700836900,42.1028369140625,0.8346999883651733,-4.862499713897705,-1.486899971961975
1702213644760836900,42.1628369140625,3.1384999752044678,-5.017299652099609,2.2804999351501465
1702213644820836900,42.2228369140625,4.715199947357178,-3.9557998180389404,4.7444000244140625
1702213644880836900,42.2828369140625,5.0590996742248535,-2.580199956893921,4.457900047302246
1702213644940836900,42.3428369140625,5.806299686431885,-2.843400001525879,6.938299655914307
1702213645000836900,42.4028369140625,5.508500099182129,-5.04040002822876,8.27299976348877
1702213645060836900,42.4628369140625,3.097899913787842,-7.6026997566223145,7.256899833679199
1702213645120836900,42.5228369140625,1.5651999711990356,-7.082599639892578,4.006400108337402
1702213645180836900,42.5828369140625,1.4650999307632446,-6.080599784851074,2.4981000423431396
1702213645240836900,42.6428369140625,1.7187999486923218,-4.9066996574401855,0.5030999779701233
1702213645300836900,42.7028369140625,-2.1308000087738037,-2.462599992752075,-3.97189998626709
1702213645360836900,42.7628369140625,-2.473599910736084,-2.4556000232696533,-6.263700008392334
1702213645420836900,42.8228369140625,0.2021999955177307,-0.5899999737739563,-5.107399940490723
1702213645480836900,42.8828369140625,-0.4307999908924103,1.774899959564209,-6.340999603271484
1702213645540836900,42.9428369140625,-0.827299952507019,-0.7407000064849854,-9.612699508666992
1702213645600836900,43.0028369140625,-1.0578999519348145,-2.140699863433838,-11.394700050354004
1702213645660836900,43.0628369140625,-1.2440999746322632,-1.0750999450683594,-6.913399696350098
1702213645720836900,43.1228369140625,-1.0074999332427979,-3.330199956893921,-4.249199867248535
1702213645780836900,43.1828369140625,-1.9661999940872192,-6.6103997230529785,-3.0571999549865723
1702213645840836900,43.2428369140625,-0.7533999681472778,-4.640500068664551,-2.1138999462127686
1702213645900836900,43.3028369140625,1.9687999486923218,-3.1658999919891357,0.3066999912261963
1702213645960836900,43.3628369140625,3.8683998584747314,-2.9941999912261963,2.842599868774414
1702213646020836900,43.4228369140625,4.9477996826171875,-2.2746999263763428,4.35159969329834
1702213646080836900,43.4828369140625,4.935199737548828,-1.6797999143600464,5.020999908447266
1702213646140836900,43.5428369140625,4.682399749755859,-2.9214999675750732,6.351999759674072
1702213646200865000,43.60286499023437,3.864499807357788,-4.707499980926514,5.926699638366699
1702213646260836900,43.6628369140625,2.323199987411499,-5.0671000480651855,4.733299732208252
1702213646320836900,43.7228369140625,0.1371999979019165,-5.677700042724609,2.956399917602539
1702213646380836900,43.7828369140625,1.8300999402999878,-5.462100028991699,1.7160999774932861
1702213646440836900,43.8428369140625,1.961899995803833,-3.211099863052368,-1.1409999132156372
1702213646500836900,43.9028369140625,-1.3381999731063843,-2.0023000240325928,-4.363800048828125
1702213646560836900,43.9628369140625,-2.6248998641967773,-1.317099928855896,-6.3242998123168945
1702213646620836900,44.0228369140625,-1.927799940109253,0.2750999927520752,-7.076999664306641
1702213646680836900,44.0828369140625,-1.9520999193191528,-0.5191999673843384,-7.636099815368652
1702213646740836900,44.1428369140625,-3.782099962234497,-1.7595999240875244,-11.554399490356445
1702213646800836900,44.2028369140625,-3.9836997985839844,-2.282899856567383,-6.134599685668945
1702213646860836900,44.2628369140625,-2.4075000286102295,-2.175999879837036,-7.485599994659424
1702213646920836900,44.3228369140625,-3.138700008392334,-5.024199962615967,-3.6838998794555664
1702213646980836900,44.3828369140625,-1.4407999515533447,-5.089399814605713,-2.1751999855041504
1702213647040836900,44.4428369140625,0.8197999596595764,-3.0237998962402344,-1.3680999279022217
1702213647100836900,44.5028369140625,2.7146999835968018,-3.0451998710632324,0.828499972820282
1702213647160836900,44.5628369140625,4.57450008392334,-3.436199903488159,2.8145999908447266
1702213647220836900,44.6228369140625,5.397599697113037,-3.863999843597412,3.542799949645996
1702213647280836900,44.6828369140625,5.5289998054504395,-4.74459981918335,4.183799743652344
1702213647340836900,44.7428369140625,4.514499664306641,-3.172499895095825,7.9096999168396
1702213647400836900,44.8028369140625,3.406899929046631,-5.333499908447266,7.236299991607666
1702213647460836900,44.8628369140625,1.7182999849319458,-6.7129998207092285,5.153299808502197
1702213647520836900,44.9228369140625,1.8298999071121216,-5.857199668884277,2.577399969100952
1702213647580836900,44.9828369140625,0.4389999806880951,-3.2563998699188232,-0.09200000017881393
1702213647640836900,45.0428369140625,-2.319200038909912,-1.4905999898910522,-3.2117998600006104
1702213647700836900,45.1028369140625,-3.0478999614715576,-0.9279999732971191,-6.638199806213379
1702213647760836900,45.1628369140625,-0.6056999564170837,-0.7157999873161316,-6.493899822235107
1702213647820836900,45.2228369140625,0.47419998049736023,0.001500000013038516,-8.029500007629395
1702213647880836900,45.2828369140625,-0.8229999542236328,-1.6687999963760376,-11.266399383544922
1702213647940836900,45.3428369140625,-2.038800001144409,-2.581699848175049,-10.44469928741455
1702213648000836900,45.4028369140625,-0.7633999586105347,-1.7752999067306519,-5.872799873352051
1702213648060836900,45.4628369140625,-1.7357999086380005,-4.92579984664917,-3.046299934387207
1702213648120836900,45.5228369140625,-1.215399980545044,-3.9447999000549316,-1.4819999933242798
1702213648180836900,45.5828369140625,1.0458999872207642,-3.134199857711792,0.536300003528595
1702213648240836900,45.6428369140625,2.741999864578247,-3.2107999324798584,2.651599884033203
1702213648300863500,45.702863525390626,3.584199905395508,-3.0637998580932617,4.576600074768066
1702213648360836900,45.7628369140625,3.775099992752075,-2.680299997329712,6.1678996086120605
1702213648420836900,45.8228369140625,4.243499755859375,-2.597599983215332,7.51039981842041
1702213648480836900,45.8828369140625,2.350399971008301,-5.026000022888184,8.433799743652344
1702213648540836900,45.9428369140625,0.021199999377131462,-6.480799674987793,6.383499622344971
1702213648600836900,46.0028369140625,-0.9925999641418457,-6.9878997802734375,3.486599922180176
1702213648660836900,46.0628369140625,1.2996000051498413,-4.984899997711182,2.0576000213623047
1702213648720836900,46.1228369140625,0.17339999973773956,-1.70989990234375,-0.0551999993622303
1702213648780836900,46.1828369140625,-0.9053999781608582,-0.9721999764442444,-3.1312999725341797
1702213648840836900,46.2428369140625,-1.57069993019104,-1.0602999925613403,-5.736499786376953
1702213648900836900,46.3028369140625,-0.11979999393224716,-0.7149999737739563,-6.91540002822876
1702213648960836900,46.3628369140625,-1.38319993019104,-1.3695999383926392,-9.332900047302246
1702213649020836900,46.4228369140625,-1.0135999917984009,-2.4545998573303223,-10.828999519348145
1702213649080836900,46.4828369140625,-1.6019999980926514,-2.1705000400543213,-10.284799575805664
1702213649140836900,46.5428369140625,-0.9614999890327454,-1.7978999614715576,-4.823699951171875
1702213649200836900,46.6028369140625,-1.496500015258789,-4.43589973449707,-3.0237998962402344
1702213649260836900,46.6628369140625,-0.7386999726295471,-3.4265999794006348,-2.190500020980835
1702213649320836900,46.7228369140625,1.2243999242782593,-2.8376998901367188,0.0885000005364418
1702213649380836900,46.7828369140625,2.7898998260498047,-3.4403998851776123,2.557299852371216
1702213649440836900,46.8428369140625,3.8603999614715576,-3.498199939727783,4.1296000480651855
1702213649500836900,46.9028369140625,4.88599967956543,-3.859499931335449,5.856100082397461
1702213649560836900,46.9628369140625,5.001499652862549,-3.407399892807007,6.092899799346924
1702213649620836900,47.0228369140625,3.2010998725891113,-4.623199939727783,8.113499641418457
1702213649680836900,47.0828369140625,0.08229999989271164,-6.688199996948242,5.758199691772461
1702213649740836900,47.1428369140625,0.5388000011444092,-5.77079963684082,3.010200023651123
1702213649800836900,47.2028369140625,1.8579999208450317,-2.6514999866485596,2.104099988937378
1702213649860836900,47.2628369140625,1.1252999305725098,-1.1705999374389648,0.5620999932289124
1702213649920836900,47.3228369140625,-0.12680000066757202,-1.3120999336242676,-2.0566999912261963
1702213649980836900,47.3828369140625,-1.5348999500274658,-1.7793999910354614,-7.080499649047852
1702213650040836900,47.4428369140625,-2.3952999114990234,-1.9407999515533447,-9.991299629211426
1702213650100836900,47.5028369140625,-1.8112999200820923,-0.5534999966621399,-9.484000205993652
1702213650160836900,47.5628369140625,-0.840499997138977,1.0800999402999878,-7.455399990081787
1702213650220836900,47.6228369140625,-2.5137999057769775,-0.7167999744415283,-8.064299583435059
1702213650280836900,47.6828369140625,-5.646199703216553,-5.5706000328063965,-8.692500114440918
1702213650340836900,47.7428369140625,-2.966099977493286,-6.108599662780762,-4.181999683380127
1702213650400863500,47.80286352539063,1.5726999044418335,-4.463699817657471,-0.7475999593734741
1702213650460836900,47.8628369140625,3.2602999210357666,-3.970399856567383,2.0253000259399414
1702213650520836900,47.9228369140625,3.962599992752075,-4.106599807739258,3.9898998737335205
1702213650580836900,47.9828369140625,3.907099962234497,-3.81499981880188,5.236499786376953
1702213650640836900,48.0428369140625,4.281599998474121,-3.878700017929077,6.914999961853027
1702213650700836900,48.1028369140625,3.932999849319458,-3.4914000034332275,8.698399543762207
1702213650760836900,48.1628369140625,1.6517999172210693,-4.923799991607666,7.953099727630615
1702213650820836900,48.2228369140625,1.7486999034881592,-7.784099578857422,5.720900058746338
1702213650880836900,48.2828369140625,2.429800033569336,-6.440299987792969,3.1538000106811523
1702213650940836900,48.3428369140625,2.297499895095825,-3.6384999752044678,1.3574999570846558
1702213651000836900,48.4028369140625,-0.15219999849796295,-2.9213998317718506,-1.6657999753952026
1702213651060836900,48.4628369140625,-2.098299980163574,-4.275199890136719,-6.78849983215332
1702213651120836900,48.5228369140625,-1.5973999500274658,-2.854300022125244,-8.881699562072754
1702213651180836900,48.5828369140625,-0.39819997549057007,-0.9899999499320984,-9.078299522399902
1702213651240836900,48.6428369140625,-2.384699821472168,-1.413100004196167,-11.79539966583252
1702213651300836900,48.7028369140625,-3.534299850463867,-0.7652999758720398,-10.771499633789062
1702213651360836900,48.7628369140625,-3.366999864578247,-3.0023999214172363,-7.438499927520752
1702213651420836900,48.8228369140625,-3.0075998306274414,-7.098199844360352,-6.240900039672852
1702213651480836900,48.8828369140625,-0.8876000046730042,-4.922599792480469,-2.967599868774414
1702213651540836900,48.9428369140625,1.7001999616622925,-4.360699653625488,0.05949999764561653
1702213651600836900,49.0028369140625,3.501499891281128,-4.968100070953369,2.0212998390197754
1702213651660836900,49.0628369140625,4.529399871826172,-5.2230000495910645,2.977799892425537
1702213651720836900,49.1228369140625,6.038599967956543,-4.347899913787842,5.054199695587158
1702213651780836900,49.1828369140625,7.632099628448486,-4.65749979019165,7.4096999168396
1702213651840836900,49.2428369140625,4.80049991607666,-5.279200077056885,8.331799507141113
1702213651900836900,49.3028369140625,1.8417999744415283,-4.923500061035156,7.67419958114624
1702213651960836900,49.3628369140625,1.5709999799728394,-6.961999893188477,3.8332998752593994
1702213652020836900,49.4228369140625,1.1962000131607056,-5.2947998046875,2.4495999813079834
1702213652080836900,49.4828369140625,1.299299955368042,-3.780399799346924,0.3847000002861023
1702213652140836900,49.5428369140625,-0.09709999710321426,-3.896899938583374,-3.152899980545044
1702213652200836900,49.6028369140625,-2.6728999614715576,-3.4194998741149902,-9.082399368286133
1702213652260836900,49.6628369140625,-1.9586999416351318,-1.0455999374389648,-8.574299812316895
1702213652320836900,49.7228369140625,-3.1088998317718506,-0.31209999322891235,-10.590700149536133
1702213652380836900,49.7828369140625,-2.8903000354766846,-1.7513999938964844,-12.246600151062012
1702213652440836900,49.8428369140625,-3.111599922180176,-0.9537999629974365,-10.819600105285645
1702213652500863500,49.90286352539062,-2.5604000091552734,-3.277599811553955,-7.155099868774414
1702213652560836900,49.9628369140625,-3.740799903869629,-7.427700042724609,-5.439399719238281
1702213652620836900,50.0228369140625,-0.6031999588012695,-6.824699878692627,-3.773699998855591
1702213652680836900,50.0828369140625,3.0548999309539795,-5.603099822998047,-0.26249998807907104
1702213652740836900,50.1428369140625,4.605099678039551,-5.460599899291992,2.440500020980835
1702213652800836900,50.2028369140625,4.765899658203125,-5.2032999992370605,3.5635998249053955
1702213652860836900,50.2628369140625,5.559799671173096,-4.987599849700928,6.31879997253418
1702213652920836900,50.3228369140625,6.89579963684082,-2.9021999835968018,7.738699913024902
1702213652980836900,50.3828369140625,4.267899990081787,-4.82480001449585,7.982199668884277
1702213653040836900,50.4428369140625,1.2475999593734741,-7.434399604797363,7.988799571990967
1702213653100836900,50.5028369140625,0.49469998478889465,-7.927199840545654,3.510999917984009
1702213653160836900,50.5628369140625,1.6517999172210693,-5.827899932861328,3.119999885559082
1702213653220836900,50.6228369140625,1.1244999170303345,-4.1356000900268555,0.9829999804496765
1702213653280836900,50.6828369140625,-1.5778999328613281,-3.482100009918213,-3.6473000049591064
1702213653340836900,50.7428369140625,-3.2056000232696533,-2.3675999641418457,-7.49429988861084
1702213653400836900,50.8028369140625,-2.908099889755249,-1.642899990081787,-8.085999488830566
1702213653460836900,50.8628369140625,-2.9238998889923096,-1.0584999322891235,-11.893499374389648
1702213653520836900,50.9228369140625,-2.33870005607605,-0.5543999671936035,-10.847799301147461
1702213653580836900,50.9828369140625,-3.9502999782562256,-2.1888999938964844,-11.624099731445312
1702213653640836900,51.0428369140625,-3.3757998943328857,-2.4296000003814697,-7.024499893188477
1702213653700836900,51.1028369140625,-3.2796998023986816,-6.125799655914307,-3.996799945831299
1702213653760836900,51.1628369140625,-0.9238999485969543,-6.912499904632568,-3.857499837875366
1702213653820836900,51.2228369140625,2.8274998664855957,-6.33329963684082,-0.47049999237060547
1702213653880836900,51.2828369140625,4.815799713134766,-5.933399677276611,2.375
1702213653940836900,51.3428369140625,5.235300064086914,-5.605799674987793,4.964399814605713
1702213654000836900,51.4028369140625,6.454599857330322,-4.120899677276611,8.432999610900879
1702213654060836900,51.4628369140625,5.525599956512451,-4.006099700927734,8.57409954071045
1702213654120836900,51.5228369140625,3.4921000003814697,-6.327899932861328,9.525699615478516
1702213654180836900,51.5828369140625,1.1186000108718872,-9.317599296569824,6.032299995422363
1702213654240836900,51.6428369140625,-1.2271000146865845,-7.052599906921387,2.9945998191833496
1702213654300836900,51.7028369140625,0.3814999759197235,-4.275599956512451,2.5225000381469727
1702213654360836900,51.7628369140625,0.09119999408721924,-2.710700035095215,0.7620999813079834
1702213654420836900,51.8228369140625,-1.1043000221252441,-2.993799924850464,-3.1260998249053955
1702213654480836900,51.8828369140625,-1.0526000261306763,-3.146899938583374,-7.615200042724609
1702213654540836900,51.9428369140625,-0.24039998650550842,-1.472000002861023,-8.401899337768555
1702213654600836900,52.0028369140625,-0.23079998791217804,-0.7716000080108643,-10.118399620056152
1702213654660836900,52.0628369140625,-0.6222999691963196,-4.407099723815918,-11.865099906921387
1702213654720836900,52.1228369140625,-1.534600019454956,0.10480000078678131,-10.495499610900879
1702213654780836900,52.1828369140625,-0.9803999662399292,-2.4779000282287598,-4.1240997314453125
1702213654840836900,52.2428369140625,-2.1477999687194824,-5.428099632263184,-4.30019998550415
1702213654900836900,52.3028369140625,-1.6830999851226807,-5.166299819946289,-2.8696999549865723
1702213654960836900,52.3628369140625,0.937999963760376,-4.742499828338623,-0.04639999940991402
1702213655020836900,52.4228369140625,2.948699951171875,-4.955999851226807,2.595899820327759
1702213655080836900,52.4828369140625,4.320300102233887,-4.887899875640869,4.433000087738037
1702213655140836900,52.5428369140625,6.000899791717529,-3.243000030517578,7.781999588012695
1702213655200836900,52.6028369140625,4.36959981918335,-3.656899929046631,8.91919994354248
1702213655260836900,52.6628369140625,2.1754000186920166,-5.949699878692627,9.429100036621094
1702213655320836900,52.7228369140625,0.9319999814033508,-7.294699668884277,5.684999942779541
1702213655380836900,52.7828369140625,-0.8335999846458435,-4.886399745941162,3.0167999267578125
1702213655440836900,52.8428369140625,0.9889999628067017,-3.727799892425537,3.6237998008728027
1702213655500836900,52.9028369140625,2.788100004196167,-3.9482998847961426,1.9575999975204468
1702213655560836900,52.9628369140625,1.9320999383926392,-6.089799880981445,-3.5964999198913574
1702213655620836900,53.0228369140625,0.8011999726295471,-5.02839994430542,-10.712699890136719
1702213655680836900,53.0828369140625,0.7811999917030334,-0.7117999792098999,-6.950500011444092
1702213655740836900,53.1428369140625,-1.4886999130249023,-0.16899999976158142,-10.497699737548828
1702213655800836900,53.2028369140625,-2.329900026321411,-0.8044999837875366,-14.285699844360352
1702213655860836900,53.2628369140625,-2.013700008392334,-2.2439000606536865,-11.152599334716797
1702213655920836900,53.3228369140625,-1.0576000213623047,-2.603600025177002,-7.335700035095215
1702213655980836900,53.3828369140625,-1.9600999355316162,-7.149799823760986,-5.0366997718811035
1702213656040836900,53.4428369140625,-0.8728999495506287,-7.381199836730957,-3.3090999126434326
1702213656100836900,53.5028369140625,1.7856999635696411,-6.274399757385254,-0.530299961566925
1702213656160836900,53.5628369140625,3.944000005722046,-5.621200084686279,2.009999990463257
1702213656220836900,53.6228369140625,5.1738996505737305,-5.296799659729004,3.96589994430542
1702213656280836900,53.6828369140625,5.862400054931641,-4.75029993057251,7.136600017547607
1702213656340836900,53.7428369140625,5.105400085449219,-4.457200050354004,8.226499557495117
1702213656400836900,53.8028369140625,3.949699878692627,-3.9589998722076416,9.552499771118164
1702213656460836900,53.8628369140625,2.131500005722046,-7.021899700164795,7.904599666595459
1702213656520836900,53.9228369140625,2.228800058364868,-7.744999885559082,5.093100070953369
1702213656580836900,53.9828369140625,-0.3845999836921692,-6.634699821472168,2.937999963760376
1702213656640836900,54.0428369140625,-0.9025999903678894,-4.429599761962891,-0.4300999939441681
1702213656700865000,54.10286499023437,-0.9187999963760376,-3.560299873352051,-4.32289981842041
1702213656760836900,54.1628369140625,-1.0959999561309814,-2.265699863433838,-6.0879998207092285
1702213656820836900,54.2228369140625,-0.23029999434947968,-0.3642999827861786,-6.644000053405762
1702213656880836900,54.2828369140625,-1.7407000064849854,-0.5659999847412109,-8.902400016784668
1702213656940836900,54.3428369140625,-1.7174999713897705,-1.6797999143600464,-11.191100120544434
1702213657000836900,54.4028369140625,-1.7405999898910522,-2.2709999084472656,-10.653200149536133
1702213657060836900,54.4628369140625,-2.682799816131592,-1.0081000328063965,-7.393099784851074
1702213657120836900,54.5228369140625,-3.39520001411438,-4.396699905395508,-4.304999828338623
1702213657180836900,54.5828369140625,-2.5878000259399414,-6.957799911499023,-3.9524998664855957
1702213657240836900,54.6428369140625,1.3305000066757202,-6.707599639892578,-0.7233999967575073
1702213657300836900,54.7028369140625,3.877699851989746,-5.96619987487793,2.6232998371124268
1702213657360836900,54.7628369140625,4.240799903869629,-4.865499973297119,4.930200099945068
1702213657420836900,54.8228369140625,4.272900104522705,-2.9682998657226562,6.714900016784668
1702213657480836900,54.8828369140625,4.422199726104736,-1.2226999998092651,11.278900146484375
1702213657540836900,54.9428369140625,3.1211998462677,-2.8314998149871826,9.932000160217285
1702213657600836900,55.0028369140625,-0.6347000002861023,-6.943399906158447,6.984299659729004
1702213657660836900,55.0628369140625,-1.3359999656677246,-7.581199645996094,4.298900127410889
1702213657720836900,55.1228369140625,-0.9099999666213989,-5.989899635314941,3.166599988937378
1702213657780836900,55.1828369140625,1.8680999279022217,-4.8053998947143555,2.220900058746338
1702213657840836900,55.2428369140625,2.6952998638153076,-4.528599739074707,-0.550000011920929
1702213657900836900,55.3028369140625,1.1830999851226807,-5.838500022888184,-6.1168999671936035
1702213657960836900,55.3628369140625,1.9894999265670776,-3.9987998008728027,-11.34280014038086
1702213658020836900,55.4228369140625,0.29889997839927673,-1.3402999639511108,-11.408100128173828
1702213658080836900,55.4828369140625,-2.7716000080108643,-0.19409999251365662,-12.020899772644043
1702213658140836900,55.5428369140625,-1.799799919128418,-0.17649999260902405,-9.649099349975586
1702213658200836900,55.6028369140625,-3.152400016784668,-2.353099822998047,-8.807600021362305
1702213658260836900,55.6628369140625,-4.174099922180176,-8.248299598693848,-7.721099853515625
1702213658320836900,55.7228369140625,0.13689999282360077,-7.281099796295166,-4.171299934387207
1702213658380836900,55.7828369140625,3.2256999015808105,-5.792799949645996,-0.1995999962091446
1702213658440836900,55.8428369140625,4.179500102996826,-5.857699871063232,1.8335999250411987
1702213658500836900,55.9028369140625,4.643599987030029,-5.632999897003174,2.361599922180176
1702213658560836900,55.9628369140625,5.382299900054932,-5.30620002746582,3.2057998180389404
1702213658620836900,56.0228369140625,7.2652997970581055,-3.666100025177002,5.85189962387085
1702213658680836900,56.0828369140625,5.513899803161621,-4.577699661254883,8.557099342346191
1702213658740836900,56.1428369140625,2.917799949645996,-6.237199783325195,7.0971999168396
1702213658800865000,56.202864990234374,-0.6227999925613403,-5.173999786376953,5.535999774932861
1702213658860836900,56.2628369140625,-0.4587000012397766,-3.8255999088287354,4.9502997398376465
1702213658920836900,56.3228369140625,2.6975998878479004,-3.9910998344421387,4.521299839019775
1702213658980836900,56.3828369140625,2.1763999462127686,-5.261300086975098,-0.15109999477863312
1702213659040836900,56.4428369140625,-1.0458999872207642,-5.052999973297119,-7.139199733734131
1702213659100836900,56.5028369140625,-1.5518999099731445,-2.1394999027252197,-7.605799674987793
1702213659160836900,56.5628369140625,-1.4362000226974487,-0.9072999954223633,-6.155399799346924
1702213659220836900,56.6228369140625,-1.4555000066757202,-1.7263998985290527,-9.570899963378906
1702213659280836900,56.6828369140625,-1.3335999250411987,-1.983199954032898,-10.547900199890137
1702213659340836900,56.7428369140625,-1.1863999366760254,0.22759999334812164,-8.482799530029297
1702213659400836900,56.8028369140625,-2.3522000312805176,-2.522199869155884,-5.912799835205078
1702213659460836900,56.8628369140625,-4.66349983215332,-4.947000026702881,-5.257899761199951
1702213659520836900,56.9228369140625,-0.32600000500679016,-4.498300075531006,-3.113600015640259
1702213659580836900,56.9828369140625,2.80049991607666,-3.825500011444092,0.06579999625682831
1702213659640836900,57.0428369140625,3.9046998023986816,-4.152599811553955,2.234299898147583
1702213659700836900,57.1028369140625,4.252999782562256,-3.69599986076355,2.6984000205993652
1702213659760836900,57.1628369140625,5.022500038146973,-3.4457998275756836,4.329899787902832
1702213659820836900,57.2228369140625,5.161999702453613,-3.9836997985839844,5.856400012969971
1702213659880836900,57.2828369140625,3.7831997871398926,-4.728300094604492,8.617199897766113
1702213659940836900,57.3428369140625,2.835099935531616,-7.7221999168396,6.239099979400635
1702213660000836900,57.4028369140625,0.48420000076293945,-6.067699909210205,3.512699842453003
1702213660060836900,57.4628369140625,1.2258999347686768,-3.0920000076293945,3.3894999027252197
1702213660120836900,57.5228369140625,0.9447999596595764,-1.4805999994277954,1.5995999574661255
1702213660180836900,57.5828369140625,0.02149999886751175,-2.322499990463257,-1.3871999979019165
1702213660240836900,57.6428369140625,0.7091999650001526,-4.289000034332275,-6.060100078582764
1702213660300836900,57.7028369140625,0.5699999928474426,-1.771399974822998,-8.21969985961914
1702213660360836900,57.7628369140625,-1.6881999969482422,0.3894999921321869,-6.26069974899292
1702213660420836900,57.8228369140625,-2.2969000339508057,0.8906999826431274,-9.448100090026855
1702213660480836900,57.8828369140625,-0.7675999999046326,-1.6516999006271362,-10.478599548339844
1702213660540836900,57.9428369140625,-1.6779999732971191,-3.6073999404907227,-10.653800010681152
1702213660600836900,58.0028369140625,-0.5546999573707581,-4.348999977111816,-5.838199615478516
1702213660660836900,58.0628369140625,-0.9544000029563904,-5.747200012207031,-3.3310999870300293
1702213660720836900,58.1228369140625,0.06509999930858612,-4.902299880981445,-1.1069999933242798
1702213660780836900,58.1828369140625,2.4072999954223633,-4.428599834442139,1.5606999397277832
1702213660840836900,58.2428369140625,3.9940998554229736,-4.401299953460693,3.3421998023986816
1702213660900863500,58.30286352539063,4.384799957275391,-4.025300025939941,4.478099822998047
1702213660960836900,58.3628369140625,5.341399669647217,-3.016700029373169,6.98769998550415
1702213661020836900,58.4228369140625,4.897599697113037,-3.1865999698638916,9.049599647521973
1702213661080836900,58.4828369140625,2.024899959564209,-5.524199962615967,7.974499702453613
1702213661140836900,58.5428369140625,2.343600034713745,-6.139400005340576,5.501800060272217
1702213661200836900,58.6028369140625,-1.0536999702453613,-5.882099628448486,2.3522000312805176
1702213661260836900,58.6628369140625,-1.3737000226974487,-4.222399711608887,1.319599986076355
1702213661320838400,58.72283837890625,0.27559998631477356,-3.053499937057495,-0.6191999912261963
1702213661380836900,58.7828369140625,0.3155999779701233,-2.206199884414673,-3.737299919128418
1702213661440836900,58.8428369140625,0.17669999599456787,-0.8043999671936035,-5.533299922943115
1702213661500836900,58.9028369140625,-0.4027999937534332,0.613599956035614,-6.17579984664917
1702213661560836900,58.9628369140625,-1.517899990081787,-0.7325999736785889,-8.002699851989746
1702213661620836900,59.0228369140625,-1.5439999103546143,-1.732100009918213,-11.168299674987793
1702213661680836900,59.0828369140625,-1.9656999111175537,-3.097299814224243,-7.89709997177124
1702213661740836900,59.1428369140625,-3.4457998275756836,-1.718999981880188,-7.694399833679199
1702213661800836900,59.2028369140625,-4.034999847412109,-5.324599742889404,-5.548699855804443
1702213661860836900,59.2628369140625,-2.648900032043457,-6.75469970703125,-3.6494998931884766
1702213661920836900,59.3228369140625,1.3299999237060547,-5.498300075531006,-1.2882999181747437
1702213661980836900,59.3828369140625,3.688199996948242,-4.726399898529053,1.6771999597549438
1702213662040836900,59.4428369140625,4.533799648284912,-4.478600025177002,3.6880998611450195
1702213662100836900,59.5028369140625,4.571199893951416,-4.163399696350098,4.367000102996826
1702213662160836900,59.5628369140625,5.556600093841553,-3.0124998092651367,6.907299995422363
1702213662220836900,59.6228369140625,5.821099758148193,-2.4793999195098877,9.619400024414062
1702213662280836900,59.6828369140625,2.4266998767852783,-5.295199871063232,9.487299919128418
1702213662340836900,59.7428369140625,1.3453999757766724,-8.353300094604492,5.555500030517578
1702213662400836900,59.8028369140625,0.2911999821662903,-8.165800094604492,2.4846999645233154
1702213662460836900,59.8628369140625,-0.4982999861240387,-5.11870002746582,0.23680000007152557
1702213662520836900,59.9228369140625,-0.9734999537467957,-3.05079984664917,-3.0214998722076416
1702213662580836900,59.9828369140625,-0.727899968624115,-2.273599863052368,-5.173500061035156
1702213662640836900,60.0428369140625,-1.2619999647140503,-1.420799970626831,-7.013099670410156
1702213662700836900,60.1028369140625,-2.4289000034332275,0.004900000058114529,-8.706600189208984
1702213662760836900,60.1628369140625,-3.3086998462677,-0.2825999855995178,-10.799300193786621
1702213662820836900,60.2228369140625,-2.245499849319458,-1.3624999523162842,-11.118199348449707
1702213662880836900,60.2828369140625,-1.46999990940094,-1.3736000061035156,-8.54539966583252
1702213662940836900,60.3428369140625,-1.801800012588501,-2.6110999584198,-5.534499645233154
1702213663000863500,60.40286352539062,-6.039999961853027,-8.24389934539795,-5.714900016784668
1702213663060836900,60.4628369140625,-1.7026000022888184,-8.47249984741211,-3.191200017929077
1702213663120836900,60.5228369140625,3.380999803543091,-5.9091997146606445,1.1872999668121338
1702213663180836900,60.5828369140625,4.947400093078613,-5.777100086212158,3.9758999347686768
1702213663240836900,60.6428369140625,6.475399971008301,-4.84119987487793,6.833899974822998
1702213663300836900,60.7028369140625,5.865200042724609,-3.7131998538970947,8.036099433898926
1702213663360836900,60.7628369140625,4.796000003814697,-3.5095999240875244,8.059999465942383
1702213663420836900,60.8228369140625,4.527499675750732,-4.461400032043457,7.194499969482422
1702213663480836900,60.8828369140625,-0.08060000091791153,-5.212599754333496,6.813199996948242
1702213663540836900,60.9428369140625,-1.2580000162124634,-6.951399803161621,3.9318997859954834
1702213663600836900,61.0028369140625,-1.2552999258041382,-6.843599796295166,1.5168999433517456
1702213663660836900,61.0628369140625,-0.1574999988079071,-3.111999988555908,-0.8416999578475952
1702213663720836900,61.1228369140625,-1.0906000137329102,-0.9333999752998352,-2.841599941253662
1702213663780836900,61.1828369140625,-0.011299999430775642,-1.1035000085830688,-3.874799966812134
1702213663840836900,61.2428369140625,-1.0978999137878418,-0.5254999995231628,-6.970799922943115
1702213663900836900,61.3028369140625,-1.8328999280929565,-1.480799913406372,-7.859399795532227
1702213663960836900,61.3628369140625,-1.584999918937683,-1.240299940109253,-8.080999374389648
1702213664020836900,61.4228369140625,-0.0052999998442828655,-0.5724999904632568,-5.799499988555908
1702213664080836900,61.4828369140625,-1.809999942779541,-0.45739999413490295,-6.888799667358398
1702213664140836900,61.5428369140625,-2.542799949645996,-2.0636000633239746,-7.63599967956543
1702213664200836900,61.6028369140625,-2.109499931335449,-4.615900039672852,-5.602499961853027
1702213664260836900,61.6628369140625,-0.5194999575614929,-4.598400115966797,-2.543299913406372
1702213664320836900,61.7228369140625,1.6225999593734741,-3.8018999099731445,0.2777999937534332
1702213664380836900,61.7828369140625,2.848599910736084,-3.8051998615264893,2.497299909591675
1702213664440836900,61.8428369140625,3.5246999263763428,-4.436100006103516,3.8638999462127686
1702213664500836900,61.9028369140625,4.24399995803833,-3.862499952316284,4.284800052642822
1702213664560836900,61.9628369140625,4.013499736785889,-3.5080997943878174,5.993000030517578
1702213664620836900,62.0228369140625,3.61329984664917,-2.5421998500823975,8.99329948425293
1702213664680836900,62.0828369140625,0.8984999656677246,-4.392600059509277,7.8069000244140625
1702213664740836900,62.1428369140625,1.6768999099731445,-5.043499946594238,5.286299705505371
1702213664800836900,62.2028369140625,1.6311999559402466,-5.319299697875977,3.561699867248535
1702213664860836900,62.2628369140625,0.4723999798297882,-4.761899948120117,1.073799967765808
1702213664920836900,62.3228369140625,-1.3084999322891235,-2.8994998931884766,-3.4303998947143555
1702213664980836900,62.3828369140625,-0.6341999769210815,-2.0116000175476074,-5.378799915313721
1702213665040836900,62.4428369140625,-0.36959999799728394,-0.9567999839782715,-5.032599925994873
1702213665100863500,62.50286352539062,-1.0820999145507812,0.6513999700546265,-6.8964996337890625
1702213665160836900,62.5628369140625,-1.7161999940872192,-1.1294000148773193,-9.152599334716797
1702213665220836900,62.6228369140625,-2.9427998065948486,-1.50409996509552,-10.43970012664795
1702213665280836900,62.6828369140625,-0.3472999930381775,-0.7410999536514282,-5.410599708557129
1702213665340836900,62.7428369140625,-1.8503999710083008,-1.108299970626831,-7.098599910736084
1702213665400836900,62.8028369140625,-5.029699802398682,-4.526099681854248,-5.019599914550781
1702213665460836900,62.8628369140625,-3.0247998237609863,-6.5966997146606445,-1.826799988746643
1702213665520836900,62.9228369140625,1.3437999486923218,-4.612800121307373,-0.13449999690055847
1702213665580836900,62.9828369140625,3.450500011444092,-3.428499937057495,2.2572999000549316
1702213665640836900,63.0428369140625,4.359399795532227,-3.3897998332977295,4.292099952697754
1702213665700836900,63.1028369140625,4.428100109100342,-2.7760000228881836,5.675600051879883
1702213665760836900,63.1628369140625,5.457699775695801,-3.178299903869629,9.260899543762207
1702213665820836900,63.2228369140625,3.5075998306274414,-4.050699710845947,7.142399787902832
1702213665880836900,63.2828369140625,3.561499834060669,-5.78909969329834,7.34060001373291
1702213665940836900,63.3428369140625,-0.6525999903678894,-7.275399684906006,3.4201998710632324
1702213666000836900,63.4028369140625,-0.8054999709129333,-5.9105000495910645,2.2901999950408936
1702213666060836900,63.4628369140625,0.590999960899353,-2.8069000244140625,-0.06949999928474426
1702213666120836900,63.5228369140625,-0.7773000001907349,-1.674899935722351,-2.583199977874756
1702213666180836900,63.5828369140625,-0.37369999289512634,-1.2705999612808228,-3.6791999340057373
1702213666240836900,63.6428369140625,0.8610999584197998,0.40379998087882996,-5.933799743652344
1702213666300836900,63.7028369140625,-1.0338000059127808,1.0338000059127808,-7.225299835205078
1702213666360836900,63.7628369140625,-1.3660999536514282,-1.7184998989105225,-7.571499824523926
1702213666420836900,63.8228369140625,1.531000018119812,-2.5748000144958496,-8.518699645996094
1702213666480836900,63.8828369140625,-1.1014999151229858,-1.4575999975204468,-10.555099487304688
1702213666540836900,63.9428369140625,-4.882899761199951,-5.564699649810791,-7.595399856567383
1702213666600836900,64.0028369140625,-2.975399971008301,-6.336799621582031,-4.745199680328369
1702213666660836900,64.0628369140625,0.5929999947547913,-4.14139986038208,-1.8549000024795532
1702213666720836900,64.1228369140625,2.4691998958587646,-3.5441999435424805,1.4606000185012817
1702213666780836900,64.1828369140625,3.581199884414673,-3.6977999210357666,4.003299713134766
1702213666840836900,64.2428369140625,3.636899948120117,-3.6155998706817627,4.556299686431885
1702213666900836900,64.3028369140625,4.463900089263916,-3.7517998218536377,4.728499889373779
1702213666960836900,64.3628369140625,6.4552998542785645,-2.602099895477295,7.127199649810791
1702213667020836900,64.4228369140625,3.9077999591827393,-6.245599746704102,7.77269983291626
1702213667080836900,64.4828369140625,2.6305999755859375,-7.650300025939941,6.453700065612793
1702213667140836900,64.5428369140625,-1.0029000043869019,-6.45959997177124,3.7303998470306396
1702213667200863500,64.60286352539063,0.7994999885559082,-3.5727999210357666,2.6643998622894287
1702213667260836900,64.6628369140625,1.3704999685287476,-2.574699878692627,1.000100016593933
1702213667320863500,64.72286352539062,-0.042899999767541885,-4.320899963378906,-3.228799819946289
1702213667380836900,64.7828369140625,-2.28059983253479,-3.4388999938964844,-9.704599380493164
1702213667440836900,64.8428369140625,-2.0673999786376953,0.6162999868392944,-7.97189998626709
1702213667500836900,64.9028369140625,-3.1431000232696533,0.6136999726295471,-8.719499588012695
1702213667560836900,64.9628369140625,-4.611299991607666,-0.6444999575614929,-12.87279987335205
1702213667620836900,65.0228369140625,-2.1728999614715576,-1.1029999256134033,-8.343899726867676
1702213667680836900,65.0828369140625,-3.3905999660491943,-4.338399887084961,-7.594399929046631
1702213667740836900,65.1428369140625,-5.786299705505371,-10.246500015258789,-6.52839994430542
1702213667800836900,65.2028369140625,0.08959999680519104,-7.709699630737305,-2.4875998497009277
1702213667860836900,65.2628369140625,3.8610999584198,-4.990600109100342,1.5619999170303345
1702213667920836900,65.3228369140625,4.657700061798096,-4.880300045013428,4.37339973449707
1702213667980836900,65.3828369140625,4.920199871063232,-5.275300025939941,5.32349967956543
1702213668040836900,65.4428369140625,4.832799911499023,-3.817499876022339,5.727299690246582
1702213668100836900,65.5028369140625,6.596999645233154,-2.875699996948242,9.564099311828613
1702213668160836900,65.5628369140625,5.268199920654297,-4.056399822235107,8.711099624633789
1702213668220836900,65.6228369140625,1.789599895477295,-6.588199615478516,7.310699939727783
1702213668280836900,65.6828369140625,-2.235599994659424,-8.266900062561035,5.980099678039551
1702213668340836900,65.7428369140625,-2.2446000576019287,-9.546099662780762,2.2771999835968018
1702213668400836900,65.8028369140625,-0.8597999811172485,-5.91439962387085,-1.8550999164581299
1702213668460836900,65.8628369140625,-1.0534999370574951,-2.879199981689453,-5.166899681091309
1702213668520836900,65.9228369140625,0.6195999979972839,-1.6545000076293945,-3.055299997329712
1702213668580836900,65.9828369140625,1.3924999237060547,-0.873199999332428,-5.733599662780762
1702213668640836900,66.0428369140625,1.6173999309539795,-1.1541999578475952,-9.541199684143066
1702213668700836900,66.1028369140625,-0.4050000011920929,-2.487299919128418,-14.181499481201172
1702213668760836900,66.1628369140625,-2.075000047683716,-1.9542999267578125,-9.790199279785156
1702213668820836900,66.2228369140625,-2.345599889755249,-2.9853999614715576,-8.644700050354004
1702213668880836900,66.2828369140625,-2.294800043106079,-6.487299919128418,-6.056399822235107
1702213668940836900,66.3428369140625,-0.8237999677658081,-6.713399887084961,-0.5245999693870544
1702213669000836900,66.4028369140625,0.09200000017881393,-4.757499694824219,-0.3229999840259552
1702213669060836900,66.4628369140625,2.091399908065796,-3.8758997917175293,3.057999849319458
1702213669120836900,66.5228369140625,3.971599817276001,-3.944999933242798,4.815399646759033
1702213669180836900,66.5828369140625,4.684999942779541,-3.0604000091552734,5.127199649810791
1702213669240836900,66.6428369140625,6.184299945831299,-2.9072999954223633,7.092599868774414
1702213669300863500,66.70286352539063,4.49429988861084,-4.425600051879883,6.7058000564575195
1702213669360836900,66.7628369140625,2.7451999187469482,-6.848099708557129,7.688199996948242
1702213669420836900,66.8228369140625,2.6791000366210938,-6.823699951171875,3.8483998775482178
1702213669480836900,66.8828369140625,-1.150399923324585,-6.278499603271484,1.7984999418258667
1702213669540836900,66.9428369140625,-0.3637999892234802,-4.775300025939941,-0.6315000057220459
1702213669600836900,67.0028369140625,-0.7845999598503113,-2.436699867248535,-4.292599678039551
1702213669660836900,67.0628369140625,-0.9998999834060669,-0.9874999523162842,-5.209799766540527
1702213669720836900,67.1228369140625,0.18629999458789825,0.46389999985694885,-5.138199806213379
1702213669780836900,67.1828369140625,-0.3545999825000763,1.7454999685287476,-5.576399803161621
1702213669840836900,67.2428369140625,-1.3898999691009521,-0.8786999583244324,-7.456599712371826
1702213669900836900,67.3028369140625,-2.7679998874664307,-2.804299831390381,-8.935799598693848
1702213669960836900,67.3628369140625,-1.6302999258041382,0.22789999842643738,-6.288300037384033
1702213670020836900,67.4228369140625,-2.038800001144409,-3.16759991645813,-3.689499855041504
1702213670080836900,67.4828369140625,-2.436699867248535,-5.088699817657471,-2.7259998321533203
1702213670140836900,67.5428369140625,1.0841000080108643,-4.199599742889404,-1.6452000141143799
1702213670200836900,67.6028369140625,2.7328999042510986,-2.624699831008911,0.5167999863624573
1702213670260836900,67.6628369140625,3.2764999866485596,-2.1208999156951904,2.6659998893737793
1702213670320836900,67.7228369140625,3.5824999809265137,-1.7246999740600586,4.202499866485596
1702213670380836900,67.7828369140625,3.933799982070923,-1.1490999460220337,4.712399959564209
1702213670440836900,67.8428369140625,3.0003998279571533,-1.8217999935150146,5.872499942779541
1702213670500836900,67.9028369140625,1.5787999629974365,-3.296299934387207,6.278800010681152
1702213670560836900,67.9628369140625,1.7976999282836914,-3.6395998001098633,5.862099647521973
1702213670620836900,68.0228369140625,1.055400013923645,-4.606499671936035,3.585099935531616
1702213670680836900,68.0828369140625,-0.3498999774456024,-5.983699798583984,2.898699998855591
1702213670740836900,68.1428369140625,0.8264999985694885,-3.9355998039245605,-0.062199998646974564
1702213670800836900,68.2028369140625,0.14299999177455902,-0.8930000066757202,-2.8980000019073486
1702213670860836900,68.2628369140625,-0.13210000097751617,0.002899999963119626,-3.4201998710632324
1702213670920836900,68.3228369140625,0.3473999798297882,-0.8987999558448792,-4.511499881744385
1702213670980836900,68.3828369140625,0.773099958896637,-0.2442999929189682,-6.491099834442139
1702213671040836900,68.4428369140625,-1.3350999355316162,-0.8768999576568604,-7.733999729156494
1702213671100836900,68.5028369140625,-4.545000076293945,-0.8769999742507935,-8.074699401855469
1702213671160836900,68.5628369140625,-5.438399791717529,-2.580399990081787,-5.965799808502197
1702213671220836900,68.6228369140625,-3.8743999004364014,-3.0464999675750732,-6.015699863433838
1702213671280836900,68.6828369140625,-2.089599847793579,-7.7338995933532715,-2.567699909210205
1702213671340836900,68.7428369140625,0.6908000111579895,-5.272599697113037,-2.1636998653411865
1702213671400836900,68.8028369140625,2.6052000522613525,-2.2925000190734863,1.6517999172210693
1702213671460836900,68.8628369140625,4.7600998878479,-1.9718999862670898,4.8821001052856445
1702213671520836900,68.9228369140625,4.831500053405762,-0.5817999839782715,5.214900016784668
1702213671580836900,68.9828369140625,3.6991000175476074,-0.4284999966621399,3.6223998069763184
1702213671640836900,69.0428369140625,3.6873998641967773,-2.208199977874756,3.4263999462127686
1702213671700836900,69.1028369140625,5.421099662780762,-3.475799798965454,3.357800006866455
1702213671760836900,69.1628369140625,1.3443999290466309,-7.402699947357178,4.599699974060059
1702213671820836900,69.2228369140625,3.2645998001098633,-4.315199851989746,1.81059992313385
1702213671880836900,69.2828369140625,-0.44679999351501465,-2.757499933242798,0.45969998836517334
1702213671940836900,69.3428369140625,-0.3962000012397766,-2.3864998817443848,1.3306000232696533
1702213672000836900,69.4028369140625,1.956299901008606,-1.4498000144958496,-1.420199990272522
1702213672060836900,69.4628369140625,-0.4107999801635742,-1.3330999612808228,-4.700200080871582
1702213672120836900,69.5228369140625,-3.3815999031066895,0.17239999771118164,-7.531899929046631
1702213672180836900,69.5828369140625,-4.735199928283691,1.94979989528656,-6.6967997550964355
1702213672240836900,69.6428369140625,-6.683499813079834,-0.3837999999523163,-8.193499565124512
1702213672300836900,69.7028369140625,-6.373199939727783,-0.799299955368042,-9.074299812316895
1702213672360836900,69.7628369140625,-3.1686999797821045,-2.8345999717712402,-5.770899772644043
1702213672420836900,69.8228369140625,-3.7400999069213867,-7.12939977645874,-3.6639997959136963
1702213672480836900,69.8828369140625,-1.8788999319076538,-7.353999614715576,-4.107199668884277
1702213672540836900,69.9428369140625,2.8594000339508057,-2.8176000118255615,-0.6854999661445618
1702213672600836900,70.0028369140625,4.132899761199951,-1.855799913406372,2.504999876022339
1702213672660836900,70.0628369140625,4.896999835968018,-2.5688998699188232,4.545000076293945
1702213672720836900,70.1228369140625,4.943299770355225,-2.3717000484466553,4.6321001052856445
1702213672780836900,70.1828369140625,5.608599662780762,-3.9178998470306396,4.582299709320068
1702213672840836900,70.2428369140625,4.6407999992370605,-4.088099956512451,3.462599992752075
1702213672900836900,70.3028369140625,5.36929988861084,-3.986799955368042,7.013799667358398
1702213672960836900,70.3628369140625,-1.3662999868392944,-4.506099700927734,3.728099822998047
1702213673020836900,70.4228369140625,-1.4089999198913574,-6.7093000411987305,2.339099884033203
1702213673080836900,70.4828369140625,1.6107999086380005,-3.435299873352051,-0.1988999992609024
1702213673140836900,70.5428369140625,-0.47599998116493225,-0.26170000433921814,-1.2556999921798706
1702213673200836900,70.6028369140625,-2.651099920272827,0.9991999864578247,-2.4572999477386475
1702213673260836900,70.6628369140625,-1.52839994430542,-0.8357999920845032,-5.377299785614014
1702213673320836900,70.7228369140625,0.974399983882904,-0.7780999541282654,-8.250399589538574
1702213673380836900,70.7828369140625,-2.243299961090088,-1.1689000129699707,-9.456399917602539
1702213673440836900,70.8428369140625,-3.6648998260498047,-0.3123999834060669,-7.16379976272583
1702213673500865000,70.90286499023438,-2.4758999347686768,-0.5159000158309937,-6.764899730682373
1702213673560836900,70.9628369140625,-3.8287999629974365,-3.295300006866455,-4.378399848937988
1702213673620836900,71.0228369140625,-3.4941999912261963,-5.623300075531006,-3.573699951171875
1702213673680836900,71.0828369140625,1.0819000005722046,-2.854300022125244,-1.6581999063491821
1702213673740836900,71.1428369140625,3.5566999912261963,-1.8223999738693237,1.2156999111175537
1702213673800836900,71.2028369140625,4.138599872589111,-3.2370998859405518,3.609499931335449
1702213673860836900,71.2628369140625,4.688699722290039,-3.7659997940063477,3.321199893951416
1702213673920836900,71.3228369140625,5.722300052642822,-4.0289998054504395,3.35509991645813
1702213673980836900,71.3828369140625,6.627199649810791,-2.9554998874664307,4.454999923706055
1702213674040836900,71.4428369140625,4.599100112915039,-4.109399795532227,6.826099872589111
1702213674100836900,71.5028369140625,0.9261999726295471,-4.877099990844727,4.217700004577637
1702213674160836900,71.5628369140625,-0.10359999537467957,-4.812900066375732,2.5346999168395996
1702213674220836900,71.6228369140625,1.416599988937378,-3.388899803161621,1.573099970817566
1702213674280836900,71.6828369140625,-0.6186999678611755,-1.2379000186920166,-0.5365999937057495
1702213674340836900,71.7428369140625,-1.8269000053405762,-1.177299976348877,-3.4159998893737793
1702213674400836900,71.8028369140625,-1.6399999856948853,-0.7008999586105347,-6.454999923706055
1702213674460836900,71.8628369140625,-2.33870005607605,1.3255999088287354,-6.824499607086182
1702213674520836900,71.9228369140625,-3.7704999446868896,-0.05989999696612358,-8.789299964904785
1702213674580836900,71.9828369140625,-4.064899921417236,-1.7323999404907227,-10.30459976196289
1702213674640836900,72.0428369140625,-1.8174999952316284,-2.5418999195098877,-8.228499412536621
1702213674700836900,72.1028369140625,0.08179999887943268,-3.072399854660034,-4.300600051879883
1702213674760836900,72.1628369140625,-1.914199948310852,-6.165899753570557,-3.8203999996185303
1702213674820836900,72.2228369140625,0.30329999327659607,-4.199100017547607,-2.1887998580932617
1702213674880836900,72.2828369140625,2.88919997215271,-2.725800037384033,1.0017999410629272
1702213674940836900,72.3428369140625,3.349599838256836,-3.210599899291992,3.673099994659424
1702213675000836900,72.4028369140625,4.245599746704102,-3.057799816131592,5.019499778747559
1702213675060836900,72.4628369140625,4.076200008392334,-2.330199956893921,6.170000076293945
1702213675120836900,72.5228369140625,3.347100019454956,-2.673499822616577,8.650699615478516
1702213675180836900,72.5828369140625,1.7538999319076538,-5.0605998039245605,8.044699668884277
1702213675240836900,72.6428369140625,2.436199903488159,-7.006799697875977,5.0000996589660645
1702213675300836900,72.7028369140625,0.8237999677658081,-6.827499866485596,4.173399925231934
1702213675360836900,72.7628369140625,0.607699990272522,-3.9848999977111816,0.739799976348877
1702213675420836900,72.8228369140625,-1.5154999494552612,-1.6150000095367432,-3.0288000106811523
1702213675480836900,72.8828369140625,-1.886099934577942,-3.1401000022888184,-7.514499664306641
1702213675540836900,72.9428369140625,-0.424699991941452,-1.3395999670028687,-8.02769947052002
1702213675600836900,73.0028369140625,-1.2704999446868896,0.8355000019073486,-8.08489990234375
1702213675660836900,73.0628369140625,-4.1707000732421875,1.6233999729156494,-8.167799949645996
1702213675720836900,73.1228369140625,-3.7660999298095703,-2.8554999828338623,-7.197499752044678
1702213675780836900,73.1828369140625,-3.2323999404907227,-3.474599838256836,-9.871899604797363
1702213675840836900,73.2428369140625,-1.1203999519348145,-6.083399772644043,-2.461400032043457
1702213675900836900,73.3028369140625,-1.0347999334335327,-4.850299835205078,-2.052299976348877
1702213675960836900,73.3628369140625,0.8219999670982361,-2.6029000282287598,-0.3138999938964844
1702213676020836900,73.4228369140625,2.1225998401641846,-2.0100998878479004,2.196899890899658
1702213676080836900,73.4828369140625,3.342599868774414,-2.517899990081787,3.9455997943878174
1702213676140836900,73.5428369140625,5.146100044250488,-1.5968999862670898,5.161599636077881
1702213676200836900,73.6028369140625,4.79449987411499,-2.654899835586548,5.661799907684326
1702213676260836900,73.6628369140625,3.3389999866485596,-4.446499824523926,3.956399917602539
1702213676320836900,73.7228369140625,3.8107998371124268,-4.164499759674072,5.23199987411499
1702213676380836900,73.7828369140625,1.076200008392334,-4.430200099945068,4.023399829864502
1702213676440836900,73.8428369140625,1.393399953842163,-5.877399921417236,3.2052998542785645
1702213676500836900,73.9028369140625,1.9767999649047852,-3.643199920654297,-0.08139999955892563
1702213676560836900,73.9628369140625,-0.4705999791622162,-1.4793000221252441,-1.7174999713897705
1702213676620836900,74.0228369140625,-1.7800999879837036,-0.6642999649047852,-3.6194000244140625
1702213676680836900,74.0828369140625,-0.9235000014305115,-1.015299916267395,-5.222499847412109
1702213676740836900,74.1428369140625,-1.570099949836731,0.3490999937057495,-6.328000068664551
1702213676800836900,74.2028369140625,-4.182600021362305,-0.48579999804496765,-6.370100021362305
1702213676860836900,74.2628369140625,-8.098299980163574,-0.46230000257492065,-8.389599800109863
1702213676920836900,74.3228369140625,-5.9704999923706055,-2.3086998462677,-5.408699989318848
1702213676980836900,74.3828369140625,-2.9809999465942383,-0.7996000051498413,-5.769999980926514
1702213677040836900,74.4428369140625,-2.84060001373291,-2.7100000381469727,-2.2379000186920166
1702213677100836900,74.5028369140625,-3.0652999877929688,-5.439300060272217,-3.4540998935699463
1702213677160836900,74.5628369140625,1.2567999362945557,-4.49970006942749,-2.700399875640869
1702213677220836900,74.6228369140625,4.2669997215271,-3.900399923324585,0.3716999888420105
1702213677280836900,74.6828369140625,5.665499687194824,-3.9626998901367188,2.5736000537872314
1702213677340836900,74.7428369140625,6.107199668884277,-3.5633997917175293,3.7070999145507812
1702213677400836900,74.8028369140625,5.658599853515625,-3.605599880218506,5.079699993133545
1702213677460836900,74.8628369140625,4.506099700927734,-3.7274999618530273,5.655900001525879
1702213677520836900,74.9228369140625,3.9350998401641846,-4.782199859619141,7.355999946594238
1702213677580836900,74.9828369140625,-0.4268999993801117,-6.338699817657471,3.819499969482422
1702213677640836900,75.0428369140625,-1.3884999752044678,-4.918499946594238,2.0629000663757324
1702213677700863500,75.10286352539063,0.28290000557899475,-1.6299999952316284,0.9348999857902527
1702213677760836900,75.1628369140625,-0.47589999437332153,-0.28540000319480896,-0.7407000064849854
1702213677820836900,75.2228369140625,-1.5408999919891357,-0.26190000772476196,-2.6340999603271484
1702213677880836900,75.2828369140625,-1.7766999006271362,-1.777999997138977,-6.457599639892578
1702213677940836900,75.3428369140625,-1.3923999071121216,-0.7924999594688416,-8.712699890136719
1702213678000836900,75.4028369140625,-0.6951999664306641,3.729300022125244,-6.753499984741211
1702213678060836900,75.4628369140625,-4.033999919891357,-1.2813999652862549,-7.890100002288818
1702213678120836900,75.5228369140625,-3.279899835586548,-5.339799880981445,-11.989999771118164
1702213678180836900,75.5828369140625,0.19409999251365662,-5.408799648284912,-2.825199842453003
1702213678240836900,75.6428369140625,-1.2785999774932861,-7.092899799346924,-1.6366000175476074
1702213678300836900,75.7028369140625,-0.22059999406337738,-5.509999752044678,-1.7788000106811523
1702213678360836900,75.7628369140625,1.6198999881744385,-3.1522998809814453,2.8343000411987305
1702213678420836900,75.8228369140625,1.2980999946594238,-2.7718000411987305,6.662499904632568
1702213678480836900,75.8828369140625,1.8161998987197876,-1.2578999996185303,8.496199607849121
1702213678540836900,75.9428369140625,2.30649995803833,-0.014399999752640724,8.903999328613281
1702213678600836900,76.0028369140625,1.501599907875061,-0.3102000057697296,9.639800071716309
1702213678660836900,76.0628369140625,-0.7421000003814697,-3.9699997901916504,7.245499610900879
1702213678720836900,76.1228369140625,-2.416599988937378,-11.617199897766113,5.5243000984191895
1702213678780836900,76.1828369140625,-1.8209999799728394,-8.61299991607666,-1.7835999727249146
1702213678840836900,76.2428369140625,-1.4785999059677124,-4.819999694824219,-1.505199909210205
