time,seconds_elapsed,z,y,x
1702297541967733200,0.036733154296875,1.3982999324798584,-0.09929999709129333,0.0044999998062849045
1702297542027731700,0.096731689453125,-0.009599999524652958,0.016099998727440834,-0.2084999978542328
1702297542087731700,0.156731689453125,-0.2667999863624573,-0.0940999984741211,-0.1395999938249588
1702297542147731700,0.216731689453125,-0.16740000247955322,-0.23510000109672546,-0.10199999809265137
1702297542207733200,0.276733154296875,-0.3199000060558319,-0.15549999475479126,-0.010300000198185444
1702297542267731700,0.336731689453125,0.12969999015331268,-0.1938999891281128,-0.31790000200271606
1702297542327731700,0.396731689453125,-0.500499963760376,-0.18410000205039978,-0.3203999996185303
1702297542387731700,0.456731689453125,-0.08069999516010284,-0.3578999936580658,-0.597000002861023
1702297542447731700,0.516731689453125,0.12370000034570694,-0.07419999688863754,-0.3127000033855438
1702297542507731700,0.576731689453125,1.1064000129699707,-0.20789998769760132,-0.19629999995231628
1702297542567731700,0.636731689453125,-1.4471999406814575,0.8009999990463257,1.225600004196167
1702297542627731700,0.696731689453125,0.07229999452829361,-0.4292999804019928,1.2984999418258667
1702297542687731700,0.756731689453125,-0.6182000041007996,0.018699999898672104,1.2015999555587769
1702297542747731700,0.816731689453125,0.031199999153614044,-0.4357999861240387,0.44259998202323914
1702297542807731700,0.876731689453125,-0.17960000038146973,0.3497999906539917,0.6556999683380127
1702297542867731700,0.936731689453125,-0.031300000846385956,0.13429999351501465,0.10579999536275864
1702297542927731700,0.996731689453125,-0.4131999909877777,-0.024699999019503593,0.13740000128746033
1702297542987731700,1.056731689453125,0.40869998931884766,0.04169999808073044,0.15699999034404755
1702297543047731700,1.116731689453125,0.0429999977350235,-0.10359999537467957,-0.1834999918937683
1702297543107731700,1.176731689453125,-0.2962000072002411,0.16189999878406525,0.1688999980688095
1702297543167731700,1.236731689453125,-0.14409999549388885,-0.15330000221729279,-0.0771000012755394
1702297543227731700,1.296731689453125,-0.3440999984741211,-0.33309999108314514,-0.042500000447034836
1702297543287731700,1.356731689453125,-0.23669999837875366,-0.15240000188350677,0.08739999681711197
1702297543347731700,1.416731689453125,0.203699991106987,-0.19290000200271606,0.11859999597072601
1702297543407731700,1.476731689453125,-0.02199999988079071,-0.13030000030994415,-0.051899999380111694
1702297543467731700,1.536731689453125,0.23519998788833618,-0.3845999836921692,-0.6126999855041504
1702297543527731700,1.596731689453125,0.03179999813437462,-0.40639999508857727,0.14190000295639038
1702297543587731700,1.656731689453125,-1.0288000106811523,0.2540999948978424,0.4763000011444092
1702297543647731700,1.716731689453125,-1.0966999530792236,-0.35409998893737793,-0.9985999464988708
1702297543707731700,1.776731689453125,-0.9684000015258789,-1.6134999990463257,-0.29909998178482056
1702297543767731700,1.836731689453125,-1.0235999822616577,-0.29009997844696045,0.11219999939203262
1702297543827731700,1.896731689453125,-4.739799976348877,-2.2572999000549316,0.717199981212616
1702297543887731700,1.956731689453125,-1.8535000085830688,0.5952000021934509,2.1224000453948975
1702297543947731700,2.016731689453125,-4.642899990081787,-1.0099999904632568,0.821399986743927
1702297544007731700,2.076731689453125,-2.836899995803833,1.4354000091552734,-0.06319999694824219
1702297544067759900,2.136759765625,-3.573499917984009,0.5182999968528748,-2.747499942779541
1702297544127731700,2.196731689453125,-1.9246999025344849,0.6768999695777893,-2.87749981880188
1702297544187731700,2.256731689453125,-0.4958999752998352,0.7742999792098999,-3.5227999687194824
1702297544247731700,2.316731689453125,-0.9649999737739563,0.6407999992370605,-2.8950998783111572
1702297544307731700,2.376731689453125,0.11679999530315399,0.7365999817848206,-4.871099948883057
1702297544367731700,2.436731689453125,2.077899932861328,0.5245999693870544,-4.430099964141846
1702297544427731700,2.496731689453125,2.6263999938964844,1.066100001335144,-4.753699779510498
1702297544487731700,2.556731689453125,3.670099973678589,2.3155999183654785,-1.5556999444961548
1702297544547731700,2.616731689453125,2.3855998516082764,1.5097999572753906,-1.8608999252319336
1702297544607731700,2.676731689453125,3.313999891281128,2.4017999172210693,-3.640699863433838
1702297544667731700,2.736731689453125,2.434299945831299,2.4637999534606934,-0.4537999927997589
1702297544727731700,2.796731689453125,1.163599967956543,1.612399935722351,5.495899677276611
1702297544787731700,2.856731689453125,0.4714999794960022,-0.40230000019073486,2.528599977493286
1702297544847731700,2.916731689453125,1.1500999927520752,-1.8973000049591064,-2.7806999683380127
1702297544907731700,2.976731689453125,0.025299999862909317,-4.835599899291992,-1.7276999950408936
1702297544967731700,3.036731689453125,0.3093999922275543,-3.797299861907959,1.7357999086380005
1702297545027731700,3.096731689453125,2.292799949645996,-0.585099995136261,4.130000114440918
1702297545087758300,3.15675830078125,2.8783998489379883,-5.051300048828125,-0.8690999746322632
1702297545147731700,3.216731689453125,1.8323999643325806,-2.953399896621704,-2.7276999950408936
1702297545207731700,3.276731689453125,-2.0571000576019287,-4.257400035858154,-1.8905999660491943
1702297545267731700,3.336731689453125,-3.669299840927124,-2.266700029373169,0.05130000039935112
1702297545327731700,3.396731689453125,1.1145999431610107,7.006999969482422,-1.689099907875061
1702297545387731700,3.456731689453125,-2.2274999618530273,-0.5342999696731567,0.8629999756813049
1702297545447731700,3.516731689453125,2.0035998821258545,-4.6407999992370605,-1.7623000144958496
1702297545507731700,3.576731689453125,0.5514000058174133,-5.836299896240234,-4.164999961853027
1702297545567731700,3.636731689453125,-0.5866999626159668,-4.745299816131592,6.39739990234375
1702297545627731700,3.696731689453125,-1.7317999601364136,7.47790002822876,9.275199890136719
1702297545687731700,3.756731689453125,0.5202999711036682,2.522599935531616,3.9226999282836914
1702297545747731700,3.816731689453125,-0.11329999566078186,-0.6431999802589417,1.3870999813079834
1702297545807731700,3.876731689453125,2.7784998416900635,1.6028999090194702,2.319499969482422
1702297545867731700,3.936731689453125,2.839099884033203,-0.38179999589920044,-0.2175000011920929
1702297545927731700,3.996731689453125,-1.5022000074386597,-1.1979999542236328,1.615299940109253
1702297545987731700,4.056731689453125,-2.7553999423980713,-2.8588998317718506,1.8463000059127808
1702297546047731700,4.116731689453125,2.555500030517578,-4.889400005340576,1.4743999242782593
1702297546107731700,4.176731689453125,2.6298999786376953,-1.0060999393463135,-0.5036999583244324
1702297546167731700,4.236731689453125,-0.22049999237060547,-0.21660000085830688,-2.4450998306274414
1702297546227731700,4.296731689453125,5.887700080871582,0.2798999845981598,1.3955999612808228
1702297546287731700,4.356731689453125,-5.638499736785889,4.797800064086914,0.7543999552726746
1702297546347731700,4.416731689453125,-4.267199993133545,-0.9907999634742737,1.6287000179290771
1702297546407731700,4.476731689453125,-1.8711999654769897,1.194100022315979,2.842599868774414
1702297546467731700,4.536731689453125,-1.218500018119812,-1.5011999607086182,0.9603999853134155
1702297546527731700,4.596731689453125,-1.5830999612808228,-1.5180000066757202,0.21899999678134918
1702297546587731700,4.656731689453125,-0.2037999927997589,-1.287500023841858,-1.9244999885559082
1702297546647731700,4.716731689453125,1.3734999895095825,-0.8121999502182007,-0.42800000309944153
1702297546707731700,4.776731689453125,0.9399999976158142,-1.0794999599456787,-0.24079999327659607
1702297546767731700,4.836731689453125,2.0808000564575195,1.6557999849319458,-0.9140999913215637
1702297546827731700,4.896731689453125,2.5244998931884766,1.083299994468689,-2.499500036239624
1702297546887731700,4.956731689453125,0.7901999950408936,1.5418999195098877,-1.518899917602539
1702297546947731700,5.016731689453125,-1.417099952697754,1.8726999759674072,0.18029999732971191
1702297547007731700,5.076731689453125,0.12109999358654022,5.377500057220459,-0.13509999215602875
1702297547067731700,5.136731689453125,-0.027300000190734863,-1.7214999198913574,2.3720998764038086
1702297547127731700,5.196731689453125,-2.69789981842041,-2.6816999912261963,1.9688999652862549
1702297547187731700,5.256731689453125,-2.054499864578247,-2.3862998485565186,1.2380999326705933
1702297547247731700,5.316731689453125,0.46309998631477356,-3.9983999729156494,2.493299961090088
1702297547307731700,5.376731689453125,0.9993999600410461,-1.0710999965667725,2.5869998931884766
1702297547367731700,5.436731689453125,3.7400999069213867,0.3247999846935272,-6.33519983291626
1702297547427731700,5.496731689453125,-2.5690999031066895,6.52679967880249,2.3118999004364014
1702297547487731700,5.556731689453125,-2.7943999767303467,-2.3803000450134277,1.8125
1702297547547733200,5.616733154296875,-3.3176000118255615,0.11629999428987503,3.515199899673462
1702297547607731700,5.676731689453125,-3.217900037765503,2.098599910736084,3.258999824523926
1702297547667733200,5.736733154296875,1.3371999263763428,-1.565999984741211,4.613100051879883
1702297547727731700,5.796731689453125,-2.7792999744415283,-2.743799924850464,-1.7101999521255493
1702297547787731700,5.856731689453125,5.888599872589111,0.016499999910593033,-2.433799982070923
1702297547847731700,5.916731689453125,2.1907999515533447,-1.3101999759674072,-0.47110000252723694
1702297547907731700,5.976731689453125,0.7267999649047852,1.1171000003814697,-0.5895999670028687
1702297547967731700,6.036731689453125,1.3695999383926392,0.8743000030517578,0.6958000063896179
1702297548027731700,6.096731689453125,1.1953999996185303,1.8870999813079834,-2.225399971008301
1702297548087731700,6.156731689453125,-1.6261999607086182,0.2076999992132187,-1.1998000144958496
1702297548147731700,6.216731689453125,-0.9980999827384949,5.725100040435791,-0.8052999973297119
1702297548207731700,6.276731689453125,0.27140000462532043,-0.12079999595880508,3.6805999279022217
1702297548267731700,6.336731689453125,0.25290000438690186,-1.8638999462127686,2.3919999599456787
1702297548327731700,6.396731689453125,-3.221799850463867,-2.548499822616577,2.1689000129699707
1702297548387731700,6.456731689453125,0.5943999886512756,-5.189699649810791,0.6245999932289124
1702297548447731700,6.516731689453125,1.9896999597549438,1.2339999675750732,3.110599994659424
1702297548507731700,6.576731689453125,3.2187998294830322,-2.5443999767303467,-5.357100009918213
1702297548567731700,6.636731689453125,-2.7528998851776123,5.371099948883057,-0.6136999726295471
1702297548627731700,6.696731689453125,-2.0685999393463135,0.9437999725341797,3.151899814605713
1702297548687731700,6.756731689453125,-2.942999839782715,1.0030999183654785,3.872799873352051
1702297548747731700,6.816731689453125,-2.9306998252868652,1.1060999631881714,2.80079984664917
1702297548807731700,6.876731689453125,4.489599704742432,-4.491399765014648,-2.416800022125244
1702297548867731700,6.936731689453125,-4.399899959564209,-0.3929999768733978,0.003000000026077032
1702297548927731700,6.996731689453125,3.6187000274658203,-0.9891999959945679,-0.7500999569892883
1702297548987731700,7.056731689453125,1.4891999959945679,-0.7494999766349792,-1.2044999599456787
1702297549047731700,7.116731689453125,0.009499999694526196,0.7825999855995178,-1.3174999952316284
1702297549107731700,7.176731689453125,1.2073999643325806,-1.0921999216079712,-0.9314000010490417
1702297549167731700,7.236731689453125,-0.2736999988555908,0.8465999960899353,-2.0053000450134277
1702297549227731700,7.296731689453125,-0.3093999922275543,1.7929999828338623,-1.2443000078201294
1702297549287731700,7.356731689453125,0.3804999887943268,7.800599575042725,1.7666000127792358
1702297549347731700,7.416731689453125,0.1454000025987625,-1.549299955368042,3.4529998302459717
1702297549407731700,7.476731689453125,-1.9449999332427979,-1.911199927330017,2.3832998275756836
1702297549467731700,7.536731689453125,-1.8398000001907349,-2.927999973297119,0.5708999633789062
1702297549527731700,7.596731689453125,-1.4126999378204346,-3.982100009918213,4.036399841308594
1702297549587731700,7.656731689453125,2.6475000381469727,2.6164000034332275,1.3940999507904053
1702297549647731700,7.716731689453125,1.156499981880188,-2.4266998767852783,-6.519399642944336
1702297549707731700,7.776731689453125,1.1021000146865845,4.241099834442139,1.013100028038025
1702297549767731700,7.836731689453125,-2.734099864959717,2.336199998855591,0.6559999585151672
1702297549827731700,7.896731689453125,-2.8966000080108643,-0.08579999953508377,2.265199899673462
1702297549887731700,7.956731689453125,-1.5529999732971191,1.4318000078201294,3.540299892425537
1702297549947731700,8.016731689453126,0.03920000046491623,-1.357100009918213,0.46949997544288635
1702297550007731700,8.076731689453124,-0.638700008392334,-1.2085999250411987,-0.5550000071525574
1702297550067731700,8.136731689453125,0.11719999462366104,-0.892799973487854,-1.1549999713897705
1702297550127731700,8.196731689453125,1.6924999952316284,-1.1173999309539795,-0.3278999924659729
1702297550187731700,8.256731689453124,0.960599958896637,-0.3127000033855438,0.3346000015735626
1702297550247731700,8.316731689453125,0.8751999735832214,-0.06679999828338623,-1.4916999340057373
1702297550307731700,8.376731689453125,0.5182999968528748,-0.24869999289512634,-1.8428999185562134
1702297550367731700,8.436731689453126,0.33660000562667847,0.6398000121116638,-1.7680999040603638
1702297550427731700,8.496731689453124,-0.7732999920845032,1.8880999088287354,0.9418999552726746
1702297550487731700,8.556731689453125,1.6669999361038208,6.106599807739258,2.3203999996185303
1702297550547731700,8.616731689453125,0.05570000037550926,-0.8677999973297119,1.223599910736084
1702297550607731700,8.676731689453124,-1.4254000186920166,-1.7389999628067017,2.1280999183654785
1702297550667731700,8.736731689453125,-1.6316999197006226,-0.7060999870300293,1.3394999504089355
1702297550727731700,8.796731689453125,-0.2061000019311905,-3.0329999923706055,3.1848998069763184
1702297550787731700,8.856731689453126,0.28849998116493225,-2.053299903869629,2.216599941253662
1702297550847731700,8.916731689453124,3.795300006866455,3.0326998233795166,-3.654899835586548
1702297550907731700,8.976731689453125,-0.5990999937057495,-2.249500036239624,-2.81469988822937
1702297550967731700,9.036731689453125,0.8374999761581421,2.5690999031066895,3.313699960708618
1702297551027731700,9.096731689453126,-5.063699722290039,-0.8360999822616577,-1.461899995803833
1702297551087731700,9.156731689453125,-1.830399990081787,1.3162000179290771,0.8693000078201294
1702297551147731700,9.216731689453125,-1.3589999675750732,-0.5587999820709229,3.459199905395508
1702297551207731700,9.276731689453126,0.042500000447034836,-1.0340999364852905,-0.14259999990463257
1702297551267731700,9.336731689453124,-1.2401999235153198,-1.4387999773025513,2.0615999698638916
1702297551327731700,9.396731689453125,-0.5406999588012695,-0.564799964427948,-1.507599949836731
1702297551387731700,9.456731689453125,2.419100046157837,-1.4292999505996704,-0.4957999885082245
1702297551447731700,9.516731689453126,3.4779999256134033,0.33570000529289246,-0.14329999685287476
1702297551507731700,9.576731689453124,1.0376999378204346,0.45229998230934143,0.007799999788403511
1702297551567731700,9.636731689453125,1.4275999069213867,0.3520999848842621,-2.540599822998047
1702297551627731700,9.696731689453125,0.5099999904632568,1.0104999542236328,-2.133699893951416
1702297551687731700,9.756731689453124,-0.9912999868392944,-0.0989999994635582,-2.2433998584747314
1702297551747731700,9.816731689453125,-1.6836999654769897,2.9772000312805176,-2.192999839782715
1702297551807731700,9.876731689453125,3.580699920654297,3.3753998279571533,5.387499809265137
1702297551867731700,9.936731689453126,-1.1770999431610107,-1.6445999145507812,2.2386999130249023
1702297551927731700,9.996731689453124,-2.0936999320983887,-2.1801998615264893,1.8009999990463257
1702297551987731700,10.056731689453125,-1.2864999771118164,-3.287799835205078,0.3361999988555908
1702297552047731700,10.116731689453125,0.9014999866485596,-4.701299667358398,2.6703999042510986
1702297552107731700,10.176731689453124,5.695099830627441,4.846999645233154,-0.27789998054504395
1702297552167731700,10.236731689453125,0.5054999589920044,-3.5678999423980713,-5.441799640655518
1702297552227731700,10.296731689453125,-4.291800022125244,5.62999963760376,-0.6833999752998352
1702297552287731700,10.356731689453126,-2.782899856567383,-1.7695999145507812,1.7515000104904175
1702297552347731700,10.416731689453124,-3.794600009918213,4.917399883270264,3.8481998443603516
1702297552407731700,10.476731689453125,-1.559499979019165,-0.017999999225139618,1.9536999464035034
1702297552467731700,10.536731689453125,-1.580899953842163,-3.6210999488830566,0.4066999852657318
1702297552527731700,10.596731689453126,-1.3476999998092651,-1.1759999990463257,-0.583299994468689
1702297552587731700,10.656731689453125,1.8985999822616577,-0.9936999678611755,-1.0597000122070312
1702297552647731700,10.716731689453125,2.767899990081787,-1.4905999898910522,-1.073199987411499
1702297552707731700,10.776731689453126,0.8204999566078186,1.055299997329712,-1.434899926185608
1702297552767731700,10.836731689453124,0.16820000112056732,-0.10909999907016754,-2.5160999298095703
1702297552827731700,10.896731689453125,2.6675000190734863,0.9847999811172485,-2.8055999279022217
1702297552887731700,10.956731689453125,-0.8851999640464783,1.3497999906539917,0.019899999722838402
1702297552947733200,11.016733154296874,2.1800999641418457,6.7906999588012695,0.6631999611854553
1702297553007731700,11.076731689453124,0.00969999935477972,-0.6039999723434448,2.1633999347686768
1702297553067731700,11.136731689453125,-0.7816999554634094,-2.113499879837036,3.218600034713745
1702297553127731700,11.196731689453125,-1.347100019454956,-2.1166999340057373,-0.03280000016093254
1702297553187731700,11.256731689453124,-0.47209998965263367,-4.313799858093262,3.6539998054504395
1702297553247731700,11.316731689453125,1.8865998983383179,0.3260999917984009,2.339400053024292
1702297553307731700,11.376731689453125,0.9511999487876892,-0.6297000050544739,-10.381599426269531
1702297553367731700,11.436731689453126,-1.8720999956130981,2.5058000087738037,-0.2619999945163727
1702297553427731700,11.496731689453124,-3.315699815750122,-0.2126999944448471,5.333199977874756
1702297553487731700,11.556731689453125,-4.181299686431885,7.0167999267578125,3.017199993133545
1702297553547731700,11.616731689453125,-0.5701999664306641,-1.0195000171661377,1.0289000272750854
1702297553607731700,11.676731689453124,1.073599934577942,-3.646699905395508,-1.2702999114990234
1702297553667731700,11.736731689453125,-1.0555999279022217,-0.9887999892234802,-0.6816999912261963
1702297553727731700,11.796731689453125,2.8691999912261963,-0.6211999654769897,-0.5180999636650085
1702297553787731700,11.856731689453126,1.8664000034332275,-2.2548999786376953,-2.2363998889923096
1702297553847731700,11.916731689453124,1.0774999856948853,0.5002999901771545,-1.508099913597107
1702297553907731700,11.976731689453125,0.32429999113082886,-0.4355999827384949,-1.5806999206542969
1702297553967731700,12.036731689453125,1.2156999111175537,-1.1952999830245972,-2.67549991607666
1702297554027731700,12.096731689453126,-1.0866999626159668,3.4121999740600586,-2.2934999465942383
1702297554087731700,12.156731689453125,0.9043999910354614,8.707900047302246,2.250699996948242
1702297554147731700,12.216731689453125,0.6718999743461609,-1.2335000038146973,3.232100009918213
1702297554207731700,12.276731689453126,-2.173099994659424,-2.7726998329162598,3.9657998085021973
1702297554267731700,12.336731689453124,-1.3295999765396118,-3.761199951171875,1.2948999404907227
1702297554327731700,12.396731689453125,1.0024999380111694,-4.09630012512207,5.404399871826172
1702297554387731700,12.456731689453125,5.1981000900268555,6.714599609375,-4.949399948120117
1702297554447731700,12.516731689453126,3.7221999168395996,-2.80679988861084,-0.7274999618530273
1702297554507731700,12.576731689453124,-5.063999652862549,7.22629976272583,1.601199984550476
1702297554567731700,12.636731689453125,-2.545799970626831,-0.6563000082969666,1.6229000091552734
1702297554627731700,12.696731689453125,-3.1564998626708984,2.194700002670288,1.3813999891281128
1702297554687731700,12.756731689453124,0.3887999951839447,-0.8537999987602234,0.7560999989509583
1702297554747731700,12.816731689453125,-1.6965999603271484,-1.621999979019165,2.124799966812134
1702297554807731700,12.876731689453125,-1.3478999137878418,-0.8201999664306641,-0.2565000057220459
1702297554867731700,12.936731689453126,2.322399854660034,-1.0770000219345093,-1.1162999868392944
1702297554927731700,12.996731689453124,1.320199966430664,-1.2350999116897583,-0.17109999060630798
1702297554987731700,13.056731689453125,0.10009999573230743,1.2027000188827515,-1.3056999444961548
1702297555047731700,13.116731689453125,2.144199848175049,-0.9662999510765076,-2.4926998615264893
1702297555107731700,13.176731689453124,-0.35420000553131104,-0.1216999962925911,-2.5546998977661133
1702297555167731700,13.236731689453125,-0.19529999792575836,1.8950999975204468,-1.3427000045776367
1702297555227731700,13.296731689453125,0.6912999749183655,8.285099983215332,1.6403999328613281
1702297555287731700,13.356731689453126,0.9003999829292297,-0.5428000092506409,1.6548999547958374
1702297555347731700,13.416731689453124,-2.007499933242798,-2.2095999717712402,3.4774999618530273
1702297555407731700,13.476731689453125,-2.194700002670288,-2.269899845123291,1.4986000061035156
1702297555467731700,13.536731689453125,0.8669999837875366,-4.110000133514404,3.55679988861084
1702297555527731700,13.596731689453126,2.3107998371124268,4.43149995803833,-0.7942999601364136
1702297555587731700,13.656731689453125,2.3016998767852783,-4.267399787902832,-2.541800022125244
1702297555647731700,13.716731689453125,-0.04259999841451645,4.792200088500977,1.389299988746643
1702297555707731700,13.776731689453126,-1.0579999685287476,0.7109999656677246,0.10399999469518661
1702297555767731700,13.836731689453124,-3.846599817276001,1.3533999919891357,2.0820000171661377
1702297555827731700,13.896731689453125,-0.3536999821662903,0.876800000667572,0.19179999828338623
1702297555887731700,13.956731689453125,-0.3872999846935272,-0.9292999505996704,0.37779998779296875
1702297555947731700,14.016731689453126,-2.1898999214172363,-0.8537999987602234,1.7804999351501465
1702297556007731700,14.076731689453124,0.7540000081062317,-0.9817999601364136,-0.6019999980926514
1702297556067731700,14.136731689453125,3.274099826812744,-2.208899974822998,-1.5494999885559082
1702297556127731700,14.196731689453125,-0.5241999626159668,-0.5142999887466431,-0.20789998769760132
1702297556187731700,14.256731689453124,1.4294999837875366,0.4465999901294708,-1.448599934577942
1702297556247731700,14.316731689453125,1.1339999437332153,-1.0145000219345093,-2.9946999549865723
1702297556307731700,14.376731689453125,0.35909998416900635,-0.34459999203681946,-2.361799955368042
1702297556367731700,14.436731689453126,-0.12199999392032623,2.837899923324585,-0.4268999993801117
1702297556427731700,14.496731689453124,1.1262999773025513,7.607800006866455,2.1875
1702297556487731700,14.556731689453125,0.9590999484062195,-0.946899950504303,1.8701999187469482
1702297556547731700,14.616731689453125,-1.0433999300003052,-1.4311000108718872,1.3356999158859253
1702297556607731700,14.676731689453124,-1.2207000255584717,-1.0275999307632446,1.2660999298095703
1702297556667731700,14.736731689453125,0.45350000262260437,-4.104599952697754,5.343599796295166
1702297556727731700,14.796731689453125,2.4384000301361084,0.5769000053405762,0.21369999647140503
1702297556787731700,14.856731689453126,3.239499807357788,-2.708099842071533,-5.823599815368652
1702297556847731700,14.916731689453124,-2.5444998741149902,5.603300094604492,0.4098999798297882
1702297556907731700,14.976731689453125,-2.173099994659424,-1.695099949836731,3.646699905395508
1702297556967731700,15.036731689453125,-3.749499797821045,4.104000091552734,0.7612999677658081
1702297557027731700,15.096731689453126,1.4129999876022339,-0.7166000008583069,0.5130000114440918
1702297557087731700,15.156731689453125,-1.722999930381775,-2.0118000507354736,1.0526999235153198
1702297557147731700,15.216731689453125,0.8017999529838562,-0.3619000017642975,-0.3228999972343445
1702297557207731700,15.276731689453126,0.5752999782562256,-1.062600016593933,-0.5322999954223633
1702297557267731700,15.336731689453124,1.729099988937378,-1.5262999534606934,-0.2547999918460846
1702297557327731700,15.396731689453125,0.9691999554634094,0.007599999662488699,-0.7537999749183655
1702297557387731700,15.456731689453125,0.8572999835014343,0.6376999616622925,-1.2738999128341675
1702297557447731700,15.516731689453126,0.2680000066757202,-0.6018999814987183,-2.952899932861328
1702297557507731700,15.576731689453124,1.8191999197006226,-1.7818999290466309,-4.335099697113037
1702297557567731700,15.636731689453125,-1.0151000022888184,2.2635998725891113,-0.34630000591278076
1702297557627731700,15.696731689453125,2.484999895095825,7.456699848175049,2.8554999828338623
1702297557687731700,15.756731689453124,1.0781999826431274,-1.0666999816894531,1.2188999652862549
1702297557747731700,15.816731689453125,-1.2314999103546143,-1.6718000173568726,1.3640999794006348
1702297557807731700,15.876731689453125,-1.7388999462127686,-0.7181999683380127,1.2094999551773071
1702297557867731700,15.936731689453126,-0.4887000024318695,-3.107800006866455,5.434799671173096
1702297557927731700,15.996731689453124,2.2191998958587646,-0.36910000443458557,2.119799852371216
1702297557987731700,16.056731689453127,0.7045999765396118,-2.2181999683380127,-5.703700065612793
1702297558047731700,16.116731689453125,0.12969999015331268,3.5652999877929688,-0.27559998631477356
1702297558107731700,16.176731689453124,-1.680799961090088,0.7232999801635742,2.9398999214172363
1702297558167731700,16.236731689453126,-2.8439998626708984,3.197000026702881,1.4294999837875366
1702297558227731700,16.296731689453125,-1.2299000024795532,0.019099999219179153,-0.6949999928474426
1702297558287731700,16.356731689453124,0.0013000000035390258,-1.5467000007629395,0.16359999775886536
1702297558347731700,16.416731689453126,-0.42159998416900635,-1.020300030708313,1.1323999166488647
1702297558407731700,16.476731689453125,0.8549000024795532,-1.2369999885559082,0.1678999960422516
1702297558467731700,16.536731689453124,2.985100030899048,-1.8102999925613403,-1.6110999584197998
1702297558527731700,16.596731689453126,0.8604999780654907,-1.2692999839782715,-1.0234999656677246
1702297558587731700,16.656731689453125,1.4541000127792358,1.0598000288009644,-1.4819999933242798
1702297558647731700,16.716731689453123,-0.1014999970793724,0.3075000047683716,-2.0966999530792236
1702297558707731700,16.776731689453126,0.08720000088214874,-0.6895999908447266,-1.3519999980926514
1702297558767731700,16.836731689453124,-0.6274999976158142,3.3788998126983643,-1.549399971961975
1702297558827731700,16.896731689453127,0.9666999578475952,5.099599838256836,1.7381999492645264
1702297558887731700,16.956731689453125,1.2085000276565552,-1.5031999349594116,1.9660999774932861
1702297558947731700,17.016731689453124,-1.3514999151229858,-1.7924998998641968,1.8604999780654907
1702297559007731700,17.076731689453126,-1.493899941444397,-1.684399962425232,2.0683000087738037
1702297559067731700,17.136731689453125,-0.367499977350235,-2.886699914932251,5.9126996994018555
1702297559127731700,17.196731689453124,5.327399730682373,4.7627997398376465,-1.8597999811172485
1702297559187731700,17.256731689453126,3.799999952316284,-4.460099697113037,-3.776099920272827
1702297559247731700,17.316731689453125,-0.3709000051021576,5.541399955749512,-0.19460000097751617
1702297559307731700,17.376731689453123,-2.470899820327759,-0.03989999741315842,3.009500026702881
1702297559367731700,17.436731689453126,-2.9438998699188232,2.9521000385284424,-0.5447999835014343
1702297559427731700,17.496731689453124,0.6534000039100647,0.5464999675750732,0.8574999570846558
1702297559487731700,17.556731689453127,-0.4708999991416931,-2.0274999141693115,1.8983999490737915
1702297559547731700,17.616731689453125,-1.191499948501587,-0.43799999356269836,2.050299882888794
1702297559607731700,17.676731689453124,1.780900001525879,-1.1337000131607056,-1.1913999319076538
1702297559667731700,17.736731689453126,3.6004998683929443,-2.789099931716919,-2.9601998329162598
1702297559727731700,17.796731689453125,-0.05389999970793724,0.7975999712944031,-1.524399995803833
1702297559787731700,17.856731689453124,2.54830002784729,0.6193999648094177,-0.3172000050544739
1702297559847731700,17.916731689453126,-0.21389999985694885,-1.017199993133545,-2.28410005569458
1702297559907731700,17.976731689453125,1.392699956893921,-0.21529999375343323,-1.417099952697754
1702297559967731700,18.036731689453124,-0.6620000004768372,4.210700035095215,-1.7601999044418335
1702297560027731700,18.096731689453126,0.817799985408783,2.5493998527526855,1.1627999544143677
1702297560087731700,18.156731689453125,0.07679999619722366,-0.2264999896287918,3.2314000129699707
1702297560147731700,18.216731689453123,-1.0532000064849854,-1.0236999988555908,1.7185999155044556
1702297560207731700,18.276731689453126,-1.9886999130249023,-1.7913999557495117,2.7632999420166016
1702297560267731700,18.336731689453124,0.39389997720718384,-3.4148998260498047,4.4853997230529785
1702297560327731700,18.396731689453127,4.147900104522705,4.849400043487549,-3.921799898147583
1702297560387731700,18.456731689453125,2.3835999965667725,-3.6995999813079834,-2.085899829864502
1702297560447760000,18.516759765625,-1.5565999746322632,5.818999767303467,3.7799999713897705
1702297560507731700,18.576731689453126,-2.408399820327759,-1.236199975013733,0.8119999766349792
1702297560567731700,18.636731689453125,-2.917799949645996,4.290899753570557,3.606799840927124
1702297560627731700,18.696731689453124,1.7055000066757202,-0.6298999786376953,0.07109999656677246
1702297560687731700,18.756731689453126,-1.1431999206542969,-1.4257999658584595,1.8389999866485596
1702297560747731700,18.816731689453125,-0.8756999969482422,-1.115899920463562,0.203699991106987
1702297560807731700,18.876731689453123,2.819200038909912,-1.3447999954223633,-1.5776000022888184
1702297560867731700,18.936731689453126,1.580899953842163,-1.9997999668121338,-0.9490000009536743
1702297560927731700,18.996731689453124,-0.4048999845981598,0.9812999963760376,-1.0223000049591064
1702297560987731700,19.056731689453127,1.6233999729156494,0.10379999876022339,-1.4673999547958374
1702297561047731700,19.116731689453125,3.0511999130249023,-0.6047999858856201,-2.2147998809814453
1702297561107731700,19.176731689453124,0.7055000066757202,1.610700011253357,-1.3526999950408936
1702297561167731700,19.236731689453126,1.2318999767303467,5.430099964141846,-1.0846999883651733
1702297561227731700,19.296731689453125,1.517799973487854,2.13319993019104,1.5615999698638916
1702297561287731700,19.356731689453124,-1.2156999111175537,-1.917699933052063,3.789299964904785
1702297561347731700,19.416731689453126,-0.40609997510910034,-2.2575998306274414,0.6096000075340271
1702297561407731700,19.476731689453125,-0.6444999575614929,-1.3157999515533447,3.6399998664855957
1702297561467731700,19.536731689453124,1.0253000259399414,-3.7132999897003174,3.4382998943328857
1702297561527731700,19.596731689453126,1.3061999082565308,1.7867000102996826,-6.760900020599365
1702297561587731700,19.656731689453125,0.6387999653816223,1.2145999670028687,-1.343999981880188
1702297561647731700,19.716731689453123,1.5583000183105469,5.628900051116943,3.2157998085021973
1702297561707731700,19.776731689453126,-4.318999767303467,0.8697999715805054,1.9328999519348145
1702297561767731700,19.836731689453124,-1.9896999597549438,2.003999948501587,1.052899956703186
1702297561827731700,19.896731689453127,3.0789999961853027,-2.0130999088287354,0.14829999208450317
1702297561887731700,19.956731689453125,-4.549799919128418,-1.6409000158309937,2.4529998302459717
1702297561947731700,20.016731689453124,3.7824997901916504,-0.640500009059906,-2.135699987411499
1702297562007731700,20.076731689453126,-0.9145999550819397,-1.3365999460220337,-0.4388999938964844
1702297562067731700,20.136731689453125,2.9963998794555664,-0.9408999681472778,-0.5259999632835388
1702297562127731700,20.196731689453124,-0.16659998893737793,0.7495999932289124,-1.2303999662399292
1702297562187731700,20.256731689453126,2.1928000450134277,-0.8805999755859375,-1.3839999437332153
1702297562247731700,20.316731689453125,1.7627999782562256,0.48649999499320984,-2.875
1702297562307731700,20.376731689453123,-1.8425999879837036,-1.9537999629974365,-0.824999988079071
1702297562367731700,20.436731689453126,0.6832000017166138,2.433199882507324,-1.2669999599456787
1702297562427731700,20.496731689453124,-1.1718000173568726,3.851099967956543,1.202299952507019
1702297562487731700,20.556731689453127,1.0447999238967896,-0.8100000023841858,2.7328999042510986
1702297562547731700,20.616731689453125,-1.3840999603271484,-2.1018998622894287,1.7448999881744385
1702297562607731700,20.676731689453124,-0.42179998755455017,-2.017699956893921,1.8291000127792358
1702297562667731700,20.736731689453126,0.2467999905347824,-3.838899850845337,3.8877999782562256
1702297562727731700,20.796731689453125,3.0276999473571777,4.827199935913086,0.39719998836517334
1702297562787731700,20.856731689453124,3.883999824523926,-4.779900074005127,-7.431699752807617
1702297562847731700,20.916731689453126,-2.22979998588562,6.948299884796143,2.8513998985290527
1702297562907733200,20.976733154296873,-0.26969999074935913,-2.130199909210205,1.482699990272522
1702297562967731700,21.036731689453124,-3.3382999897003174,4.803899765014648,1.4035999774932861
1702297563027731700,21.096731689453126,-0.9000999927520752,0.7473999857902527,1.164199948310852
1702297563087731700,21.156731689453125,-1.1298999786376953,-1.9053999185562134,2.2172999382019043
1702297563147731700,21.216731689453123,0.05570000037550926,-1.3367999792099,0.23889999091625214
1702297563207731700,21.276731689453126,1.146899938583374,-0.9381999969482422,-0.7888000011444092
1702297563267731700,21.336731689453124,2.6706998348236084,-1.0576000213623047,-0.16409999132156372
1702297563327731700,21.396731689453127,-0.9186999797821045,-0.07169999927282333,-1.240399956703186
1702297563387731700,21.456731689453125,1.2767000198364258,-1.187399983406067,-2.1171998977661133
1702297563447731700,21.516731689453124,1.94760000705719,-1.309999942779541,-3.114799976348877
1702297563507731700,21.576731689453126,0.9781000018119812,-0.12349999696016312,-2.6213998794555664
1702297563567731700,21.636731689453125,1.9447999000549316,2.6533000469207764,-0.2232999950647354
1702297563627731700,21.696731689453124,1.2379000186920166,6.543699741363525,2.6957998275756836
1702297563687731700,21.756731689453126,2.0630998611450195,0.017899999395012856,0.8578000068664551
1702297563747731700,21.816731689453125,0.04969999939203262,-1.024399995803833,1.80649995803833
1702297563807731700,21.876731689453123,-0.81659996509552,-2.725800037384033,1.1227999925613403
1702297563867731700,21.936731689453126,0.8310999870300293,-4.386600017547607,4.910299777984619
1702297563927731700,21.996731689453124,2.2920000553131104,-0.6550999879837036,2.6782000064849854
1702297563987731700,22.056731689453127,2.530900001525879,-2.05049991607666,-11.863299369812012
1702297564047731700,22.116731689453125,2.4802000522613525,0.02239999920129776,1.5780999660491943
1702297564107731700,22.176731689453124,-2.9104998111724854,7.113699913024902,5.32859992980957
1702297564167731700,22.236731689453126,-2.3910999298095703,0.05209999904036522,1.0907000303268433
1702297564227731700,22.296731689453125,-2.0922000408172607,1.444700002670288,0.2733999788761139
1702297564287731700,22.356731689453124,0.7407000064849854,-1.3522999286651611,0.5135999917984009
1702297564347731700,22.416731689453126,-0.7918999791145325,-1.698699951171875,2.5864999294281006
1702297564407731700,22.476731689453125,0.5006999969482422,-0.6743999719619751,0.41179999709129333
1702297564467731700,22.536731689453124,3.8023998737335205,-1.219599962234497,-1.6460999250411987
1702297564527731700,22.596731689453126,2.148200035095215,-0.8905999660491943,-2.2860000133514404
1702297564587731700,22.656731689453125,1.1419999599456787,-0.38269999623298645,-2.059999942779541
1702297564647731700,22.716731689453123,1.646299958229065,-0.8950999975204468,-3.3777999877929688
1702297564707731700,22.776731689453126,-0.02459999918937683,-1.3288999795913696,-0.6141999959945679
1702297564767731700,22.836731689453124,-0.6268999576568604,3.6445999145507812,-2.989799976348877
1702297564827731700,22.896731689453127,0.3901999890804291,7.1992998123168945,2.2286999225616455
1702297564887731700,22.956731689453125,0.8783999681472778,-0.9801999926567078,2.5419998168945312
1702297564947731700,23.016731689453124,-1.5125999450683594,-2.4976999759674072,2.9896998405456543
1702297565007731700,23.076731689453126,0.019899999722838402,-3.96209979057312,1.7768999338150024
1702297565067731700,23.136731689453125,-0.30869999527931213,-3.632699966430664,4.419699668884277
1702297565127731700,23.196731689453124,4.470900058746338,4.433000087738037,-5.895299911499023
1702297565187731700,23.256731689453126,4.194900035858154,-3.898099899291992,0.675000011920929
1702297565247731700,23.316731689453125,-3.5114998817443848,7.891599655151367,1.3361999988555908
1702297565307731700,23.376731689453123,-2.43149995803833,-0.016499999910593033,1.7500998973846436
1702297565367731700,23.436731689453126,-3.412099838256836,1.9322999715805054,1.735700011253357
1702297565427731700,23.496731689453124,0.9442999958992004,-1.174399971961975,0.3840000033378601
1702297565487731700,23.556731689453127,-1.0687999725341797,-2.7822999954223633,2.257200002670288
1702297565547731700,23.616731689453125,1.0267000198364258,-0.10379999876022339,-0.5389999747276306
1702297565607731700,23.676731689453124,2.392699956893921,-1.5200999975204468,-0.5203999876976013
1702297565667731700,23.736731689453126,-0.36959999799728394,-0.6426999568939209,-1.232800006866455
1702297565727731700,23.796731689453125,0.524899959564209,-0.43059998750686646,-2.3518998622894287
1702297565787731700,23.856731689453124,0.6994999647140503,-0.9781999588012695,-2.8271000385284424
1702297565847731700,23.916731689453126,0.3360999822616577,-0.47419998049736023,-1.0627999305725098
1702297565907731700,23.976731689453125,-0.16589999198913574,3.4196999073028564,-2.6514999866485596
1702297565967731700,24.036731689453124,1.3238999843597412,6.157399654388428,1.8391999006271362
1702297566027731700,24.096731689453126,1.239799976348877,-1.4614999294281006,2.093400001525879
1702297566087731700,24.156731689453125,-1.7009999752044678,-1.0369999408721924,1.6003999710083008
1702297566147731700,24.216731689453123,-0.8579999804496765,-1.9194999933242798,2.8984999656677246
1702297566207731700,24.276731689453126,-1.112299919128418,-1.0865999460220337,5.072999954223633
1702297566267731700,24.336731689453124,1.0687999725341797,2.335899829864502,2.045099973678589
1702297566327731700,24.396731689453127,1.7032999992370605,-3.4594998359680176,-4.941799640655518
1702297566387731700,24.456731689453125,-0.46949997544288635,-0.6040999889373779,3.309799909591675
1702297566447731700,24.516731689453124,0.1428000032901764,7.468899726867676,-1.9636999368667603
1702297566507731700,24.576731689453126,-3.681199789047241,-6.677700042724609,-9.883399963378906
1702297566567731700,24.636731689453125,1.9600999355316162,0.6527000069618225,2.560299873352051
1702297566627731700,24.696731689453124,-1.418299913406372,2.0288000106811523,1.2502999305725098
1702297566687731700,24.756731689453126,0.6175999641418457,-1.0506999492645264,0.5521999597549438
1702297566747731700,24.816731689453125,0.30649998784065247,-0.5020999908447266,-0.45569998025894165
1702297566807731700,24.876731689453123,0.8130999803543091,-1.4163999557495117,-0.8394999504089355
1702297566867731700,24.936731689453126,3.1335999965667725,-1.5058999061584473,-0.9354999661445618
1702297566927731700,24.996731689453124,2.1153998374938965,-0.67249995470047,-0.42899999022483826
1702297566987731700,25.056731689453127,1.2380999326705933,0.24740000069141388,-1.772499918937683
1702297567047731700,25.116731689453125,0.271699994802475,1.4103999137878418,-2.7505998611450195
1702297567107731700,25.176731689453124,-1.1621999740600586,-0.5473999977111816,-0.3012999892234802
1702297567167731700,25.236731689453126,2.100800037384033,2.968899965286255,-2.6370999813079834
1702297567227731700,25.296731689453125,-0.36809998750686646,3.046299934387207,1.7391999959945679
1702297567287731700,25.356731689453124,1.4287999868392944,-1.89329993724823,2.1366000175476074
1702297567347731700,25.416731689453126,-0.7156999707221985,-1.5762999057769775,1.303399920463562
1702297567407731700,25.476731689453125,-0.5884000062942505,-1.5338999032974243,2.3596999645233154
1702297567467731700,25.536731689453124,-0.06599999964237213,-3.938499927520752,3.923499822616577
1702297567527731700,25.596731689453126,5.349499702453613,5.508800029754639,-2.3576998710632324
1702297567587731700,25.656731689453125,3.1387999057769775,-3.4385998249053955,-1.0145000219345093
1702297567647731700,25.716731689453123,-0.6943999528884888,2.373800039291382,0.2874999940395355
1702297567707731700,25.776731689453126,-3.665599822998047,4.682499885559082,1.7160999774932861
1702297567767731700,25.836731689453124,-1.8145999908447266,-0.007499999832361937,1.9775999784469604
1702297567827731700,25.896731689453127,-0.9496999979019165,1.0751999616622925,0.9598000049591064
1702297567887731700,25.956731689453125,1.218999981880188,-1.6949999332427979,1.1826999187469482
1702297567947731700,26.016731689453124,-1.6310999393463135,-0.6859999895095825,1.296199917793274
1702297568007731700,26.076731689453126,3.1582000255584717,-1.2896000146865845,-1.6983000040054321
1702297568067731700,26.136731689453125,1.923799991607666,-1.750599980354309,-1.2839999198913574
1702297568127731700,26.196731689453124,1.0709999799728394,1.0299999713897705,-1.34499990940094
1702297568187731700,26.256731689453126,2.100800037384033,0.054899998009204865,-1.602199912071228
1702297568247731700,26.316731689453125,1.4510999917984009,-0.6491000056266785,-4.73799991607666
1702297568307731700,26.376731689453123,-2.2616000175476074,-0.7475000023841858,-0.9455999732017517
1702297568367731700,26.436731689453126,0.17949999868869781,4.171899795532227,-0.578499972820282
1702297568427731700,26.496731689453124,0.7777999639511108,2.20770001411438,1.875599980354309
1702297568487731700,26.556731689453127,-0.09200000017881393,-2.300999879837036,2.2239999771118164
1702297568547731700,26.616731689453125,-1.6132999658584595,-2.802299976348877,0.1930999904870987
1702297568607731700,26.676731689453124,-0.7405999898910522,-1.9246000051498413,4.349599838256836
1702297568667731700,26.736731689453126,1.392899990081787,-0.1404999941587448,3.0752999782562256
1702297568727731700,26.796731689453125,-0.5587999820709229,-0.81659996509552,-4.867300033569336
1702297568787731700,26.856731689453124,2.3488998413085938,-0.39010000228881836,-2.7200000286102295
1702297568847731700,26.916731689453126,-1.469099998474121,6.554599761962891,2.085099935531616
1702297568907731700,26.976731689453125,-3.885499954223633,-0.9865999817848206,1.8133000135421753
1702297568967731700,27.036731689453124,-1.9728999137878418,2.8362998962402344,2.60479998588562
1702297569027731700,27.096731689453126,3.017899990081787,-1.5643999576568604,0.9337999820709229
1702297569087731700,27.156731689453125,-1.3294999599456787,-2.352799892425537,1.4490000009536743
1702297569147731700,27.216731689453123,-1.0216000080108643,-1.0289000272750854,-1.1419999599456787
1702297569207731700,27.276731689453126,3.015899896621704,-1.1139999628067017,-1.3269000053405762
1702297569267731700,27.336731689453124,1.9213999509811401,-0.07819999754428864,-1.6160999536514282
1702297569327731700,27.396731689453127,1.695199966430664,0.23309999704360962,-1.1121000051498413
1702297569387731700,27.456731689453125,1.1399999856948853,1.199299931526184,-2.9308998584747314
1702297569447731700,27.516731689453124,-0.26089999079704285,-0.5543999671936035,-0.43719998002052307
1702297569507731700,27.576731689453126,0.9945999979972839,5.251999855041504,-1.5566999912261963
1702297569567731700,27.636731689453125,0.9864999651908875,2.6113998889923096,2.9754998683929443
1702297569627731700,27.696731689453124,0.2848999798297882,-2.243499994277954,3.32289981842041
1702297569687731700,27.756731689453126,-1.107100009918213,-2.450399875640869,0.6200000047683716
1702297569747731700,27.816731689453125,-0.3148999810218811,-3.9430999755859375,2.54229998588562
1702297569807731700,27.876731689453123,2.069399833679199,1.0822999477386475,3.3666999340057373
1702297569867731700,27.936731689453126,0.8508999943733215,-3.026399850845337,-7.278299808502197
1702297569927731700,27.996731689453124,-0.8551999926567078,2.726799964904785,-2.1812000274658203
1702297569987731700,28.056731689453127,1.577199935913086,5.242300033569336,4.707099914550781
1702297570047731700,28.116731689453125,-3.662599802017212,1.9260998964309692,2.088399887084961
1702297570107731700,28.176731689453124,-0.8966999650001526,1.791599988937378,1.285099983215332
1702297570167731700,28.236731689453126,1.288699984550476,-1.9383999109268188,1.312399983406067
1702297570227731700,28.296731689453125,-0.5733000040054321,-0.661899983882904,1.6710999011993408
1702297570287731700,28.356731689453124,1.9168999195098877,-1.042099952697754,-1.31059992313385
1702297570347731700,28.416731689453126,2.083199977874756,-2.2509000301361084,-1.045799970626831
1702297570407731700,28.476731689453125,-0.3893999755382538,-0.1631999909877777,-0.6642999649047852
1702297570467731700,28.536731689453124,2.2109999656677246,-0.026499999687075615,-2.1865999698638916
1702297570527731700,28.596731689453126,1.9114999771118164,-1.2185999155044556,-5.258199691772461
1702297570587731700,28.656731689453125,-0.38089999556541443,1.5153999328613281,-0.9583999514579773
1702297570647731700,28.716731689453123,-1.8834999799728394,4.592599868774414,0.26489999890327454
1702297570707731700,28.776731689453126,3.0882999897003174,2.9175000190734863,1.0865999460220337
1702297570767731700,28.836731689453124,1.458299994468689,-1.8120999336242676,2.2112998962402344
1702297570827731700,28.896731689453127,-0.885699987411499,-2.3339998722076416,1.824199914932251
1702297570887731700,28.956731689453125,-0.6653000116348267,-0.7112999558448792,2.1498000621795654
1702297570947731700,29.016731689453124,0.1469999998807907,-1.9835999011993408,4.521899700164795
1702297571007731700,29.076731689453126,1.6516999006271362,0.11389999836683273,1.5687999725341797
1702297571067731700,29.136731689453125,2.083899974822998,-2.437199831008911,-5.869999885559082
1702297571127731700,29.196731689453124,-1.8413000106811523,5.732199668884277,-0.8447999954223633
1702297571187731700,29.256731689453126,3.0804998874664307,0.2928999960422516,4.903899669647217
1702297571247731700,29.316731689453125,-4.035799980163574,2.2540998458862305,0.7389999628067017
1702297571307731700,29.376731689453123,1.153999924659729,0.5593999624252319,1.3406000137329102
1702297571367731700,29.436731689453126,0.31619998812675476,-2.204900026321411,1.445199966430664
1702297571427731700,29.496731689453124,-0.2223999947309494,-0.34139999747276306,0.27309998869895935
1702297571487731700,29.556731689453127,1.6204999685287476,-1.4208999872207642,-1.4630999565124512
1702297571547731700,29.616731689453125,4.413599967956543,-2.297299861907959,-1.777999997138977
1702297571607731700,29.676731689453124,0.307699978351593,-0.18019999563694,-1.1407999992370605
1702297571667731700,29.736731689453126,1.8148999214172363,0.6446999907493591,-1.0656999349594116
1702297571727731700,29.796731689453125,1.6901999711990356,0.436599999666214,-3.327199935913086
1702297571787731700,29.856731689453124,1.3966999053955078,0.5220000147819519,-0.15410000085830688
1702297571847731700,29.916731689453126,-1.5777000188827515,2.827899932861328,-2.002699851989746
1702297571907731700,29.976731689453125,2.707399845123291,4.972300052642822,0.5292999744415283
1702297571967731700,30.036731689453124,0.3158999979496002,-1.1729999780654907,3.225399971008301
1702297572027731700,30.096731689453126,-1.2644000053405762,-1.9463999271392822,1.9901999235153198
1702297572087731700,30.156731689453125,-0.14100000262260437,-2.638399839401245,2.2742998600006104
1702297572147731700,30.216731689453123,-0.6875,-4.052299976348877,4.131099700927734
1702297572207731700,30.276731689453126,5.951499938964844,6.82889986038208,-2.457200050354004
1702297572267731700,30.336731689453124,3.600799798965454,-5.223999977111816,-2.9535000324249268
1702297572327731700,30.396731689453127,-1.0805000066757202,4.82889986038208,-0.20479999482631683
1702297572387731700,30.456731689453125,-1.458799958229065,1.7804999351501465,3.415299892425537
1702297572447731700,30.516731689453124,-3.6656999588012695,0.4034000039100647,0.10099999606609344
1702297572507731700,30.576731689453126,2.3980000019073486,2.6089999675750732,-0.3504999876022339
1702297572567731700,30.636731689453125,-0.4542999863624573,-2.6768999099731445,1.5518999099731445
1702297572627731700,30.696731689453124,-3.3813998699188232,0.21199999749660492,3.3862998485565186
1702297572687731700,30.756731689453126,2.807799816131592,-0.792199969291687,-2.344399929046631
1702297572747731700,30.816731689453125,3.1155998706817627,-2.6791000366210938,-1.9132999181747437
1702297572807731700,30.876731689453123,1.615399956703186,0.21729999780654907,-1.6751999855041504
1702297572867731700,30.936731689453126,1.9006999731063843,0.5871999859809875,-0.4293999969959259
1702297572927731700,30.996731689453124,0.4603999853134155,-0.8984999656677246,-2.9738998413085938
1702297572987731700,31.056731689453127,-0.3199000060558319,-1.1585999727249146,-2.134899854660034
1702297573047731700,31.116731689453125,0.47909998893737793,5.51639986038208,-1.9430999755859375
1702297573107731700,31.176731689453124,1.6836999654769897,3.3533999919891357,2.493799924850464
1702297573167731700,31.236731689453126,0.35179999470710754,-2.1613998413085938,2.878499984741211
1702297573227731700,31.296731689453125,-1.914099931716919,-3.2407000064849854,0.0843999981880188
1702297573287731700,31.356731689453124,-0.8531000018119812,-2.6663999557495117,3.6589999198913574
1702297573347731700,31.416731689453126,-1.1858999729156494,-1.9332000017166138,6.080100059509277
1702297573407731700,31.476731689453125,4.114599704742432,2.788300037384033,-6.050999641418457
1702297573467731700,31.536731689453124,3.1115000247955322,0.9700999855995178,-2.272599935531616
1702297573527731700,31.596731689453126,-1.1690999269485474,3.53059983253479,1.945099949836731
1702297573587731700,31.656731689453125,-2.6887998580932617,-2.4509999752044678,3.234999895095825
1702297573647731700,31.716731689453123,-4.060699939727783,6.8917999267578125,3.650399923324585
1702297573707731700,31.776731689453126,3.961899995803833,-1.8859999179840088,-0.6216999888420105
1702297573767731700,31.836731689453124,-1.1506999731063843,-3.4704999923706055,0.6746000051498413
1702297573827731700,31.896731689453127,-1.706399917602539,-0.6412999629974365,-0.004999999888241291
1702297573887731700,31.956731689453125,3.1882998943328857,-1.0329999923706055,-0.8244999647140503
1702297573947731700,32.016731689453124,2.1140999794006348,-1.6411999464035034,-0.49779999256134033
1702297574007731700,32.076731689453126,1.8605999946594238,1.4009000062942505,-2.0536999702453613
1702297574067731700,32.13673168945313,0.8068000078201294,0.4375,-2.629999876022339
1702297574127731700,32.196731689453124,2.3046998977661133,-0.7450999617576599,-2.336099863052368
1702297574187731700,32.256731689453126,0.10539999604225159,2.7182998657226562,-0.7466999888420105
1702297574247731700,32.31673168945313,2.499799966812134,8.281299591064453,3.896399974822998
1702297574307731700,32.37673168945312,1.5877999067306519,-1.5306999683380127,1.5231999158859253
1702297574367731700,32.436731689453126,-1.0844999551773071,-2.861799955368042,3.053999900817871
1702297574427731700,32.49673168945313,-0.3384999930858612,-2.1146998405456543,0.6775999665260315
1702297574487731700,32.55673168945312,0.69159996509552,-2.547499895095825,4.8125
1702297574547731700,32.616731689453125,3.7157998085021973,2.474799871444702,-0.18230000138282776
1702297574607731700,32.67673168945313,5.066099643707275,-4.5706000328063965,-5.986700057983398
1702297574667731700,32.73673168945312,-1.6678999662399292,5.980199813842773,-0.18879999220371246
1702297574727731700,32.796731689453125,0.9429000020027161,-0.0885000005364418,3.178499937057495
1702297574787759900,32.856759765625,-3.4756999015808105,3.1877999305725098,1.6090999841690063
1702297574847731700,32.91673168945312,1.6416000127792358,0.6367999911308289,1.205199956893921
1702297574907731700,32.976731689453125,-0.11050000041723251,-2.089099884033203,1.409500002861023
1702297574967731700,33.03673168945313,0.789900004863739,-0.8920999765396118,0.5831999778747559
1702297575027731700,33.09673168945312,2.0165998935699463,-1.3041999340057373,-1.7310999631881714
1702297575087731700,33.156731689453125,2.682499885559082,-1.7719999551773071,-1.7431999444961548
1702297575147731700,33.21673168945313,0.9583999514579773,0.15429998934268951,-1.0782999992370605
1702297575207731700,33.27673168945312,0.6408999562263489,1.5827000141143799,-2.7610998153686523
1702297575267731700,33.336731689453124,3.1643998622894287,-0.10949999839067459,-3.0444998741149902
1702297575327731700,33.39673168945313,-2.7333998680114746,0.5360999703407288,1.2867000102996826
1702297575387731700,33.45673168945312,1.5097999572753906,3.6689000129699707,-0.19460000097751617
1702297575447731700,33.516731689453124,0.28919997811317444,3.5802998542785645,2.5434000492095947
1702297575507731700,33.576731689453126,1.829699993133545,-2.241499900817871,1.7936999797821045
1702297575567731700,33.63673168945313,-1.1196999549865723,-2.6698999404907227,1.4678000211715698
1702297575627731700,33.696731689453124,0.4348999857902527,-2.712399959564209,2.8008999824523926
1702297575687731700,33.756731689453126,2.808499813079834,-3.068699836730957,2.5051000118255615
1702297575747731700,33.81673168945313,4.335899829864502,0.11599999666213989,-5.386399745941162
1702297575807760000,33.876759765625,2.443199872970581,-0.3544999957084656,0.7971999645233154
1702297575867731700,33.936731689453126,1.5683000087738037,2.7391998767852783,1.636699914932251
1702297575927731700,33.99673168945313,-1.643799901008606,1.9347999095916748,1.142799973487854
1702297575987731700,34.05673168945312,-3.3401999473571777,0.1356000006198883,1.3295999765396118
1702297576047731700,34.116731689453125,-0.2003999948501587,0.8163999915122986,0.23989999294281006
1702297576107731700,34.17673168945313,1.2645999193191528,-2.184299945831299,0.5947999954223633
1702297576167731700,34.23673168945312,-3.525099992752075,-0.20919999480247498,1.4101999998092651
1702297576227731700,34.296731689453125,2.5419998168945312,-1.5887999534606934,-0.8288999795913696
1702297576287731700,34.35673168945313,3.221400022506714,-1.1305999755859375,-0.4702000021934509
1702297576347731700,34.41673168945312,1.4180999994277954,-0.17509999871253967,-2.415099859237671
1702297576407731700,34.476731689453125,3.0276999473571777,-0.45829999446868896,-1.7865999937057495
1702297576467731700,34.53673168945313,1.2062000036239624,-0.4681999981403351,-3.5341999530792236
1702297576527731700,34.59673168945312,-0.47259998321533203,-0.9904999732971191,-3.5695998668670654
1702297576587731700,34.656731689453125,-0.9164999723434448,1.9580999612808228,-1.5643999576568604
1702297576647731700,34.71673168945313,0.39659997820854187,6.809999942779541,1.6234999895095825
1702297576707731700,34.77673168945312,1.9190999269485474,-0.8378999829292297,1.5245999097824097
1702297576767731700,34.836731689453124,-2.2258999347686768,-2.4526000022888184,2.811699867248535
1702297576827731700,34.89673168945313,-0.8611999750137329,-2.264400005340576,1.2477999925613403
1702297576887731700,34.95673168945312,0.4626999795436859,-2.2509000301361084,4.298399925231934
1702297576947731700,35.016731689453124,7.964999675750732,3.7849998474121094,0.12549999356269836
1702297577007731700,35.076731689453126,0.9448999762535095,-6.304800033569336,-3.7797999382019043
1702297577067731700,35.13673168945313,-2.8200998306274414,8.764800071716309,-0.9968999624252319
1702297577127731700,35.196731689453124,1.5484999418258667,-3.7991998195648193,0.6879000067710876
1702297577187731700,35.256731689453126,-5.002199649810791,4.514800071716309,1.56059992313385
1702297577247731700,35.31673168945313,3.7592999935150146,-0.6836000084877014,0.22899998724460602
1702297577307731700,35.37673168945312,-1.1013000011444092,-2.9744999408721924,1.9250999689102173
1702297577367731700,35.436731689453126,-1.5405999422073364,-0.08619999885559082,0.6189000010490417
1702297577427731700,35.49673168945313,1.8628000020980835,-1.6279000043869019,-1.2872999906539917
1702297577487731700,35.55673168945312,2.761399984359741,-1.705899953842163,-0.6656999588012695
1702297577547731700,35.616731689453125,0.2523999810218811,0.2629999816417694,-0.7361999750137329
1702297577607731700,35.67673168945313,1.5824999809265137,0.5392000079154968,-1.3589999675750732
1702297577667731700,35.73673168945312,2.1038999557495117,-0.5008999705314636,-3.5341999530792236
1702297577727731700,35.796731689453125,-1.486899971961975,-0.5015000104904175,-0.15219999849796295
1702297577787731700,35.85673168945313,0.2857999801635742,4.532299995422363,-1.840999960899353
1702297577847731700,35.91673168945312,1.3264999389648438,3.6360998153686523,3.007200002670288
1702297577907731700,35.976731689453125,1.344599962234497,-3.018399953842163,2.4205000400543213
1702297577967731700,36.03673168945313,-0.7109000086784363,-2.5652999877929688,1.091599941253662
1702297578027731700,36.09673168945312,-0.9451999664306641,-0.8428999781608582,0.6381999850273132
1702297578087731700,36.156731689453125,-0.6642000079154968,-0.5922999978065491,5.998600006103516
1702297578147731700,36.21673168945313,7.891899585723877,2.177000045776367,1.223099946975708
1702297578207731700,36.27673168945312,0.07769999653100967,-3.056999921798706,-7.052399635314941
1702297578267733200,36.33673315429687,-0.5791999697685242,5.417399883270264,2.3957998752593994
1702297578327731700,36.39673168945313,-1.5447999238967896,-1.2208999395370483,1.6032999753952026
1702297578387731700,36.45673168945312,-2.498499870300293,5.5381999015808105,3.140899896621704
1702297578447731700,36.516731689453124,2.3931000232696533,-0.5658000111579895,0.5489999651908875
1702297578507731700,36.576731689453126,0.013399999588727951,-3.260200023651123,0.5166999697685242
1702297578567731700,36.63673168945313,-0.40459999442100525,-0.7689999938011169,-0.5676000118255615
1702297578627731700,36.696731689453124,4.412799835205078,-1.1644999980926514,-1.6680999994277954
1702297578687731700,36.756731689453126,2.006500005722046,-2.6720998287200928,-1.8519999980926514
1702297578747731700,36.81673168945313,0.6635000109672546,1.4763000011444092,-1.473699927330017
1702297578807731700,36.87673168945312,0.382999986410141,0.7057999968528748,-1.9298999309539795
1702297578867731700,36.936731689453126,3.9208998680114746,1.1516000032424927,-1.3529999256134033
1702297578927731700,36.99673168945313,0.6189000010490417,2.015699863433838,0.5428999662399292
1702297578987731700,37.05673168945312,1.6561999320983887,3.937199831008911,-0.2304999977350235
1702297579047731700,37.116731689453125,1.9286999702453613,0.6881999969482422,1.588499903678894
1702297579107731700,37.17673168945313,0.6195999979972839,-1.6346999406814575,3.2296998500823975
1702297579167731700,37.23673168945312,-0.7859999537467957,-2.7939000129699707,2.275099992752075
1702297579227731700,37.296731689453125,0.6209999918937683,-3.594599962234497,3.001499891281128
1702297579287731700,37.35673168945313,4.3852996826171875,1.3046000003814697,1.0476000308990479
1702297579347731700,37.41673168945312,1.7704999446868896,-3.369999885559082,-6.2993998527526855
1702297579407731700,37.476731689453125,0.6847999691963196,6.389999866485596,-1.2527999877929688
1702297579467731700,37.53673168945313,0.035099998116493225,-0.13840000331401825,4.394700050354004
1702297579527731700,37.59673168945312,-3.0297999382019043,1.705199956893921,1.9250999689102173
1702297579587731700,37.656731689453125,1.1079000234603882,1.3465999364852905,0.21609999239444733
1702297579647731700,37.71673168945313,0.014299999922513962,-2.901099920272827,0.6909999847412109
1702297579707731700,37.77673168945312,-0.6809999942779541,-0.9458999633789062,1.1446999311447144
1702297579767731700,37.836731689453124,1.426800012588501,-0.4729999899864197,0.12219999730587006
1702297579827731700,37.89673168945313,3.710599899291992,-1.208799958229065,-1.7566999197006226
1702297579887731700,37.95673168945312,5.201699733734131,-1.2409999370574951,-3.322700023651123
1702297579947731700,38.016731689453124,2.8046998977661133,1.6365000009536743,-0.08489999920129776
1702297580007731700,38.076731689453126,1.94159996509552,0.5755000114440918,-3.481599807739258
1702297580067731700,38.13673168945313,-1.628999948501587,0.46719998121261597,-4.314399719238281
1702297580127731700,38.196731689453124,-0.3294999897480011,5.625,-1.7193999290466309
1702297580187731700,38.256731689453126,1.4652999639511108,2.3192999362945557,3.574899911880493
1702297580247731700,38.31673168945313,-0.046699997037649155,-2.4739999771118164,2.7075998783111572
1702297580307731700,38.37673168945312,-2.076200008392334,-3.5332000255584717,3.3910999298095703
1702297580367731700,38.436731689453126,-1.3389999866485596,-2.563699960708618,3.1151998043060303
1702297580427731700,38.49673168945313,1.2609000205993652,0.7310000061988831,2.8095998764038086
1702297580487731700,38.55673168945312,2.8855998516082764,-1.3550999164581299,-4.6529998779296875
1702297580547731700,38.616731689453125,3.501499891281128,-2.5630998611450195,0.5889999866485596
1702297580607731700,38.67673168945313,-0.9615999460220337,4.613500118255615,-2.2326998710632324
1702297580667731700,38.73673168945312,-3.4921000003814697,2.129499912261963,1.2976999282836914
1702297580727731700,38.796731689453125,-0.6486999988555908,0.19039998948574066,1.8751999139785767
1702297580787731700,38.85673168945313,-1.666700005531311,0.2531999945640564,1.3708000183105469
1702297580847731700,38.91673168945312,4.5945000648498535,-2.352799892425537,0.7689999938011169
1702297580907731700,38.976731689453125,-2.1735000610351562,-1.3499000072479248,-1.355299949645996
1702297580967731700,39.03673168945313,6.355299949645996,-1.4627999067306519,-3.1933999061584473
1702297581027731700,39.09673168945312,3.134999990463257,-2.277400016784668,-1.421199917793274
1702297581087731700,39.156731689453125,0.027699999511241913,1.4144999980926514,-2.7642998695373535
1702297581147731700,39.21673168945313,1.3569999933242798,-0.942799985408783,-2.0490000247955322
1702297581207731700,39.27673168945312,2.146399974822998,-1.7519999742507935,-2.9475998878479004
1702297581267731700,39.336731689453124,0.16019999980926514,2.3437998294830322,-2.4482998847961426
1702297581327731700,39.39673168945313,0.5787000060081482,9.348099708557129,2.2853000164031982
1702297581387731700,39.45673168945312,2.3847999572753906,-0.4684000015258789,1.8738999366760254
1702297581447731700,39.516731689453124,-1.5687999725341797,-2.1517999172210693,3.5994999408721924
1702297581507731700,39.576731689453126,-0.24159999191761017,-3.9059998989105225,0.2858999967575073
1702297581567731700,39.63673168945313,0.7755999565124512,-3.9463999271392822,5.184799671173096
1702297581627731700,39.696731689453124,7.490299701690674,3.658599853515625,-0.8237999677658081
1702297581687731700,39.756731689453126,5.528599739074707,-4.3125996589660645,-3.1994998455047607
1702297581747731700,39.81673168945313,-2.0219998359680176,8.829999923706055,-0.4000999927520752
1702297581807731700,39.87673168945312,0.9111999869346619,-4.158899784088135,1.7781999111175537
1702297581867731700,39.936731689453126,-4.948299884796143,3.9671998023986816,2.080199956893921
1702297581927731700,39.99673168945313,3.0107998847961426,-0.6469999551773071,-0.8831999897956848
1702297581987731700,40.05673168945312,-0.8303999900817871,-1.9907000064849854,2.1273000240325928
1702297582047731700,40.116731689453125,-0.1939999908208847,-0.07009999454021454,0.39169999957084656
1702297582107731700,40.17673168945313,1.3222999572753906,-1.7870999574661255,-1.0454000234603882
1702297582167731700,40.23673168945312,2.7328999042510986,-1.6542999744415283,-0.5382999777793884
1702297582227731700,40.296731689453125,0.9323999881744385,-0.9469999670982361,-1.3686000108718872
1702297582287731700,40.35673168945313,1.468999981880188,0.44099998474121094,-1.1674000024795532
1702297582347731700,40.41673168945312,1.6942999362945557,-0.45419999957084656,-2.660599946975708
1702297582407731700,40.476731689453125,2.2035000324249268,-0.30660000443458557,-4.749499797821045
1702297582467731700,40.53673168945313,-0.22789999842643738,1.6322999000549316,-2.411099910736084
1702297582527731700,40.59673168945312,1.694000005722046,7.973099708557129,2.873499870300293
1702297582587731700,40.656731689453125,1.0712000131607056,-1.1576999425888062,2.245800018310547
1702297582647731700,40.71673168945313,-1.2096999883651733,-2.454399824142456,3.3759000301361084
1702297582707731700,40.77673168945312,-0.32850000262260437,-3.004999876022339,-0.2529999911785126
1702297582767731700,40.836731689453124,0.0575999990105629,-3.9808998107910156,4.298699855804443
1702297582827731700,40.89673168945313,5.40339994430542,2.0595998764038086,0.9680999517440796
1702297582887731700,40.95673168945312,4.709499835968018,-3.368299961090088,-5.303699970245361
1702297582947731700,41.016731689453124,-4.592099666595459,4.242199897766113,2.448899984359741
1702297583007731700,41.076731689453126,-1.6662999391555786,-2.3773000240325928,2.0176000595092773
1702297583067731700,41.13673168945313,-2.9672999382019043,9.142199516296387,3.5697999000549316
1702297583127731700,41.196731689453124,0.016099998727440834,-1.166700005531311,0.006199999712407589
1702297583187731700,41.256731689453126,-0.40059998631477356,-2.969399929046631,1.6693999767303467
1702297583247731700,41.31673168945313,0.49459999799728394,-1.3120999336242676,-0.1793999969959259
1702297583307731700,41.37673168945312,1.9644999504089355,-1.0104999542236328,-0.6531999707221985
1702297583367731700,41.436731689453126,2.66159987449646,-1.6811999082565308,-1.0684000253677368
1702297583427731700,41.49673168945313,2.722599983215332,0.7166999578475952,-3.2592999935150146
1702297583487731700,41.55673168945312,1.4019999504089355,-0.2557999789714813,-2.515199899673462
1702297583547731700,41.616731689453125,2.1031999588012695,-0.8524999618530273,-2.8401999473571777
1702297583607731700,41.67673168945313,-0.9228000044822693,1.3019999265670776,-2.636199951171875
1702297583667731700,41.73673168945312,3.4047999382019043,10.026299476623535,0.4845999777317047
1702297583727731700,41.796731689453125,1.6225999593734741,-0.023000000044703484,3.034600019454956
1702297583787731700,41.85673168945313,-0.367499977350235,-2.871299982070923,3.48799991607666
1702297583847731700,41.91673168945312,-1.233299970626831,-3.0007998943328857,-0.08479999750852585
1702297583907731700,41.976731689453125,-0.3804999887943268,-2.902599811553955,4.39739990234375
1702297583967731700,42.03673168945313,5.029399871826172,2.448499917984009,2.025899887084961
1702297584027731700,42.09673168945312,0.7009999752044678,-5.116199970245361,-6.717499732971191
1702297584087731700,42.156731689453125,-2.931999921798706,5.466099739074707,-0.02979999966919422
1702297584147731700,42.21673168945313,4.297399997711182,0.8282999992370605,1.2445999383926392
1702297584207731700,42.27673168945312,-4.681099891662598,4.324199676513672,3.7407000064849854
1702297584267731700,42.336731689453124,-1.0020999908447266,0.6685000061988831,2.324399948120117
1702297584327731700,42.39673168945313,2.075500011444092,-2.851599931716919,0.4324999749660492
1702297584387731700,42.45673168945312,0.8869999647140503,-2.5645999908447266,-0.9530999660491943
1702297584447731700,42.516731689453124,2.792099952697754,-0.23169998824596405,0.043299999088048935
1702297584507731700,42.576731689453126,1.889299988746643,-1.8411999940872192,-0.9717999696731567
1702297584567731700,42.63673168945313,1.4096999168395996,0.241799995303154,-2.2094998359680176
1702297584627731700,42.696731689453124,1.4685999155044556,-0.2222999930381775,-0.7290999889373779
1702297584687731700,42.756731689453126,1.8097000122070312,1.473599910736084,-3.5952999591827393
1702297584747731700,42.81673168945313,0.665399968624115,-0.24169999361038208,-1.01419997215271
1702297584807731700,42.87673168945312,3.0755999088287354,8.270699501037598,-0.23849999904632568
1702297584867731700,42.936731689453126,1.0194000005722046,1.069000005722046,3.6021997928619385
1702297584927731700,42.99673168945313,0.79749995470047,-2.4595999717712402,2.8372998237609863
1702297584987731700,43.05673168945312,-1.4459999799728394,-3.2119998931884766,1.9326999187469482
1702297585047731700,43.116731689453125,0.2921999990940094,-3.7144999504089355,2.9642999172210693
1702297585107731700,43.17673168945313,2.948199987411499,1.6100999116897583,2.030400037765503
1702297585167731700,43.23673168945312,1.8092999458312988,-4.124599933624268,-7.001899719238281
1702297585227731700,43.296731689453125,0.23029999434947968,-1.9391999244689941,1.9336999654769897
1702297585287731700,43.35673168945313,-2.2625999450683594,9.97130012512207,1.1358000040054321
1702297585347731700,43.41673168945312,-2.260200023651123,0.7804999947547913,3.289299964904785
1702297585407731700,43.476731689453125,-2.489500045776367,-0.7412999868392944,0.649899959564209
1702297585467731700,43.53673168945313,0.7091999650001526,-0.5525999665260315,0.32999998331069946
1702297585527731700,43.59673168945312,0.8301999568939209,-2.727099895477295,2.3740999698638916
1702297585587731700,43.656731689453125,2.58489990234375,-0.42489999532699585,-2.1659998893737793
1702297585647731700,43.71673168945313,1.5587999820709229,-2.17579984664917,-2.6728999614715576
1702297585707731700,43.77673168945312,1.3049999475479126,-0.5866000056266785,-2.3023998737335205
1702297585767731700,43.836731689453124,1.9391999244689941,-0.5717999935150146,-1.3306000232696533
1702297585827731700,43.89673168945313,0.8707999587059021,-0.7342999577522278,-1.9057999849319458
1702297585887731700,43.95673168945312,1.1454999446868896,0.674299955368042,-3.390199899673462
1702297585947731700,44.016731689453124,0.32839998602867126,9.955699920654297,-1.6287000179290771
1702297586007731700,44.076731689453126,2.5844998359680176,-0.0674000009894371,1.94159996509552
1702297586067731700,44.13673168945313,-1.0504999160766602,-2.8701000213623047,3.0939998626708984
1702297586127731700,44.196731689453124,-1.7705999612808228,-2.724599838256836,1.8903999328613281
1702297586187731700,44.256731689453126,-0.19519999623298645,-3.3889999389648438,5.524699687957764
1702297586247731700,44.31673168945313,4.626999855041504,3.214900016784668,2.404599905014038
1702297586307731700,44.37673168945312,-1.8312000036239624,-5.440199851989746,-7.563799858093262
1702297586367731700,44.436731689453126,-0.3871999979019165,2.657599925994873,-1.404599905014038
1702297586427731700,44.49673168945313,0.7085999846458435,6.417299747467041,4.830399990081787
1702297586487731700,44.55673168945312,-2.210700035095215,2.435299873352051,3.0264999866485596
1702297586547731700,44.616731689453125,-1.3646999597549438,1.0698000192642212,2.3536999225616455
1702297586607731700,44.67673168945313,2.9457998275756836,-2.1089999675750732,1.0392999649047852
1702297586667731700,44.73673168945312,0.19110000133514404,-2.219899892807007,0.6922000050544739
1702297586727731700,44.796731689453125,4.056999683380127,-1.1230000257492065,-2.936699867248535
1702297586787801900,44.8568017578125,2.017400026321411,-2.5364999771118164,-2.601099967956543
1702297586847731700,44.91673168945312,0.9299999475479126,0.8513999581336975,-1.76010000705719
1702297586907731700,44.976731689453125,-0.0026000000070780516,0.833899974822998,-0.8822999596595764
1702297586967731700,45.03673168945313,3.0576000213623047,-0.6226999759674072,-2.090399980545044
1702297587027731700,45.09673168945312,-0.2368999868631363,2.2846999168395996,-2.2502999305725098
1702297587087731700,45.156731689453125,1.4508999586105347,7.289700031280518,0.4350000023841858
1702297587147731700,45.21673168945313,2.4105000495910645,-0.7889999747276306,2.947999954223633
1702297587207731700,45.27673168945312,-0.8533999919891357,-2.6756999492645264,3.768199920654297
1702297587267731700,45.336731689453124,0.46959999203681946,-3.1262998580932617,-0.06369999796152115
1702297587327731700,45.39673168945313,1.9204999208450317,-2.6875998973846436,4.25629997253418
1702297587387731700,45.45673168945312,4.384200096130371,1.9845999479293823,-4.825799942016602
1702297587447731700,45.516731689453124,1.6442999839782715,-5.96589994430542,0.09529999643564224
1702297587507731700,45.576731689453126,-4.0991997718811035,7.343099594116211,-3.1113998889923096
1702297587567731700,45.63673168945313,-2.0737998485565186,0.09030000120401382,0.3025999963283539
1702297587627731700,45.696731689453124,-3.178299903869629,-0.10989999771118164,3.66729998588562
1702297587687731700,45.756731689453126,-1.2853999137878418,1.6828999519348145,0.9361000061035156
1702297587747731700,45.81673168945313,0.9103999733924866,-2.8748998641967773,2.5700998306274414
1702297587807731700,45.87673168945312,-3.1359000205993652,-0.7468999624252319,0.41179999709129333
1702297587867731700,45.936731689453126,4.401899814605713,-0.8389999866485596,-2.0248000621795654
1702297587927731700,45.99673168945313,3.639699935913086,-0.5605999827384949,-2.787899971008301
1702297587987731700,46.05673168945312,1.316499948501587,-0.18529999256134033,-2.6847000122070312
1702297588047731700,46.116731689453125,2.279099941253662,0.3880999982357025,-3.7122998237609863
1702297588107731700,46.17673168945313,0.9357999563217163,0.6193000078201294,-1.4479999542236328
1702297588167731700,46.23673168945312,-0.014999999664723873,6.283199787139893,-2.1768999099731445
1702297588227731700,46.296731689453125,3.4313998222351074,1.472100019454956,1.1055999994277954
1702297588287731700,46.35673168945313,-0.617900013923645,-2.2774999141693115,3.1821999549865723
1702297588347731700,46.41673168945312,-1.455899953842163,-3.2243998050689697,2.7690999507904053
1702297588407731700,46.476731689453125,-0.7184000015258789,-2.957199811935425,4.150300025939941
1702297588467731700,46.53673168945313,3.301299810409546,1.6965999603271484,1.246999979019165
1702297588527731700,46.59673168945312,-0.179299995303154,-4.8954997062683105,-6.527199745178223
1702297588587731700,46.656731689453125,1.7160999774932861,4.335599899291992,-1.611199975013733
1702297588647731700,46.71673168945313,-0.0949999988079071,0.708299994468689,2.173099994659424
1702297588707731700,46.77673168945312,-4.289599895477295,1.271799921989441,1.1704999208450317
1702297588767731700,46.836731689453124,-1.7006999254226685,1.5898000001907349,1.2990000247955322
1702297588827731700,46.89673168945313,3.058799982070923,-2.2060999870300293,0.22179999947547913
1702297588887731700,46.95673168945312,-2.2851998805999756,-2.3025999069213867,1.6766999959945679
1702297588947731700,47.016731689453124,3.059199810028076,-0.5834000110626221,-0.5791000127792358
1702297589007731700,47.076731689453126,2.4687998294830322,-1.6064999103546143,-0.7945999503135681
1702297589067731700,47.13673168945313,1.6750999689102173,-0.15559999644756317,-2.2089998722076416
1702297589127731700,47.196731689453124,2.6233999729156494,0.6862999796867371,-1.230199933052063
1702297589187731700,47.256731689453126,1.1208999156951904,-0.5019999742507935,-2.710099935531616
1702297589247731700,47.31673168945313,0.7181999683380127,-0.16749998927116394,-2.005199909210205
1702297589307731700,47.37673168945312,0.5781999826431274,6.308599948883057,-1.8797999620437622
1702297589367731700,47.436731689453126,2.6747000217437744,1.180400013923645,0.9786999821662903
1702297589427731700,47.49673168945313,-0.44669997692108154,-2.602599859237671,3.5757999420166016
1702297589487731700,47.55673168945312,-0.7726999521255493,-3.105799913406372,1.5642999410629272
1702297589547731700,47.616731689453125,-0.8003000020980835,-2.810499906539917,3.7331998348236084
1702297589607731700,47.67673168945313,3.084199905395508,1.9109998941421509,2.3787999153137207
1702297589667731700,47.73673168945312,1.3021999597549438,-3.7431998252868652,-7.284299850463867
1702297589727731700,47.796731689453125,0.670799970626831,1.5942999124526978,-1.7221999168395996
1702297589787731700,47.85673168945313,-0.8783999681472778,8.165999412536621,4.80649995803833
1702297589847731700,47.91673168945312,-2.9258999824523926,0.3278999924659729,2.0291998386383057
1702297589907731700,47.976731689453125,-1.3083000183105469,0.9953999519348145,0.8215000033378601
1702297589967731700,48.03673168945313,1.344099998474121,-1.305299997329712,1.455199956893921
1702297590027731700,48.09673168945312,-0.39100000262260437,-1.3945999145507812,2.63349986076355
1702297590087731700,48.156731689453125,3.848299980163574,-1.1116999387741089,-2.3004000186920166
1702297590147731700,48.21673168945313,3.3827998638153076,-1.7746999263763428,-1.9709999561309814
1702297590207731700,48.27673168945312,0.4846999943256378,-0.07819999754428864,-1.0414999723434448
1702297590267731700,48.336731689453124,1.7669999599456787,1.1204999685287476,-1.9391999244689941
1702297590327731700,48.39673168945313,-0.16529999673366547,-0.32089999318122864,-0.9301999807357788
1702297590387731700,48.45673168945312,0.3545999825000763,3.6584999561309814,-0.47679999470710754
1702297590447731700,48.516731689453124,2.8359999656677246,5.568599700927734,-0.12359999865293503
1702297590507731700,48.576731689453126,1.1632999181747437,-0.8470999598503113,2.1851999759674072
1702297590567731700,48.63673168945313,-0.4828999936580658,-2.6589999198913574,3.573499917984009
1702297590627731700,48.696731689453124,0.023499999195337296,-2.462599992752075,2.4656999111175537
1702297590687731700,48.756731689453126,1.3420000076293945,-3.1396000385284424,2.5760998725891113
1702297590747731700,48.81673168945313,4.857999801635742,4.402100086212158,0.23319999873638153
1702297590807731700,48.87673168945312,4.339200019836426,-4.469699859619141,-4.553999900817871
1702297590867731700,48.936731689453126,-0.5424000024795532,5.452899932861328,1.27839994430542
1702297590927731700,48.99673168945313,1.4940999746322632,-1.2495999336242676,-2.117499828338623
1702297590987731700,49.05673168945312,-3.027400016784668,1.8822999000549316,2.4240000247955322
1702297591047731700,49.116731689453125,0.09109999984502792,1.2146999835968018,1.1543999910354614
1702297591107731700,49.17673168945313,0.6323999762535095,-2.0062999725341797,1.7396999597549438
1702297591167731700,49.23673168945312,1.5556999444961548,-1.4767999649047852,-1.1317999362945557
1702297591227731700,49.296731689453125,1.6744999885559082,-1.4752999544143677,-1.674299955368042
1702297591287731700,49.35673168945313,3.9744999408721924,-1.2305999994277954,-0.9070999622344971
1702297591347731700,49.41673168945312,1.0322999954223633,-0.07199999690055847,-2.1735000610351562
1702297591407731700,49.476731689453125,4.014699935913086,0.43209999799728394,-1.32669997215271
1702297591467731700,49.53673168945313,0.7125999927520752,-0.2402999997138977,-2.1938998699188232
1702297591527731700,49.59673168945312,-0.21279999613761902,1.1018999814987183,-2.413300037384033
1702297591587731700,49.656731689453125,3.811999797821045,8.855599403381348,-0.4805999994277954
1702297591647731700,49.71673168945313,2.149899959564209,-0.6263999938964844,1.7573999166488647
1702297591707731700,49.77673168945312,-0.778499960899353,-4.035599708557129,3.170799970626831
1702297591767731700,49.836731689453124,-0.25290000438690186,-4.052099704742432,1.7817999124526978
1702297591827731700,49.89673168945313,-0.5117999911308289,-4.454599857330322,3.4365999698638916
1702297591887731700,49.95673168945312,5.0980000495910645,8.231499671936035,-0.9077000021934509
1702297591947731700,50.016731689453124,7.075099945068359,-5.643899917602539,-5.812900066375732
1702297592007731700,50.076731689453126,-4.430999755859375,5.545300006866455,-0.8596999645233154
1702297592067731700,50.13673168945313,-0.32659998536109924,-0.33379998803138733,3.2337000370025635
1702297592127731700,50.196731689453124,-2.2719998359680176,1.5297999382019043,0.828499972820282
1702297592187731700,50.256731689453126,-1.0085999965667725,-0.15230000019073486,0.9381999969482422
1702297592247731700,50.31673168945313,1.8262999057769775,-1.7404999732971191,1.2554999589920044
1702297592307731700,50.37673168945312,-0.10559999942779541,-1.7470999956130981,0.34860000014305115
1702297592367731700,50.436731689453126,4.559999942779541,-1.6418999433517456,-2.239799976348877
1702297592427731700,50.49673168945313,1.1067999601364136,-1.2591999769210815,-2.2619998455047607
1702297592487731700,50.55673168945312,2.9388999938964844,-0.29829999804496765,-2.0989999771118164
1702297592547731700,50.616731689453125,2.1902999877929688,-1.767300009727478,-4.911299705505371
1702297592607731700,50.67673168945313,2.8831000328063965,-1.5489000082015991,-5.598299980163574
1702297592667731700,50.73673168945312,-1.6114000082015991,2.0908000469207764,-3.049099922180176
1702297592727731700,50.796731689453125,0.9786999821662903,10.175999641418457,2.901700019836426
1702297592787731700,50.85673168945313,2.039599895477295,-0.7838000059127808,1.5615999698638916
1702297592847731700,50.91673168945312,-1.3899999856948853,-3.1556999683380127,3.903599977493286
1702297592907731700,50.976731689453125,-0.8586999773979187,-4.807699680328369,0.2621999979019165
1702297592967731700,51.03673168945313,0.43059998750686646,-4.506899833679199,5.717099666595459
1702297593027731700,51.09673168945312,5.762499809265137,7.755199909210205,-4.31820011138916
1702297593087731700,51.156731689453125,5.866600036621094,-6.758899688720703,-0.663100004196167
1702297593147731700,51.21673168945313,-4.590199947357178,7.999699592590332,-1.0180000066757202
1702297593207731700,51.27673168945312,-3.333899974822998,0.6877999901771545,1.0329999923706055
1702297593267731700,51.336731689453124,-3.3474998474121094,0.4876999855041504,2.7300000190734863
1702297593327731700,51.39673168945313,-0.01899999938905239,-0.7360999584197998,0.5665000081062317
1702297593387731700,51.45673168945312,2.1838998794555664,-1.8924999237060547,2.4467999935150146
1702297593447731700,51.516731689453124,-0.35760000348091125,-1.3212999105453491,-0.7202000021934509
1702297593507731700,51.576731689453126,3.6407999992370605,-2.1445999145507812,-1.6959999799728394
1702297593567731700,51.63673168945313,4.095999717712402,-0.8764999508857727,-1.6664999723434448
1702297593627733200,51.69673315429687,0.7182999849319458,0.6581000089645386,-2.0291998386383057
1702297593687731700,51.756731689453126,2.5887999534606934,-0.7633999586105347,-2.511899948120117
1702297593747731700,51.81673168945313,0.8597999811172485,-0.9704999923706055,-2.681999921798706
1702297593807731700,51.87673168945312,0.487199991941452,2.538300037384033,-3.626999855041504
1702297593867731700,51.936731689453126,0.7809999585151672,8.683099746704102,3.5959999561309814
1702297593927731700,51.99673168945313,1.8669999837875366,-1.3459999561309814,3.1698999404907227
1702297593987731700,52.05673168945312,-1.775399923324585,-3.401599884033203,3.5349998474121094
1702297594047731700,52.116731689453125,0.15289999544620514,-4.796499729156494,0.9878999590873718
1702297594107731700,52.17673168945313,1.5410000085830688,-3.8566999435424805,5.240599632263184
1702297594167731700,52.23673168945312,0.6104999780654907,2.390899896621704,-7.107399940490723
1702297594227731700,52.296731689453125,0.6007999777793884,5.328499794006348,-1.2912999391555786
1702297594287731700,52.35673168945313,1.2213000059127808,-0.3222000002861023,4.950999736785889
1702297594347731700,52.41673168945312,-5.712299823760986,6.060699939727783,2.740999937057495
1702297594407731700,52.476731689453125,1.7395999431610107,1.1410999298095703,-0.343999981880188
1702297594467731700,52.53673168945313,0.14139999449253082,-2.999699831008911,-0.7799999713897705
1702297594527731700,52.59673168945312,-1.5061999559402466,-0.8141999840736389,1.6069999933242798
1702297594587731700,52.656731689453125,1.6370999813079834,-0.5011999607086182,0.1907999962568283
1702297594647731700,52.71673168945313,2.807299852371216,-1.8700999021530151,-1.2954999208450317
1702297594707731700,52.77673168945312,1.830899953842163,-1.6994999647140503,-2.157099962234497
1702297594767731700,52.836731689453124,1.3739999532699585,0.08219999819993973,-0.9053999781608582
1702297594827731700,52.89673168945313,1.0512999296188354,-0.5182999968528748,-1.772499918937683
1702297594887731700,52.95673168945312,1.0037000179290771,0.795199990272522,-1.6079999208450317
1702297594947731700,53.016731689453124,0.4488999843597412,1.5501999855041504,0.12239999324083328
1702297595007731700,53.076731689453126,0.4596000015735626,4.095900058746338,-0.6956999897956848
1702297595067731700,53.13673168945313,2.8515000343322754,1.117900013923645,1.6083999872207642
1702297595127731700,53.196731689453124,0.3206000030040741,-2.0762999057769775,2.3636999130249023
1702297595187731700,53.256731689453126,-0.1947999894618988,-2.1468000411987305,1.6680999994277954
1702297595247731700,53.31673168945313,-0.4285999834537506,-2.8970999717712402,3.338099956512451
1702297595307731700,53.37673168945312,6.75439977645874,0.32170000672340393,0.9906999468803406
1702297595367731700,53.436731689453126,-0.024399999529123306,-4.3917999267578125,-4.00029993057251
1702297595427731700,53.49673168945313,-1.343400001525879,7.3090996742248535,-2.194399833679199
1702297595487731700,53.55673168945312,1.1588000059127808,-1.6358999013900757,2.207200050354004
1702297595547731700,53.616731689453125,-3.906599998474121,1.0002000331878662,0.7164999842643738
1702297595607731700,53.67673168945313,3.8172998428344727,1.0044000148773193,-0.15139999985694885
1702297595667731700,53.73673168945312,-4.803499698638916,0.08630000054836273,4.094799995422363
1702297595727731700,53.796731689453125,1.6687999963760376,-0.7683999538421631,-0.24120000004768372
1702297595787731700,53.85673168945313,-0.051899999380111694,-1.132699966430664,-0.1882999986410141
1702297595847731700,53.91673168945312,0.9075999855995178,-0.512499988079071,-0.8430999517440796
1702297595907731700,53.976731689453125,1.7281999588012695,-1.0866999626159668,-0.4235000014305115
1702297595967731700,54.03673168945313,0.6669999957084656,-0.14079999923706055,-0.6328999996185303
1702297596027731700,54.09673168945312,2.0588998794555664,-0.2305999994277954,-0.38599997758865356
1702297596087731700,54.156731689453125,0.8531000018119812,0.33139997720718384,-0.9444999694824219
1702297596147731700,54.21673168945313,2.029399871826172,0.7109000086784363,-3.440199851989746
1702297596207731700,54.27673168945312,1.251099944114685,-0.6700999736785889,1.1007000207901
1702297596267731700,54.336731689453124,3.998999834060669,5.256700038909912,0.6342999935150146
1702297596327731700,54.39673168945313,-0.2687000036239624,1.4693999290466309,2.2540998458862305
1702297596387731700,54.45673168945312,1.8320999145507812,-1.202799916267395,2.702899932861328
1702297596447731700,54.516731689453124,-0.2733999788761139,-2.3457000255584717,0.5509999990463257
1702297596507731700,54.576731689453126,0.508899986743927,-3.8938000202178955,2.7718000411987305
1702297596567731700,54.63673168945313,1.7350999116897583,-0.7946999669075012,2.8738999366760254
1702297596627731700,54.696731689453124,4.424299716949463,-1.919600009918213,-7.343899726867676
1702297596687731700,54.756731689453126,1.692699909210205,3.2856998443603516,-0.4713999927043915
1702297596747731700,54.81673168945313,0.5353999733924866,3.9822998046875,4.747099876403809
1702297596807731700,54.87673168945312,-1.0947999954223633,-0.4449999928474426,3.5144999027252197
1702297596867731700,54.936731689453126,-1.4050999879837036,1.4660999774932861,-0.412200003862381
1702297596927731700,54.99673168945313,2.106600046157837,0.3929999768733978,-0.37709999084472656
1702297596987731700,55.05673168945312,-1.0923999547958374,-1.6586999893188477,1.0432000160217285
1702297597047731700,55.116731689453125,1.1115999221801758,-0.46959999203681946,0.2386000007390976
1702297597107731700,55.17673168945313,2.047800064086914,-0.39489999413490295,-1.222000002861023
1702297597167731700,55.23673168945312,3.9898998737335205,-3.1546998023986816,-1.1430000066757202
1702297597227731700,55.296731689453125,-0.6589999794960022,2.181999921798706,-2.1387999057769775
1702297597287731700,55.35673168945313,1.420799970626831,1.7060999870300293,-1.1204999685287476
1702297597347731700,55.41673168945312,4.306699752807617,-0.4072999954223633,-3.543299913406372
1702297597407731700,55.476731689453125,1.1259000301361084,0.32749998569488525,-0.48979997634887695
1702297597467731700,55.53673168945313,0.5945999622344971,2.8805999755859375,0.6579999923706055
1702297597527731700,55.59673168945312,1.312999963760376,-1.7746999263763428,2.3534998893737793
1702297597587731700,55.656731689453125,0.5607999563217163,-2.730799913406372,1.9366999864578247
1702297597647731700,55.71673168945313,-0.284199982881546,-3.269199848175049,0.7366999983787537
1702297597707731700,55.77673168945312,0.949999988079071,-2.5976998805999756,2.020699977874756
1702297597767731700,55.836731689453124,4.2453999519348145,2.0320000648498535,-5.501299858093262
1702297597827731700,55.89673168945313,5.703399658203125,-3.3640999794006348,-0.7712999582290649
1702297597887731700,55.95673168945312,-3.7266998291015625,6.342599868774414,-0.4828999936580658
1702297597947731700,56.016731689453124,4.950900077819824,1.8690999746322632,4.806600093841553
1702297598007731700,56.076731689453126,-3.398900032043457,0.20999999344348907,3.1313998699188232
1702297598067731700,56.13673168945313,-0.3391000032424927,-0.032899998128414154,0.7734000086784363
1702297598127731700,56.196731689453124,0.7067999839782715,-2.650399923324585,-0.3237999975681305
1702297598187731700,56.256731689453126,-1.9188998937606812,-1.6674998998641968,-1.6236999034881592
1702297598247731700,56.31673168945313,4.637099742889404,-2.184299945831299,-1.2520999908447266
1702297598307731700,56.37673168945312,2.792099952697754,0.5867999792098999,-3.2827999591827393
1702297598367731700,56.436731689453126,0.11599999666213989,1.0002000331878662,-1.7142999172210693
1702297598427731700,56.49673168945313,2.885699987411499,-2.808199882507324,-4.247999668121338
1702297598487731700,56.55673168945312,-0.01759999990463257,2.3420000076293945,-3.322199821472168
1702297598547731700,56.616731689453125,1.362399935722351,8.066399574279785,0.49719998240470886
1702297598607731700,56.67673168945313,2.5085999965667725,-0.3612000048160553,2.9433000087738037
1702297598667731700,56.73673168945312,-0.6692000031471252,-2.984799861907959,3.757999897003174
1702297598727731700,56.796731689453125,-1.0694999694824219,-3.952399969100952,-0.015399999916553497
1702297598787731700,56.85673168945313,0.9124999642372131,-3.1366000175476074,4.5376996994018555
1702297598847731700,56.91673168945312,6.000999927520752,5.529799938201904,-3.634999990463257
1702297598907731700,56.976731689453125,7.107399940490723,-8.174099922180176,-3.71209979057312
1702297598967731700,57.03673168945313,-3.6589999198913574,7.6927995681762695,-1.611799955368042
1702297599027731700,57.09673168945312,-2.17579984664917,0.6827999949455261,1.8138999938964844
1702297599087731700,57.156731689453125,-1.8046000003814697,1.5953999757766724,1.941999912261963
1702297599147731700,57.21673168945313,-0.28999999165534973,-0.6024999618530273,1.7374999523162842
1702297599207731700,57.27673168945312,1.2526999711990356,-2.3801000118255615,2.0195999145507812
1702297599267731700,57.336731689453124,-1.88510000705719,-1.397499918937683,-1.5115000009536743
1702297599327731700,57.39673168945313,4.844799995422363,-1.3246999979019165,-2.2769999504089355
1702297599387731700,57.45673168945312,4.247499942779541,-1.2893999814987183,-3.6898999214172363
1702297599447731700,57.516731689453124,2.013200044631958,0.4113999903202057,-1.042699933052063
1702297599507731700,57.576731689453126,0.5794000029563904,1.2942999601364136,-2.680299997329712
1702297599567731700,57.63673168945313,0.6455000042915344,-2.999699831008911,-1.6066999435424805
1702297599627731700,57.696731689453124,-0.3780999779701233,3.1972999572753906,-2.8120999336242676
1702297599687731700,57.756731689453126,1.916599988937378,4.7769999504089355,2.3564999103546143
1702297599747731700,57.81673168945313,1.3257999420166016,-2.0978000164031982,1.254699945449829
1702297599807731700,57.87673168945312,-2.267400026321411,-2.8244998455047607,2.7065999507904053
1702297599867731700,57.936731689453126,-0.8361999988555908,-3.107599973678589,3.1963000297546387
1702297599927731700,57.99673168945313,8.024099349975586,0.8090999722480774,4.5578999519348145
1702297599987731700,58.05673168945312,-1.2137999534606934,-1.740899920463562,-4.648699760437012
1702297600047731700,58.116731689453125,2.0662999153137207,1.9298999309539795,-2.663599967956543
1702297600107731700,58.17673168945313,-2.6327998638153076,5.606800079345703,1.8772999048233032
1702297600167731700,58.23673168945312,-2.1599998474121094,-1.0217000246047974,2.6633999347686768
1702297600227731700,58.296731689453125,-1.4753999710083008,2.6171998977661133,2.1470999717712402
1702297600287731700,58.35673168945313,1.2089999914169312,-1.6312999725341797,1.7737998962402344
1702297600347733200,58.41673315429688,-0.8916999697685242,-1.3202999830245972,0.5440999865531921
1702297600407731700,58.476731689453125,0.31540000438690186,-1.6888999938964844,-1.6299999952316284
1702297600467731700,58.53673168945313,4.652100086212158,-1.0812000036239624,-2.249500036239624
1702297600527731700,58.59673168945312,1.1055999994277954,-1.265299916267395,-0.7111999988555908
1702297600587731700,58.656731689453125,2.084699869155884,1.0997999906539917,-0.43869999051094055
1702297600647731700,58.71673168945313,-0.9820999503135681,0.9218999743461609,-0.5083999633789062
1702297600707731700,58.77673168945312,1.2317999601364136,-1.5779999494552612,-3.6830999851226807
1702297600767731700,58.836731689453124,0.8279999494552612,1.5992999076843262,-2.78439998626709
1702297600827731700,58.89673168945313,0.9243999719619751,4.058099746704102,1.3224999904632568
1702297600887731700,58.95673168945312,2.113499879837036,-2.5070998668670654,0.4585999846458435
1702297600947731700,59.016731689453124,-0.8596999645233154,-2.040099859237671,1.2323999404907227
1702297601007731700,59.076731689453126,-1.3299999237060547,-2.2425999641418457,2.182800054550171
1702297601067731700,59.13673168945313,0.20629999041557312,-0.7321999669075012,4.810999870300293
1702297601127731700,59.196731689453124,8.59060001373291,1.7685999870300293,0.8848999738693237
1702297601187731700,59.256731689453126,-0.7511999607086182,-3.385699987411499,-6.804199695587158
1702297601247731700,59.31673168945313,2.109099864959717,3.68969988822937,-1.1089999675750732
1702297601307731700,59.37673168945312,-4.643599987030029,1.2947999238967896,1.0132999420166016
1702297601367731700,59.436731689453126,-0.986299991607666,1.1823999881744385,2.1905999183654785
1702297601427731700,59.49673168945313,0.009399999864399433,-0.1809999942779541,1.674799919128418
1702297601487731700,59.55673168945312,-0.35499998927116394,-1.8588999509811401,2.887899875640869
1702297601547731700,59.616731689453125,1.198599934577942,-0.7109999656677246,-1.0978999137878418
1702297601607731700,59.67673168945313,3.9861998558044434,-1.5885999202728271,-2.686499834060669
1702297601667731700,59.73673168945312,2.930799961090088,-1.0460000038146973,-2.88100004196167
1702297601727731700,59.796731689453125,1.62909996509552,-0.19029998779296875,-1.869399905204773
1702297601787731700,59.85673168945313,1.4032999277114868,-0.019299998879432678,-1.9235999584197998
1702297601847731700,59.91673168945312,1.076300024986267,1.4767999649047852,-2.9163999557495117
1702297601907731700,59.976731689453125,0.9281999468803406,6.523299694061279,-1.0073000192642212
1702297601967731700,60.03673168945313,2.7742998600006104,0.8234999775886536,1.2171999216079712
1702297602027731700,60.09673168945312,-0.09730000048875809,-2.811199903488159,3.255999803543091
1702297602087731700,60.156731689453125,-0.7838999629020691,-2.8708999156951904,1.9325999021530151
1702297602147731700,60.21673168945313,-0.4251999855041504,-3.375,3.295099973678589
1702297602207731700,60.27673168945312,3.6851999759674072,0.9721999764442444,1.6941999197006226
1702297602267731700,60.336731689453124,1.7410999536514282,-3.2535998821258545,-9.590099334716797
1702297602327731700,60.39673168945313,-1.2167999744415283,1.5166000127792358,-1.833299994468689
1702297602387731700,60.45673168945312,-0.8412999510765076,4.2677998542785645,3.1554999351501465
1702297602447731700,60.516731689453124,-0.9490000009536743,2.011199951171875,3.0576000213623047
1702297602507731700,60.576731689453126,-1.7179999351501465,0.5475000143051147,1.4520999193191528
1702297602567731700,60.63673168945313,3.4143998622894287,-1.5437999963760376,1.0881999731063843
1702297602627731700,60.696731689453124,-0.5891000032424927,-2.026399850845337,0.7356999516487122
1702297602687731700,60.756731689453126,1.6502999067306519,-0.9289999604225159,-1.6983999013900757
1702297602747731700,60.81673168945313,3.3753998279571533,-1.587899923324585,-1.7559999227523804
1702297602807731700,60.87673168945312,1.4291999340057373,0.22839999198913574,-2.3371999263763428
1702297602867731700,60.936731689453126,3.2388999462127686,-0.3637999892234802,-1.2338999509811401
1702297602927731700,60.99673168945313,-0.1127999946475029,0.5823999643325806,-3.176100015640259
1702297602987731700,61.05673168945312,1.1187000274658203,1.0961999893188477,-3.4034998416900635
1702297603047731700,61.116731689453125,0.5034999847412109,6.5329999923706055,0.8855999708175659
1702297603107731700,61.17673168945313,2.2416999340057373,-0.38269999623298645,2.442699909210205
1702297603167731700,61.23673168945312,-1.059899926185608,-3.1467998027801514,3.137199878692627
1702297603227731700,61.296731689453125,-0.9456999897956848,-2.8271000385284424,0.998199999332428
1702297603287731700,61.35673168945313,0.09279999881982803,-2.8652000427246094,4.736799716949463
1702297603347731700,61.41673168945312,5.244499683380127,4.751699924468994,1.4011999368667603
1702297603407731700,61.476731689453125,2.1196999549865723,-5.847799777984619,-7.9567999839782715
1702297603467731700,61.53673168945313,-1.7069998979568481,6.928999900817871,-0.5267999768257141
1702297603527731700,61.59673168945312,-2.0627999305725098,0.4309999942779541,2.6569998264312744
1702297603587731700,61.656731689453125,-2.0824999809265137,1.7759000062942505,1.8077999353408813
1702297603647731700,61.71673168945313,0.19919998943805695,0.0064999996684491634,0.2514999806880951
1702297603707731700,61.77673168945312,1.1744999885559082,-2.731299877166748,2.4719998836517334
1702297603767731700,61.836731689453124,-2.23799991607666,-0.5637999773025513,0.017999999225139618
1702297603827731700,61.89673168945313,6.738800048828125,-1.6490999460220337,-3.72189998626709
1702297603887731700,61.95673168945312,3.746699810028076,-2.2946999073028564,-2.2690999507904053
1702297603947731700,62.016731689453124,0.9440000057220459,0.6841999888420105,-2.2435998916625977
1702297604007731700,62.076731689453126,2.0463998317718506,0.3401999771595001,-1.4144999980926514
1702297604067731700,62.13673168945313,0.023099999874830246,-1.1073999404907227,-1.4717999696731567
1702297604127731700,62.196731689453124,1.0449999570846558,5.174099922180176,-3.082199811935425
1702297604187731700,62.256731689453126,2.594599962234497,4.784800052642822,1.8693000078201294
1702297604247731700,62.31673168945313,0.9492999911308289,-2.595399856567383,2.649399995803833
1702297604307731700,62.37673168945312,-0.6233999729156494,-2.791100025177002,2.24429988861084
1702297604367731700,62.436731689453126,-1.5935999155044556,-2.784799814224243,3.515399932861328
1702297604427731700,62.49673168945313,2.8787999153137207,-2.8015999794006348,3.906599998474121
1702297604487731700,62.55673168945312,5.6255998611450195,3.039799928665161,-6.801599979400635
1702297604547731700,62.616731689453125,5.894899845123291,-2.0272998809814453,-1.146399974822998
1702297604607731700,62.67673168945313,-2.212599992752075,1.2714999914169312,3.531399965286255
1702297604667731700,62.73673168945312,-2.8650999069213867,2.006700038909912,0.3985999822616577
1702297604727731700,62.796731689453125,-2.256500005722046,2.064499855041504,1.2015999555587769
1702297604787731700,62.85673168945313,3.3603999614715576,-1.546199917793274,0.5467000007629395
1702297604847731700,62.91673168945312,0.35019999742507935,-2.542799949645996,1.7502999305725098
1702297604907731700,62.976731689453125,0.4277999997138977,-1.1119999885559082,-0.8075000047683716
1702297604967731700,63.03673168945313,4.6930999755859375,-2.6475000381469727,-2.5311999320983887
1702297605027731700,63.09673168945312,1.3874999284744263,-1.3341000080108643,-1.917099952697754
1702297605087731700,63.156731689453125,2.005499839782715,1.4474999904632568,-1.757200002670288
1702297605147731700,63.21673168945313,1.8782999515533447,-0.9520999789237976,-2.829699993133545
1702297605207731700,63.27673168945312,-0.17549999058246613,-0.7565999627113342,-1.9950000047683716
1702297605267731700,63.336731689453124,0.48089998960494995,2.837100028991699,-3.094899892807007
1702297605327731700,63.39673168945313,1.0815999507904053,5.839799880981445,1.6957999467849731
1702297605387731700,63.45673168945312,2.40339994430542,-1.4484999179840088,1.6621999740600586
1702297605447731700,63.516731689453124,-1.5503000020980835,-2.8666999340057373,3.2301998138427734
1702297605507759900,63.576759765625,-0.696399986743927,-2.621299982070923,2.4361000061035156
1702297605567731700,63.63673168945313,0.5386999845504761,-2.2572999000549316,4.6280999183654785
1702297605627731700,63.696731689453124,9.186100006103516,6.77679967880249,-1.4843000173568726
1702297605687731700,63.756731689453126,5.787399768829346,-5.818199634552002,-5.318599700927734
1702297605747731700,63.81673168945313,-2.6720998287200928,3.7301998138427734,3.6360998153686523
1702297605807731700,63.87673168945312,-3.366799831390381,1.6947999000549316,-1.4541000127792358
1702297605867731700,63.936731689453126,-1.3939999341964722,0.9868999719619751,1.0932999849319458
1702297605927731700,63.99673168945313,0.5737000107765198,-0.8770999908447266,1.0353000164031982
1702297605987731700,64.05673168945313,0.508899986743927,-2.3822999000549316,2.5197999477386475
1702297606047731700,64.11673168945312,0.010400000028312206,-0.40829998254776,0.14579999446868896
1702297606107731700,64.17673168945312,4.73769998550415,-1.8729000091552734,-3.343600034713745
1702297606167731700,64.23673168945312,2.009199857711792,-1.6552999019622803,-2.1016998291015625
1702297606227731700,64.29673168945313,0.6841999888420105,0.7155999541282654,-1.392699956893921
1702297606287731700,64.35673168945313,2.093400001525879,-1.5137999057769775,-2.73799991607666
1702297606347731700,64.41673168945313,-0.23099999129772186,-1.2599999904632568,-1.4785999059677124
1702297606407731700,64.47673168945313,1.6639999151229858,1.6094999313354492,-2.1333999633789062
1702297606467731700,64.53673168945312,1.0555000305175781,8.18529987335205,-1.3665000200271606
1702297606527731700,64.59673168945312,3.437299966812134,-0.39169999957084656,0.9533999562263489
1702297606587731700,64.65673168945312,-1.0743999481201172,-2.1175999641418457,2.2430999279022217
1702297606647731700,64.71673168945313,-0.5411999821662903,-3.0532000064849854,2.2228000164031982
1702297606707731700,64.77673168945313,0.0357000008225441,-3.6122000217437744,4.710700035095215
1702297606767731700,64.83673168945313,5.666100025177002,4.320899963378906,0.3141999840736389
1702297606827731700,64.89673168945312,2.2370998859405518,-5.237199783325195,-4.908799648284912
1702297606887731700,64.95673168945312,-0.5343999862670898,5.306699752807617,-0.23249998688697815
1702297606947731700,65.01673168945312,2.3798999786376953,-0.965399980545044,-0.0551999993622303
1702297607007731700,65.07673168945313,-3.689499855041504,3.0464999675750732,1.910499930381775
1702297607067731700,65.13673168945313,-0.8992999792098999,1.2228999137878418,0.9404000043869019
1702297607127731700,65.19673168945313,0.9606999754905701,-1.8097000122070312,0.7892000079154968
1702297607187731700,65.25673168945312,-1.201799988746643,-2.2044999599456787,1.8626999855041504
1702297607247731700,65.31673168945312,2.518199920654297,-0.7580999732017517,-0.755299985408783
1702297607307731700,65.37673168945312,3.67579984664917,-2.2344000339508057,-1.5338999032974243
1702297607367731700,65.43673168945313,0.21799999475479126,-0.27140000462532043,-1.9855999946594238
1702297607427731700,65.49673168945313,3.438999891281128,0.18529999256134033,-1.3984999656677246
1702297607487731700,65.55673168945313,0.8867999911308289,0.24169999361038208,-3.676499843597412
1702297607547731700,65.61673168945312,2.3580000400543213,-0.7998999953269958,-2.3681998252868652
1702297607607731700,65.67673168945312,-1.2450000047683716,5.094899654388428,-2.1963999271392822
1702297607667731700,65.73673168945312,3.2538998126983643,1.8253999948501587,0.4672999978065491
1702297607727731700,65.79673168945313,0.3540000021457672,-2.012500047683716,2.3646998405456543
1702297607787731700,65.85673168945313,-1.601099967956543,-2.942499876022339,2.314199924468994
1702297607847731700,65.91673168945313,-1.6162999868392944,-2.9972000122070312,5.067299842834473
1702297607907731700,65.97673168945313,-1.4428999423980713,-0.056199997663497925,4.445699691772461
1702297607967731700,66.03673168945312,-0.3691999912261963,1.6861000061035156,-4.4953999519348145
1702297608027731700,66.09673168945312,4.549599647521973,-4.1219000816345215,0.6836999654769897
1702297608087731700,66.15673168945312,-2.859299898147583,10.575599670410156,2.046799898147583
1702297608147731700,66.21673168945313,-1.8774999380111694,-0.9218999743461609,2.3352999687194824
1702297608207731700,66.27673168945313,-1.5098999738693237,1.1876999139785767,0.19709999859333038
1702297608267731700,66.33673168945313,-0.0058999997563660145,-1.2164000272750854,1.8549000024795532
1702297608327731700,66.39673168945312,1.0333999395370483,-1.418299913406372,3.8078999519348145
1702297608387731700,66.45673168945312,5.681699752807617,-1.1891000270843506,-4.415800094604492
1702297608447731700,66.51673168945312,1.340999960899353,-3.0214998722076416,-2.5384998321533203
1702297608507731700,66.57673168945313,1.20579993724823,-0.11329999566078186,-3.0037999153137207
1702297608567731700,66.63673168945313,1.3589999675750732,-0.3312999904155731,0.35519999265670776
1702297608627731700,66.69673168945313,0.663100004196167,-0.2858999967575073,-1.9946999549865723
1702297608687731700,66.75673168945312,0.6517999768257141,3.9182000160217285,-3.8163998126983643
1702297608747731700,66.81673168945312,4.642499923706055,5.182199954986572,0.8671000003814697
1702297608807731700,66.87673168945312,0.5011000037193298,-2.8859000205993652,2.7784998416900635
1702297608867731700,66.93673168945313,-1.5379999876022339,-3.6260998249053955,3.5461997985839844
1702297608927731700,66.99673168945313,-1.1518999338150024,-2.7662999629974365,3.866299867630005
1702297608987733200,67.05673315429688,-0.16040000319480896,-0.4666000008583069,5.384799957275391
1702297609047731700,67.11673168945312,5.119699954986572,1.7691999673843384,-4.3013997077941895
1702297609107731700,67.17673168945312,6.684299945831299,-2.817499876022339,-0.7376999855041504
1702297609167731700,67.23673168945312,-2.630199909210205,7.2363996505737305,2.6125998497009277
1702297609227731700,67.29673168945313,-1.8391999006271362,0.30969998240470886,1.9586999416351318
1702297609287731700,67.35673168945313,-1.638700008392334,1.444100022315979,0.8726999759674072
1702297609347731700,67.41673168945313,0.9215999841690063,-1.2723000049591064,1.6966999769210815
1702297609407731700,67.47673168945313,-1.4527000188827515,-1.920300006866455,1.000499963760376
1702297609467731700,67.53673168945312,2.3653998374938965,-1.1126999855041504,-0.590399980545044
1702297609527731700,67.59673168945312,6.446199893951416,-1.0713999271392822,-2.4463000297546387
1702297609587731700,67.65673168945312,3.0543999671936035,-0.6776999831199646,-4.017399787902832
1702297609647731700,67.71673168945313,0.6471999883651733,2.3125,-2.246000051498413
1702297609707731700,67.77673168945313,-1.8569999933242798,-1.2934999465942383,-0.02329999953508377
1702297609767731700,67.83673168945313,1.8678998947143555,0.9034000039100647,-3.2137999534606934
1702297609827731700,67.89673168945312,-0.9197999835014343,3.9961998462677,-1.6299999952316284
1702297609887731700,67.95673168945312,3.487799882888794,1.3013999462127686,3.533099889755249
1702297609947731700,68.01673168945312,0.36039999127388,-3.756999969482422,1.1608999967575073
1702297610007731700,68.07673168945313,-0.5546000003814697,-2.9238998889923096,2.0464999675750732
1702297610067731700,68.13673168945313,-0.3637999892234802,-4.604300022125244,5.289299964904785
1702297610127731700,68.19673168945313,14.134499549865723,7.7916998863220215,2.6775999069213867
1702297610187731700,68.25673168945312,2.8643999099731445,-6.5971999168396,-5.400899887084961
1702297610247731700,68.31673168945312,-2.282599925994873,8.251299858093262,1.5863999128341675
1702297610307731700,68.37673168945312,-1.2761999368667603,-0.8370999693870544,-2.5384998321533203
1702297610367731700,68.43673168945313,-2.6066999435424805,2.2309000492095947,2.108599901199341
1702297610427731700,68.49673168945313,-0.39499998092651367,-0.647599995136261,1.449199914932251
1702297610487731700,68.55673168945313,-0.18619999289512634,-2.1758999824523926,2.2848000526428223
1702297610547731700,68.61673168945312,2.3185999393463135,-0.7256999611854553,-0.9156000018119812
1702297610607731700,68.67673168945312,6.236499786376953,-1.927299976348877,-3.8488998413085938
1702297610667731700,68.73673168945312,3.53059983253479,-2.4930999279022217,-2.0364999771118164
1702297610727731700,68.79673168945313,-0.24379999935626984,0.6331999897956848,-2.096400022506714
1702297610787731700,68.85673168945313,1.6480998992919922,-0.45889997482299805,-1.8858999013900757
1702297610847731700,68.91673168945313,1.8489999771118164,-1.3371999263763428,-2.7376999855041504
1702297610907731700,68.97673168945313,1.125,3.0078999996185303,-0.8037999868392944
1702297610967731700,69.03673168945312,2.0899999141693115,6.168900012969971,-2.328199863433838
1702297611027731700,69.09673168945312,2.9147000312805176,-0.1290999948978424,1.6236000061035156
1702297611087731700,69.15673168945312,-1.0224000215530396,-2.9818999767303467,2.233799934387207
1702297611147731700,69.21673168945313,-1.8482999801635742,-2.4263999462127686,3.2390999794006348
1702297611207731700,69.27673168945313,-0.8690999746322632,-2.4632999897003174,5.8171000480651855
1702297611267731700,69.33673168945313,8.460899353027344,4.996799945831299,2.3641998767852783
1702297611327731700,69.39673168945312,-1.734299898147583,-5.979799747467041,-7.973899841308594
1702297611387731700,69.45673168945312,-2.0678000450134277,5.938899993896484,-0.3304999768733978
1702297611447731700,69.51673168945312,-1.0866999626159668,0.08190000057220459,2.495499849319458
1702297611507731700,69.57673168945313,-2.182299852371216,2.9804999828338623,3.1789000034332275
1702297611567731700,69.63673168945313,1.2592999935150146,0.5310999751091003,1.3536999225616455
1702297611627731700,69.69673168945313,1.5434999465942383,-2.5074000358581543,0.5378000140190125
1702297611687731700,69.75673168945312,1.125,-1.782099962234497,-0.8446999788284302
1702297611747731700,69.81673168945312,6.640399932861328,-1.854699969291687,-3.6606998443603516
1702297611807731700,69.87673168945312,2.771699905395508,-1.7810999155044556,-2.2470998764038086
1702297611867731700,69.93673168945313,0.6003999710083008,0.9836999773979187,-0.670699954032898
1702297611927731700,69.99673168945313,0.6664999723434448,0.30859997868537903,-0.5268999934196472
1702297611987731700,70.05673168945313,2.1143999099731445,0.9264999628067017,-3.2909998893737793
1702297612047731700,70.11673168945312,1.2645000219345093,4.686100006103516,-3.431999921798706
1702297612107731700,70.17673168945312,3.1712000370025635,3.2383999824523926,0.6924999952316284
1702297612167731700,70.23673168945312,0.6236000061035156,-3.3641998767852783,3.0116000175476074
1702297612227731700,70.29673168945313,-0.8014000058174133,-2.6094000339508057,2.304800033569336
1702297612287731700,70.35673168945313,-1.4569000005722046,-2.4510998725891113,3.59309983253479
1702297612347731700,70.41673168945313,2.2660000324249268,-1.024999976158142,4.12529993057251
1702297612407731700,70.47673168945313,4.513400077819824,1.8959999084472656,-6.875399589538574
1702297612467731700,70.53673168945312,2.9300999641418457,-3.404399871826172,0.35169997811317444
1702297612527731700,70.59673168945312,-1.5015000104904175,4.976099967956543,-1.430400013923645
1702297612587731700,70.65673168945312,-3.188999891281128,3.8842999935150146,3.485100030899048
1702297612647731700,70.71673168945313,0.484499990940094,-1.2238999605178833,1.6612999439239502
1702297612707731700,70.77673168945313,-2.5660998821258545,0.6926999688148499,2.0493998527526855
1702297612767731700,70.83673168945313,6.368299961090088,-2.9948999881744385,1.334399938583374
1702297612827731700,70.89673168945312,-3.3058998584747314,-1.0641999244689941,-1.6009999513626099
1702297612887731700,70.95673168945312,4.229899883270264,-2.1422998905181885,-4.22790002822876
1702297612947731700,71.01673168945312,5.585299968719482,-1.4494999647140503,-4.825099945068359
1702297613007731700,71.07673168945313,1.1791999340057373,-0.5399999618530273,-1.935499906539917
1702297613067731700,71.13673168945313,1.789699912071228,-1.2026000022888184,-2.3001999855041504
1702297613127731700,71.19673168945313,0.5162999629974365,1.6686999797821045,-3.3422999382019043
1702297613187731700,71.25673168945312,3.3183999061584473,11.056499481201172,-1.1399999856948853
1702297613247731700,71.31673168945312,2.541599988937378,-0.4935999810695648,2.1821000576019287
1702297613307731700,71.37673168945312,-1.7376999855041504,-3.762199878692627,3.854299783706665
1702297613367731700,71.43673168945313,-0.6438999772071838,-3.6452999114990234,0.20250000059604645
1702297613427731700,71.49673168945313,-0.3188000023365021,-2.1340999603271484,5.202699661254883
1702297613487731700,71.55673168945313,3.04229998588562,5.331999778747559,2.574199914932251
1702297613547731700,71.61673168945312,0.9301999807357788,-6.467099666595459,-7.90310001373291
1702297613607731700,71.67673168945312,-3.538800001144409,2.793799877166748,-1.9240999221801758
1702297613667731700,71.73673168945312,3.163300037384033,5.502799987792969,2.272599935531616
1702297613727731700,71.79673168945313,-3.3501999378204346,1.5312999486923218,3.70770001411438
1702297613787731700,71.85673168945313,-1.7782999277114868,0.6912999749183655,2.4433000087738037
1702297613847731700,71.91673168945313,4.586999893188477,-1.9668999910354614,1.2634999752044678
1702297613907731700,71.97673168945313,0.20659999549388885,-2.4402999877929688,-1.2515000104904175
1702297613967731700,72.03673168945312,1.2482999563217163,-0.8173999786376953,-2.144700050354004
1702297614027731700,72.09673168945312,2.085700035095215,-1.5103999376296997,-1.7366999387741089
1702297614087731700,72.15673168945312,0.407399982213974,0.8033999800682068,-1.7457998991012573
1702297614147731700,72.21673168945313,1.6733999252319336,-0.2712000012397766,-2.047100067138672
1702297614207731700,72.27673168945313,2.532599925994873,-1.4824999570846558,-2.4731998443603516
1702297614267731700,72.33673168945313,0.19460000097751617,1.4615999460220337,-2.6243999004364014
1702297614327731700,72.39673168945312,2.9106998443603516,8.139299392700195,-1.0758999586105347
1702297614387731700,72.45673168945312,2.6131999492645264,0.14559999108314514,1.7736999988555908
1702297614447731700,72.51673168945312,-0.723800003528595,-2.0063998699188232,3.836099863052368
1702297614507731700,72.57673168945313,-2.099400043487549,-3.2012999057769775,2.9622998237609863
1702297614567731700,72.63673168945313,1.051800012588501,-2.772199869155884,4.190700054168701
1702297614627731700,72.69673168945313,3.5625998973846436,4.734399795532227,0.6471999883651733
1702297614687731700,72.75673168945312,3.6793999671936035,-7.185999870300293,-6.360499858856201
1702297614747731700,72.81673168945312,1.1215999126434326,-0.21769998967647552,0.4518999755382538
1702297614807731700,72.87673168945312,-1.0354000329971313,8.166299819946289,5.990900039672852
1702297614867731700,72.93673168945313,-2.3178000450134277,-0.28849998116493225,0.009399999864399433
1702297614927731700,72.99673168945313,1.0871000289916992,0.9188999533653259,0.5173999667167664
1702297614987731700,73.05673168945313,1.8410999774932861,-2.523099899291992,0.7818999886512756
1702297615047731700,73.11673168945312,-3.211699962615967,-0.37939998507499695,2.1745998859405518
1702297615107731700,73.17673168945312,3.9560999870300293,-1.5860999822616577,-1.86899995803833
1702297615167731700,73.23673168945312,4.587500095367432,-2.103100061416626,-2.9893999099731445
1702297615227731700,73.29673168945313,-1.0227999687194824,-0.17710000276565552,-1.5910999774932861
1702297615287731700,73.35673168945313,2.669999837875366,0.6354999542236328,-2.8320000171661377
1702297615347731700,73.41673168945313,-0.12860000133514404,0.16990000009536743,-2.3980000019073486
1702297615407731700,73.47673168945313,0.19699999690055847,3.057999849319458,-3.1285998821258545
1702297615467731700,73.53673168945312,3.584399938583374,5.618899822235107,0.07129999995231628
1702297615527731700,73.59673168945312,1.1349999904632568,-2.7841999530792236,2.3260998725891113
1702297615587731700,73.65673168945312,-1.313599944114685,-3.4995999336242676,2.6577999591827393
1702297615647731700,73.71673168945313,-1.788100004196167,-3.799499988555908,3.5652999877929688
1702297615707731700,73.77673168945313,1.2429999113082886,-1.0672999620437622,3.3230998516082764
1702297615767731700,73.83673168945313,5.342899799346924,1.9298999309539795,-4.82889986038208
1702297615827731700,73.89673168945312,4.728399753570557,-2.1282999515533447,-1.0130000114440918
1702297615887731700,73.95673168945312,-1.678399920463562,4.268199920654297,3.652599811553955
1702297615947731700,74.01673168945312,-3.4465999603271484,1.7211999893188477,0.08669999986886978
1702297616007731700,74.07673168945313,-1.4183999300003052,0.3515999913215637,1.0776000022888184
1702297616067731700,74.13673168945313,1.5108000040054321,-1.2516000270843506,1.2553999423980713
1702297616127731700,74.19673168945313,-0.2572000026702881,-2.1619999408721924,2.2632999420166016
1702297616187731700,74.25673168945312,1.0609999895095825,-0.9287999868392944,-1.1196999549865723
1702297616247731700,74.31673168945312,2.9945998191833496,-1.666599988937378,-1.881500005722046
1702297616307731700,74.37673168945312,2.1196000576019287,-0.8524999618530273,-1.0839999914169312
1702297616367731700,74.43673168945313,2.254699945449829,0.2524999976158142,-1.8949999809265137
1702297616427731700,74.49673168945313,1.699299931526184,-0.6850999593734741,-3.770599842071533
1702297616487731700,74.55673168945313,0.38179999589920044,-1.434399962425232,-2.4990999698638916
1702297616547731700,74.61673168945312,-0.3450999855995178,4.315999984741211,-2.8499999046325684
1702297616607731700,74.67673168945312,2.519899845123291,5.542099952697754,2.9960999488830566
1702297616667731700,74.73673168945312,1.4757999181747437,-2.5795998573303223,1.924399971961975
1702297616727731700,74.79673168945313,-2.071199893951416,-3.824699878692627,3.5478999614715576
