time,seconds_elapsed,z,y,x
1702214469921836800,0.0448369140625,0.3779999911785126,-0.6309999823570251,-0.0018999999156221747
1702214469981836800,0.1048369140625,-0.1859000027179718,-0.11729999631643295,0.11969999969005585
1702214470041836800,0.1648369140625,0.1987999975681305,-0.38199999928474426,-0.00009999999747378752
1702214470101836800,0.2248369140625,0.40629997849464417,-0.22679999470710754,-0.23479999601840973
1702214470161836800,0.2848369140625,-0.21689999103546143,-0.13279999792575836,-0.2360999882221222
1702214470221836800,0.3448369140625,-0.6092000007629395,0.25669997930526733,0.21729999780654907
1702214470281836800,0.4048369140625,0.5814999938011169,-0.36949998140335083,0.002699999837204814
1702214470341836800,0.4648369140625,-0.32499998807907104,-0.5235999822616577,0.2937999963760376
1702214470401836800,0.5248369140625,0.5665000081062317,-0.8138999938964844,0.0640999972820282
1702214470461836800,0.5848369140625,-0.5956999659538269,-0.37389999628067017,0.045899998396635056
1702214470521836800,0.6448369140625,0.6599000096321106,-0.7286999821662903,-0.7876999974250793
1702214470581836800,0.7048369140625,0.8150999546051025,-0.8675999641418457,-1.458899974822998
1702214470641836800,0.7648369140625,0.7590999603271484,-0.29600000381469727,-0.15760000050067902
1702214470701836800,0.8248369140625,0.36159998178482056,0.011699999682605267,0.04389999806880951
1702214470761836800,0.8848369140625,-0.2782999873161316,0.49949997663497925,-0.07360000163316727
1702214470821836800,0.9448369140625,0.058799996972084045,0.5490999817848206,-0.13040000200271606
1702214470881836800,1.0048369140625,-0.01269999984651804,0.551800012588501,0.9804999828338623
1702214470941836800,1.0648369140625,-0.7455999851226807,0.6333999633789062,1.0929999351501465
1702214471001836800,1.1248369140625,-0.2757999897003174,0.9413999915122986,1.4953999519348145
1702214471061836800,1.1848369140625,-0.5712999701499939,1.100000023841858,1.4614999294281006
1702214471121836800,1.2448369140625,-0.42170000076293945,0.7038999795913696,0.7896999716758728
1702214471181836800,1.3048369140625,-0.43129998445510864,0.8167999982833862,0.8783999681472778
1702214471241836800,1.3648369140625,-0.36089998483657837,1.0469999313354492,0.710599958896637
1702214471301836800,1.4248369140625,-0.3431999981403351,1.5006999969482422,1.0749999284744263
1702214471361836800,1.4848369140625,1.3674999475479126,-0.8391000032424927,0.7050999999046326
1702214471421836800,1.5448369140625,1.6247999668121338,-0.45329999923706055,1.1132999658584595
1702214471481836800,1.6048369140625,0.24289999902248383,-0.722000002861023,1.1704999208450317
1702214471541836800,1.6648369140625,-0.28349998593330383,-1.2911999225616455,1.4699000120162964
1702214471601836800,1.7248369140625,-2.4467999935150146,-0.7870000004768372,2.3989999294281006
1702214471661836800,1.7848369140625,-6.542699813842773,-1.1729999780654907,3.986799955368042
1702214471721836800,1.8448369140625,-7.788099765777588,-2.6387999057769775,7.274600028991699
1702214471781836800,1.9048369140625,-5.688600063323975,-5.892899990081787,7.6350998878479
1702214471841836800,1.9648369140625,-1.628499984741211,-11.154099464416504,-0.5324999690055847
1702214471901836800,2.0248369140625,3.3315999507904053,-14.030699729919434,-5.099799633026123
1702214471961836800,2.0848369140625,-7.2067999839782715,-7.989599704742432,-9.663899421691895
1702214472021836800,2.1448369140625,-0.3107999861240387,-5.362400054931641,-3.1858999729156494
1702214472081836800,2.2048369140625,0.5252000093460083,-2.819000005722046,-1.7144999504089355
1702214472141836800,2.2648369140625,5.560999870300293,-2.1773998737335205,-2.9003000259399414
1702214472201836800,2.3248369140625,3.0586998462677,-1.1023999452590942,-2.7881999015808105
1702214472261836800,2.3848369140625,3.918299913406372,-0.1542000025510788,-5.304299831390381
1702214472321836800,2.4448369140625,0.8866999745368958,1.501599907875061,-6.209799766540527
1702214472381836800,2.5048369140625,-2.0397000312805176,2.761899948120117,-7.721799850463867
1702214472441836800,2.5648369140625,-4.699199676513672,3.8169000148773193,-9.295999526977539
1702214472501836800,2.6248369140625,-3.5648999214172363,4.855599880218506,-9.417399406433105
1702214472561836800,2.6848369140625,-2.4507999420166016,0.35989999771118164,-9.350699424743652
1702214472621836800,2.7448369140625,-0.2498999983072281,-7.4126996994018555,-12.941399574279785
1702214472681836800,2.8048369140625,4.9375,-8.993499755859375,-8.129300117492676
1702214472741836800,2.8648369140625,3.5114998817443848,-9.145599365234375,-1.1136999130249023
1702214472801836800,2.9248369140625,2.3767998218536377,-8.255199432373047,1.4276999235153198
1702214472861836800,2.9848369140625,2.676300048828125,-6.229699611663818,2.330899953842163
1702214472921836800,3.0448369140625,3.3376998901367188,-5.126699924468994,3.9268999099731445
1702214472981836800,3.1048369140625,3.9487998485565186,-5.400599956512451,6.288099765777588
1702214473041836800,3.1648369140625,4.776299953460693,-4.8831000328063965,8.9931001663208
1702214473101836800,3.2248369140625,2.2095999717712402,-4.814899921417236,9.582300186157227
1702214473161836800,3.2848369140625,-1.1464999914169312,-6.271100044250488,7.281999588012695
1702214473221836800,3.3448369140625,-3.4221999645233154,-8.805299758911133,5.7866997718811035
1702214473281836800,3.4048369140625,-4.075799942016602,-9.4266996383667,0.13849999010562897
1702214473341836800,3.4648369140625,-2.238100051879883,-6.754199981689453,1.2667999267578125
1702214473401836800,3.5248369140625,0.9550999999046326,-5.001199722290039,-0.36969998478889465
1702214473461836800,3.5848369140625,1.3604999780654907,-2.7345998287200928,-3.6501998901367188
1702214473521836800,3.6448369140625,1.1252999305725098,-1.6173999309539795,-8.09570026397705
1702214473581836800,3.7048369140625,2.4779999256134033,-0.37849998474121094,-9.677399635314941
1702214473641836800,3.7648369140625,4.320300102233887,2.6101999282836914,-8.078100204467773
1702214473701836800,3.8248369140625,3.010499954223633,2.470399856567383,-9.278599739074707
1702214473761836800,3.8848369140625,-2.0615999698638916,0.7378000020980835,-10.728499412536621
1702214473821836800,3.9448369140625,0.7601999640464783,-1.441499948501587,-10.04699993133545
1702214473881836800,4.0048369140625,2.4203999042510986,-1.3731999397277832,-6.525699615478516
1702214473941836800,4.0648369140625,-1.544600009918213,-7.122099876403809,-6.807299613952637
1702214474001836800,4.1248369140625,-0.5791999697685242,-6.7866997718811035,-4.636499881744385
1702214474061836800,4.1848369140625,1.7985999584197998,-5.727999687194824,0.8400999903678894
1702214474121836800,4.2448369140625,1.8741999864578247,-5.907899856567383,4.4532999992370605
1702214474181836800,4.3048369140625,1.5789999961853027,-5.86870002746582,6.249499797821045
1702214474241836800,4.3648369140625,2.1671998500823975,-5.747399806976318,7.518099784851074
1702214474301836800,4.4248369140625,3.122999906539917,-5.708699703216553,8.585100173950195
1702214474361836800,4.4848369140625,2.254199981689453,-6.176699638366699,7.271399974822998
1702214474421836800,4.5448369140625,-3.8219997882843018,-9.206399917602539,5.656799793243408
1702214474481836800,4.6048369140625,-2.315700054168701,-8.76509952545166,3.1130998134613037
1702214474541836800,4.6648369140625,0.19419999420642853,-5.527699947357178,1.5720999240875244
1702214474601836800,4.7248369140625,-0.11779999732971191,-2.5095999240875244,-0.5841999650001526
1702214474661836800,4.7848369140625,0.3863999843597412,-2.7109999656677246,-4.274699687957764
1702214474721836800,4.8448369140625,0.6419000029563904,-3.3653998374938965,-9.072400093078613
1702214474781836800,4.9048369140625,4.45389986038208,-0.7005000114440918,-9.517499923706055
1702214474841836800,4.9648369140625,3.1576998233795166,0.7058999538421631,-8.291600227355957
1702214474901836800,5.0248369140625,-0.023399999365210533,0.23009999096393585,-8.146900177001953
1702214474961836800,5.0848369140625,2.620699882507324,0.2791000008583069,-10.534699440002441
1702214475021836800,5.1448369140625,1.9508999586105347,-0.5511000156402588,-6.262899875640869
1702214475081836800,5.2048369140625,-1.771299958229065,-3.9746999740600586,-6.954799652099609
1702214475141836800,5.2648369140625,1.1008999347686768,-3.164099931716919,-3.1778998374938965
1702214475201836800,5.3248369140625,1.3690999746322632,-1.6804999113082886,1.2319999933242798
1702214475261836800,5.3848369140625,1.2272999286651611,-2.387899875640869,2.803799867630005
1702214475321836800,5.4448369140625,2.5190000534057617,-4.381899833679199,2.8272998332977295
1702214475381836800,5.5048369140625,3.3427000045776367,-5.644499778747559,2.3176000118255615
1702214475441836800,5.5648369140625,4.575399875640869,-5.248199939727783,3.0762999057769775
1702214475501836800,5.6248369140625,3.7998998165130615,-8.576299667358398,6.937399864196777
1702214475561836800,5.6848369140625,1.0231999158859253,-8.110799789428711,5.868000030517578
1702214475621836800,5.7448369140625,-0.2886999845504761,-5.757400035858154,3.584199905395508
1702214475681836800,5.8048369140625,-0.8806999921798706,-1.646899938583374,1.8824999332427979
1702214475741836800,5.8648369140625,-0.1143999993801117,-0.8521999716758728,0.5374000072479248
1702214475801836800,5.9248369140625,0.362199991941452,-1.2307000160217285,-2.6719000339508057
1702214475861836800,5.9848369140625,-0.26989999413490295,0.5273999571800232,-7.386499881744385
1702214475921836800,6.0448369140625,-0.19579999148845673,-0.013299999758601189,-8.923500061035156
1702214475981836800,6.1048369140625,-1.469599962234497,0.04099999740719795,-10.6875
1702214476041836800,6.1648369140625,0.8551999926567078,0.7044000029563904,-9.146299362182617
1702214476101836800,6.2248369140625,1.980199933052063,1.9799998998641968,-5.165299892425537
1702214476161836800,6.2848369140625,-1.5770999193191528,-3.0017998218536377,-6.510599613189697
1702214476221836800,6.3448369140625,-2.164900064468384,-4.0503997802734375,-6.855199813842773
1702214476281836800,6.4048369140625,2.521399974822998,-4.658400058746338,-1.075600028038025
1702214476341836800,6.4648369140625,3.500999927520752,-5.0914998054504395,2.6061999797821045
1702214476401836800,6.5248369140625,2.8479998111724854,-5.263700008392334,4.624000072479248
1702214476461836800,6.5848369140625,2.136899948120117,-4.243799686431885,6.727599620819092
1702214476521836800,6.6448369140625,0.3163999915122986,-4.255099773406982,8.49839973449707
1702214476581836800,6.7048369140625,-1.2832999229431152,-5.689799785614014,7.704599857330322
1702214476641836800,6.7648369140625,-2.077899932861328,-7.081500053405762,5.718100070953369
1702214476701836800,6.8248369140625,-2.3001999855041504,-7.6153998374938965,1.442699909210205
1702214476761836800,6.8848369140625,-0.6326000094413757,-5.050600051879883,1.5291999578475952
1702214476821836800,6.9448369140625,-0.19299998879432678,-2.184999942779541,-0.5170999765396118
1702214476881836800,7.0048369140625,0.5072000026702881,-1.608799934387207,-2.3738999366760254
1702214476941836800,7.0648369140625,3.0839998722076416,-2.4965999126434326,-4.263400077819824
1702214477001836800,7.1248369140625,3.356799840927124,0.11329999566078186,-5.3902997970581055
1702214477061836800,7.1848369140625,1.6653000116348267,1.8387999534606934,-5.80709981918335
1702214477121836800,7.2448369140625,0.6430000066757202,1.5098999738693237,-7.7891998291015625
1702214477181836800,7.3048369140625,1.8818999528884888,-1.3125,-10.155699729919434
1702214477241836800,7.3648369140625,1.5534999370574951,-0.7655999660491943,-7.355099678039551
1702214477301836800,7.4248369140625,1.380199909210205,-3.116499900817871,-4.837599754333496
1702214477361836800,7.4848369140625,1.1067999601364136,-2.59879994392395,-2.6405999660491943
1702214477421836800,7.5448369140625,1.4378999471664429,-2.030099868774414,0.432699978351593
1702214477481836800,7.6048369140625,0.8389999866485596,-2.9819998741149902,2.826900005340576
1702214477541836800,7.6648369140625,0.9160999655723572,-2.8927998542785645,4.065700054168701
1702214477601836800,7.7248369140625,2.2574000358581543,-3.2460999488830566,4.64739990234375
1702214477661836800,7.7848369140625,1.4707999229431152,-4.797100067138672,3.7269999980926514
1702214477721836800,7.8448369140625,0.8051999807357788,-6.150199890136719,4.459199905395508
1702214477781836800,7.9048369140625,0.5080999732017517,-6.0945000648498535,5.576600074768066
1702214477841836800,7.9648369140625,0.05639999732375145,-5.892499923706055,4.487199783325195
1702214477901836800,8.0248369140625,-1.2458000183105469,-4.743299961090088,2.7114999294281006
1702214477961836800,8.0848369140625,1.5324000120162964,-3.334199905395508,0.8853999972343445
1702214478021836800,8.1448369140625,1.7809998989105225,-1.7482999563217163,-2.4579999446868896
1702214478081836800,8.2048369140625,-1.2010999917984009,0.7026000022888184,-5.620100021362305
1702214478141836800,8.2648369140625,0.33149999380111694,0.5837999582290649,-8.788299560546875
1702214478201836800,8.3248369140625,2.0961999893188477,0.6218999624252319,-9.854700088500977
1702214478261836800,8.3848369140625,2.541599988937378,2.632499933242798,-9.136199951171875
1702214478321838300,8.44483837890625,-1.0200999975204468,-1.2913999557495117,-11.557299613952637
1702214478381836800,8.5048369140625,-3.131199836730957,-1.615899920463562,-11.916500091552734
1702214478441836800,8.5648369140625,0.7599999904632568,-6.275699615478516,-4.726900100708008
1702214478501836800,8.6248369140625,-0.8456999659538269,-6.628200054168701,-3.357100009918213
1702214478561836800,8.6848369140625,1.011099934577942,-5.5376996994018555,-2.009000062942505
1702214478621836800,8.7448369140625,-0.25360000133514404,-5.31220006942749,-0.04360000044107437
1702214478681836800,8.8048369140625,2.3652000427246094,-5.10260009765625,6.928099632263184
1702214478741836800,8.8648369140625,1.0363999605178833,-4.351500034332275,8.055299758911133
1702214478801836800,8.9248369140625,1.7096999883651733,-5.389100074768066,8.763799667358398
1702214478861836800,8.9848369140625,1.2460999488830566,-5.754299640655518,9.07409954071045
1702214478921836800,9.0448369140625,0.22809998691082,-6.054199695587158,7.9166998863220215
1702214478981836800,9.1048369140625,-4.126699924468994,-8.23390007019043,3.551999807357788
1702214479041836800,9.1648369140625,-1.2648999691009521,-8.949699401855469,-0.5733999609947205
1702214479101836800,9.2248369140625,-1.154099941253662,-6.808699607849121,-1.8021999597549438
1702214479161836800,9.2848369140625,-1.2063000202178955,-2.7398998737335205,-1.1698999404907227
1702214479221836800,9.3448369140625,1.3673999309539795,-2.1280999183654785,-3.269399881362915
1702214479281836800,9.4048369140625,3.1034998893737793,-1.169600009918213,-6.236799716949463
1702214479341836800,9.4648369140625,3.5553998947143555,2.4972000122070312,-6.890699863433838
1702214479401836800,9.5248369140625,2.823499917984009,2.141199827194214,-5.56220006942749
1702214479461836800,9.5848369140625,4.127099990844727,3.939199924468994,-5.2820000648498535
1702214479521836800,9.6448369140625,2.583099842071533,-2.120800018310547,-9.207599639892578
1702214479581836800,9.7048369140625,-0.5374000072479248,-5.367599964141846,-10.915399551391602
1702214479641836800,9.7648369140625,3.2274999618530273,-5.81220006942749,-3.961099863052368
1702214479701836800,9.8248369140625,2.611299991607666,-2.8539998531341553,-1.2588999271392822
1702214479761836800,9.8848369140625,1.5942999124526978,-1.860700011253357,0.06659999489784241
1702214479821836800,9.9448369140625,-0.7188999652862549,-2.924999952316284,2.785799980163574
1702214479881836800,10.0048369140625,-1.0133999586105347,-3.5182998180389404,4.605799674987793
1702214479941836800,10.0648369140625,0.08980000019073486,-2.8241000175476074,4.815899848937988
1702214480001836800,10.1248369140625,-0.21719999611377716,-5.12999963760376,5.586099624633789
1702214480061836800,10.1848369140625,-2.0104000568389893,-7.06689977645874,6.653299808502197
1702214480121836800,10.2448369140625,-1.1340999603271484,-7.863199710845947,6.3725996017456055
1702214480181836800,10.3048369140625,-3.5658998489379883,-5.578099727630615,2.6159000396728516
1702214480241836800,10.3648369140625,-1.2134000062942505,-5.098700046539307,2.2291998863220215
1702214480301836800,10.4248369140625,1.5225999355316162,-2.6445000171661377,0.48169997334480286
1702214480361836800,10.4848369140625,1.795799970626831,-0.9827999472618103,-1.836899995803833
1702214480421836800,10.5448369140625,2.03410005569458,-0.4456999897956848,-5.184499740600586
1702214480481836800,10.6048369140625,2.603799819946289,-0.20059999823570251,-7.132599830627441
1702214480541836800,10.6648369140625,4.118899822235107,1.7008999586105347,-7.0829997062683105
1702214480601836800,10.7248369140625,1.8559999465942383,0.8703999519348145,-8.556699752807617
1702214480661836800,10.7848369140625,2.093600034713745,0.5069000124931335,-7.558799743652344
1702214480721836800,10.8448369140625,2.9226999282836914,-0.7067999839782715,-5.863699913024902
1702214480781836800,10.9048369140625,0.608299970626831,-4.942599773406982,-5.611199855804443
1702214480841836800,10.9648369140625,-1.081399917602539,-4.549999713897705,-4.303699970245361
1702214480901836800,11.0248369140625,0.13449999690055847,-3.288100004196167,-0.3224000036716461
1702214480961836800,11.0848369140625,0.8532999753952026,-4.0914998054504395,2.7588000297546387
1702214481021836800,11.1448369140625,0.953499972820282,-4.627199649810791,4.605099678039551
1702214481081836800,11.2048369140625,0.9870999455451965,-4.7764997482299805,5.716000080108643
1702214481141836800,11.2648369140625,0.27889999747276306,-6.292099952697754,6.299299716949463
1702214481201836800,11.3248369140625,1.684399962425232,-5.061699867248535,8.632299423217773
1702214481261836800,11.3848369140625,-2.1087000370025635,-3.6599998474121094,4.867700099945068
1702214481321838300,11.44483837890625,-4.1940999031066895,-5.101099967956543,5.736499786376953
1702214481381836800,11.5048369140625,-0.9946999549865723,-8.014100074768066,1.1055999994277954
1702214481441836800,11.5648369140625,-0.2793000042438507,-4.78849983215332,-2.9407999515533447
1702214481501836800,11.6248369140625,0.7555999755859375,-1.6957999467849731,-3.0040998458862305
1702214481561836800,11.6848369140625,3.009399890899658,-0.6931999921798706,-1.0932999849319458
1702214481621836800,11.7448369140625,3.813499927520752,1.139799952507019,-2.075899839401245
1702214481681836800,11.8048369140625,2.0532000064849854,0.2798999845981598,-5.780900001525879
1702214481741836800,11.8648369140625,0.8055999875068665,-0.7692999839782715,-8.707900047302246
1702214481801836800,11.9248369140625,2.99429988861084,-1.1733999252319336,-10.72029972076416
1702214481861836800,11.9848369140625,3.708899974822998,1.8680999279022217,-5.710299968719482
1702214481921836800,12.0448369140625,0.034199997782707214,-0.7901999950408936,-3.9465999603271484
1702214481981836800,12.1048369140625,-1.5893999338150024,-1.0720999240875244,-3.59060001373291
1702214482041836800,12.1648369140625,0.8101999759674072,-1.594499945640564,-2.9358999729156494
1702214482101836800,12.2248369140625,1.9093999862670898,-2.348099946975708,-0.6297999620437622
1702214482161836800,12.2848369140625,2.0018999576568604,-4.061299800872803,1.4071999788284302
1702214482221836800,12.3448369140625,1.2064999341964722,-5.305299758911133,1.6782000064849854
1702214482281836800,12.4048369140625,0.7107999920845032,-5.90910005569458,5.230799674987793
1702214482341836800,12.4648369140625,1.6942999362945557,-6.281599998474121,9.6451997756958
1702214482401836800,12.5248369140625,-0.6951000094413757,-6.641900062561035,5.470099925994873
1702214482461836800,12.5848369140625,-0.9768999814987183,-5.089399814605713,3.8691999912261963
1702214482521836800,12.6448369140625,0.23169998824596405,-2.63100004196167,3.1877999305725098
1702214482581836800,12.7048369140625,0.6358000040054321,-1.0729999542236328,1.5556999444961548
1702214482641836800,12.7648369140625,0.8473999500274658,-0.6949999928474426,-1.5022999048233032
1702214482701836800,12.8248369140625,1.8757998943328857,0.03839999809861183,-5.0920000076293945
1702214482761836800,12.8848369140625,1.0899999141693115,1.1906999349594116,-6.618299961090088
1702214482821865000,12.944864990234375,0.7009999752044678,0.7192999720573425,-7.3314995765686035
1702214482881836800,13.0048369140625,1.5317000150680542,0.8592000007629395,-7.539700031280518
1702214482941836800,13.0648369140625,-1.2994999885559082,0.7074999809265137,-8.92080020904541
1702214483001836800,13.1248369140625,-3.4103000164031982,-0.26499998569488525,-6.269700050354004
1702214483061836800,13.1848369140625,-0.18140000104904175,-2.2256999015808105,-3.182299852371216
1702214483121836800,13.2448369140625,1.8695999383926392,-2.1354000568389893,-0.9084999561309814
1702214483181836800,13.3048369140625,1.8813999891281128,-2.563199996948242,0.9048999547958374
1702214483241836800,13.3648369140625,1.1851999759674072,-3.4355998039245605,2.831399917602539
1702214483301836800,13.4248369140625,0.8800999522209167,-3.816200017929077,5.35129976272583
1702214483361836800,13.4848369140625,0.7940999865531921,-4.337100028991699,7.551799774169922
1702214483421836800,13.5448369140625,1.9254999160766602,-5.362599849700928,6.907199859619141
1702214483481836800,13.6048369140625,0.11840000003576279,-8.559199333190918,2.493799924850464
1702214483541836800,13.6648369140625,-0.48539999127388,-6.2515997886657715,2.227599859237671
1702214483601836800,13.7248369140625,1.371999979019165,-3.7752997875213623,1.7761999368667603
1702214483661836800,13.7848369140625,-0.2994000017642975,-0.5311999917030334,0.29999998211860657
1702214483721836800,13.8448369140625,0.5842999815940857,0.48399999737739563,-2.1118998527526855
1702214483781836800,13.9048369140625,1.2933999300003052,0.2782999873161316,-4.414799690246582
1702214483841836800,13.9648369140625,0.5475000143051147,0.772599995136261,-8.395999908447266
1702214483901836800,14.0248369140625,-1.9494999647140503,0.7149999737739563,-9.389100074768066
1702214483961836800,14.0848369140625,-2.7070000171661377,1.0717999935150146,-7.967700004577637
1702214484021836800,14.1448369140625,-1.0963000059127808,-0.4730999767780304,-9.643899917602539
1702214484081836800,14.2048369140625,-0.2874000072479248,-1.0389000177383423,-6.826200008392334
1702214484141836800,14.2648369140625,1.6200000047683716,-1.9134999513626099,-4.728699684143066
1702214484201836800,14.3248369140625,1.5418999195098877,-3.634399890899658,-4.5304999351501465
1702214484261836800,14.3848369140625,1.8149999380111694,-5.295599937438965,-3.6187000274658203
1702214484321838300,14.44483837890625,3.255999803543091,-7.836599826812744,-1.0038999319076538
1702214484381836800,14.5048369140625,5.621299743652344,-7.6342997550964355,1.5048999786376953
1702214484441836800,14.5648369140625,6.3277997970581055,-6.2851996421813965,4.892899990081787
1702214484501836800,14.6248369140625,4.199399948120117,-5.209799766540527,7.463199615478516
1702214484561836800,14.6848369140625,0.8240999579429626,-4.933799743652344,8.164199829101562
1702214484621836800,14.7448369140625,-1.0910999774932861,-6.118099689483643,8.02489948272705
1702214484681836800,14.8048369140625,-1.8410999774932861,-8.235400199890137,1.6904000043869019
1702214484741836800,14.8648369140625,-4.943900108337402,-6.227599620819092,1.1967999935150146
1702214484801836800,14.9248369140625,-0.7597000002861023,-5.110899925231934,-0.35089999437332153
1702214484861836800,14.9848369140625,2.1552999019622803,-2.324399948120117,-2.3200998306274414
1702214484921836800,15.0448369140625,0.2133999913930893,-0.18140000104904175,-5.425999641418457
1702214484981836800,15.1048369140625,-0.349700003862381,1.0245000123977661,-7.7002997398376465
1702214485041836800,15.1648369140625,0.7764999866485596,2.850100040435791,-6.326999664306641
1702214485101836800,15.2248369140625,0.7676999568939209,2.0255000591278076,-6.185699939727783
1702214485161836800,15.2848369140625,-0.16300000250339508,-0.6976000070571899,-10.981199264526367
1702214485221836800,15.3448369140625,-0.1485999971628189,-2.075399875640869,-12.149099349975586
1702214485281836800,15.4048369140625,0.3910999894142151,-0.8524999618530273,-6.218499660491943
1702214485341836800,15.4648369140625,0.42879998683929443,-3.0081000328063965,-3.5597000122070312
1702214485401836800,15.5248369140625,1.8238999843597412,-4.683099746704102,-2.784799814224243
1702214485461836800,15.5848369140625,4.11870002746582,-5.124300003051758,-1.02839994430542
1702214485521836800,15.6448369140625,4.472499847412109,-5.08489990234375,0.8082000017166138
1702214485581836800,15.7048369140625,4.395299911499023,-5.383800029754639,2.829699993133545
1702214485641836800,15.7648369140625,4.06119966506958,-5.594299793243408,4.694299697875977
1702214485701836800,15.8248369140625,3.1654000282287598,-4.4893999099731445,6.07450008392334
1702214485761836800,15.8848369140625,2.400099992752075,-6.276099681854248,8.609399795532227
1702214485821836800,15.9448369140625,-1.1895999908447266,-8.112299919128418,5.095200061798096
1702214485881836800,16.0048369140625,-2.5638999938964844,-7.973299980163574,2.959399938583374
1702214485941836800,16.0648369140625,-3.010999917984009,-6.934999942779541,1.2901999950408936
1702214486001836800,16.1248369140625,-0.6585999727249146,-2.9201998710632324,0.47769999504089355
1702214486061836800,16.1848369140625,-1.8363999128341675,-0.24619999527931213,-1.4398999214172363
1702214486121836800,16.2448369140625,-0.8669999837875366,-0.281499981880188,-2.6355998516082764
1702214486181836800,16.3048369140625,2.2908999919891357,-0.6467999815940857,-5.745500087738037
1702214486241836800,16.3648369140625,-0.9637999534606934,0.5321999788284302,-12.424399375915527
1702214486301836800,16.4248369140625,1.4563000202178955,0.2052999883890152,-9.265299797058105
1702214486361836800,16.4848369140625,1.8133000135421753,1.226099967956543,-9.527099609375
1702214486421836800,16.5448369140625,-0.7107999920845032,-3.226300001144409,-11.594799995422363
1702214486481836800,16.6048369140625,-0.6103999614715576,-5.1001996994018555,-7.107499599456787
1702214486541836800,16.6648369140625,0.3138999938964844,-4.352799892425537,-3.0881998538970947
1702214486601836800,16.7248369140625,1.2968000173568726,-2.9814999103546143,0.1305999904870987
1702214486661836800,16.7848369140625,1.618899941444397,-3.586099863052368,2.5999999046325684
1702214486721836800,16.8448369140625,1.5693999528884888,-4.45359992980957,3.558300018310547
1702214486781836800,16.9048369140625,2.8130998611450195,-5.502699851989746,3.3989999294281006
1702214486841836800,16.9648369140625,2.163300037384033,-7.537199974060059,2.5226998329162598
1702214486901836800,17.0248369140625,2.337599992752075,-5.979599952697754,8.955999374389648
1702214486961836800,17.0848369140625,1.4750999212265015,-5.909899711608887,7.72029972076416
1702214487021836800,17.1448369140625,1.886699914932251,-7.5578999519348145,4.832599639892578
1702214487081836800,17.2048369140625,1.8314999341964722,-6.927199840545654,3.9276998043060303
1702214487141836800,17.2648369140625,1.7967000007629395,-6.45389986038208,1.3184999227523804
1702214487201836800,17.3248369140625,1.0194000005722046,-5.674200057983398,-4.839900016784668
1702214487261836800,17.3848369140625,1.83079993724823,-2.669999837875366,-10.006099700927734
1702214487321836800,17.4448369140625,3.9038000106811523,0.64410001039505,-6.480999946594238
1702214487381836800,17.5048369140625,2.2951998710632324,0.26909998059272766,-13.832099914550781
1702214487441836800,17.5648369140625,2.10479998588562,0.6146000027656555,-14.956199645996094
1702214487501836800,17.6248369140625,2.255199909210205,1.656999945640564,-7.907199859619141
1702214487561836800,17.6848369140625,-2.0702998638153076,-2.2951998710632324,-6.9340996742248535
1702214487621836800,17.7448369140625,-0.6060999631881714,-4.747299671173096,-6.589799880981445
1702214487681836800,17.8048369140625,0.8406999707221985,-5.520699977874756,-2.3371999263763428
1702214487741836800,17.8648369140625,2.045300006866455,-4.826499938964844,1.5516999959945679
1702214487801836800,17.9248369140625,2.4649999141693115,-5.132199764251709,4.7606000900268555
1702214487861836800,17.9848369140625,3.9380998611450195,-7.802099704742432,5.164499759674072
1702214487921836800,18.0448369140625,3.775099992752075,-8.837800025939941,6.643199920654297
1702214487981836800,18.1048369140625,5.360099792480469,-8.590399742126465,11.2391996383667
1702214488041836800,18.1648369140625,0.9560999870300293,-12.227899551391602,1.4988999366760254
1702214488101836800,18.2248369140625,-1.4788999557495117,-7.783499717712402,0.5834000110626221
1702214488161836800,18.2848369140625,-2.789599895477295,-4.802999973297119,1.0465999841690063
1702214488221836800,18.3448369140625,0.1662999987602234,-4.224299907684326,3.284099817276001
1702214488281836800,18.4048369140625,6.162999629974365,-5.5665998458862305,1.4372999668121338
1702214488341836800,18.4648369140625,7.704599857330322,-5.857399940490723,-3.41159987449646
1702214488401836800,18.5248369140625,5.323800086975098,-2.7265000343322754,-11.960199356079102
1702214488461836800,18.5848369140625,4.915800094604492,-0.25540000200271606,-8.93179988861084
1702214488521836800,18.6448369140625,4.868799686431885,1.4390000104904175,-5.456199645996094
1702214488581836800,18.7048369140625,4.276099681854248,0.3446999788284302,-6.901299953460693
1702214488641836800,18.7648369140625,2.5638999938964844,-0.2985999882221222,-9.398399353027344
1702214488701836800,18.8248369140625,1.142799973487854,-2.3813998699188232,-6.3294997215271
1702214488761836800,18.8848369140625,-1.9354000091552734,-3.857800006866455,-3.8267998695373535
1702214488821836800,18.9448369140625,-4.3628997802734375,-5.32889986038208,-0.36089998483657837
1702214488881836800,19.0048369140625,-4.410799980163574,-6.046199798583984,1.8294999599456787
1702214488941836800,19.0648369140625,-2.6786999702453613,-4.644599914550781,5.428400039672852
1702214489001836800,19.1248369140625,-1.681899905204773,-3.762399911880493,6.791800022125244
1702214489061836800,19.1848369140625,-2.222899913787842,-2.9426000118255615,7.552599906921387
1702214489121836800,19.2448369140625,-3.0421998500823975,-3.6447999477386475,4.164299964904785
1702214489181836800,19.3048369140625,-1.8732999563217163,-5.667399883270264,0.14710000157356262
1702214489241836800,19.3648369140625,0.79339998960495,-5.702600002288818,0.03920000046491623
1702214489301836800,19.4248369140625,3.084199905395508,-2.2985999584198,0.2483000010251999
1702214489361836800,19.4848369140625,1.33079993724823,3.234999895095825,-2.3215999603271484
1702214489421836800,19.5448369140625,4.026899814605713,7.057299613952637,-5.673399925231934
1702214489481836800,19.6048369140625,2.724799871444702,5.916299819946289,-4.481400012969971
1702214489541836800,19.6648369140625,0.20649999380111694,1.6689000129699707,-0.3139999806880951
1702214489601836800,19.7248369140625,-3.1422998905181885,-1.6442999839782715,3.132200002670288
1702214489661836800,19.7848369140625,-2.5018999576568604,-4.009599685668945,5.286299705505371
1702214489721836800,19.8448369140625,0.01809999905526638,-5.341000080108643,4.161399841308594
1702214489781836800,19.9048369140625,-0.5859999656677246,-3.2998998165130615,1.0860999822616577
1702214489841836800,19.9648369140625,0.46219998598098755,-2.177999973297119,-0.2742999792098999
1702214489901836800,20.0248369140625,-2.950500011444092,0.5681999921798706,1.2706999778747559
1702214489961836800,20.0848369140625,-0.21089999377727509,0.4837999939918518,-2.2026000022888184
1702214490021836800,20.1448369140625,3.5889999866485596,-2.3093998432159424,-4.947700023651123
1702214490081836800,20.2048369140625,2.058199882507324,-1.320099949836731,-4.071599960327148
1702214490141836800,20.2648369140625,-2.13100004196167,-0.0982000008225441,-2.363600015640259
1702214490201836800,20.3248369140625,-5.950500011444092,1.3863999843597412,-1.607100009918213
1702214490261836800,20.3848369140625,-1.5195000171661377,2.0629000663757324,-1.063099980354309
1702214490321836800,20.4448369140625,1.7467999458312988,-1.232699990272522,-1.7489999532699585
1702214490381836800,20.5048369140625,2.5102999210357666,-3.7243998050689697,-2.065700054168701
1702214490441836800,20.5648369140625,1.3637999296188354,-3.471299886703491,-1.1917999982833862
1702214490501836800,20.6248369140625,1.169700026512146,-2.723299980163574,-0.24569998681545258
1702214490561836800,20.6848369140625,0.8162999749183655,-2.7303998470306396,-0.009200000204145908
1702214490621836800,20.7448369140625,0.13189999759197235,-1.3351999521255493,-0.10849999636411667
1702214490681836800,20.8048369140625,1.974199891090393,-1.6090999841690063,-1.4602999687194824
1702214490741836800,20.8648369140625,-0.39499998092651367,-1.212499976158142,-4.693299770355225
1702214490801836800,20.9248369140625,3.129199981689453,1.8579999208450317,-4.392499923706055
1702214490861836800,20.9848369140625,0.120899997651577,2.357100009918213,-7.439499855041504
1702214490921836800,21.0448369140625,2.5135998725891113,-0.5006999969482422,-1.1371999979019165
1702214490981836800,21.1048369140625,7.207799911499023,2.668599843978882,3.9091999530792236
1702214491041836800,21.1648369140625,0.4083999991416931,5.036599636077881,2.0894999504089355
1702214491101836800,21.2248369140625,1.9637999534606934,-6.957399845123291,-9.705499649047852
1702214491161836800,21.2848369140625,-1.883699893951416,-8.948999404907227,-8.270599365234375
1702214491221836800,21.3448369140625,2.110300064086914,-6.797499656677246,2.4306998252868652
1702214491281836800,21.4048369140625,-0.45069998502731323,-5.7164998054504395,1.5597999095916748
1702214491341836800,21.4648369140625,2.4173998832702637,-3.059199810028076,2.02239990234375
1702214491401836800,21.5248369140625,2.635999917984009,4.765500068664551,3.3469998836517334
1702214491461836800,21.5848369140625,4.515100002288818,6.974999904632568,0.0405999980866909
1702214491521836800,21.6448369140625,15.716399192810059,1.889799952507019,-2.477099895477295
1702214491581836800,21.7048369140625,8.333499908447266,-6.210599899291992,-4.886199951171875
1702214491641836800,21.7648369140625,3.0628998279571533,-12.409099578857422,-1.0929999351501465
1702214491701836800,21.8248369140625,-2.0473999977111816,-8.917799949645996,6.801300048828125
1702214491761836800,21.8848369140625,-2.8317999839782715,-6.842499732971191,10.38070011138916
1702214491821836800,21.9448369140625,-5.155099868774414,-5.362299919128418,11.673299789428711
1702214491881836800,22.0048369140625,-4.28380012512207,-5.4629998207092285,11.13129997253418
1702214491941836800,22.0648369140625,-2.6342999935150146,-7.444799900054932,7.928499698638916
1702214492001836800,22.1248369140625,-5.168299674987793,-17.382400512695312,3.5184998512268066
1702214492061836800,22.1848369140625,-0.6200999617576599,-18.178600311279297,-12.28689956665039
1702214492121836800,22.2448369140625,0.027699999511241913,-10.196000099182129,-9.392600059509277
1702214492181836800,22.3048369140625,1.3543000221252441,-3.5969998836517334,-2.715399980545044
1702214492241836800,22.3648369140625,3.123199939727783,-2.3443000316619873,-4.066499710083008
1702214492301836800,22.4248369140625,6.321399688720703,-1.8912999629974365,-5.644599914550781
1702214492361836800,22.4848369140625,11.60689926147461,0.5228999853134155,-6.775599956512451
1702214492421836800,22.5448369140625,12.583499908447266,-0.25529998540878296,-7.015699863433838
1702214492481836800,22.6048369140625,9.609299659729004,0.8869999647140503,-6.971799850463867
1702214492541836800,22.6648369140625,5.264899730682373,-0.5056999921798706,-7.8329997062683105
1702214492601836800,22.7248369140625,1.0379999876022339,-6.219799995422363,-10.260499954223633
1702214492661836800,22.7848369140625,-1.0188000202178955,-10.95930004119873,-7.31719970703125
1702214492721836800,22.8448369140625,-0.8902999758720398,-9.286499977111816,-3.2510998249053955
1702214492781836800,22.9048369140625,-1.2249000072479248,-8.176199913024902,2.2400999069213867
1702214492841836800,22.9648369140625,-1.2864999771118164,-6.3339996337890625,9.689499855041504
1702214492901836800,23.0248369140625,-0.8157999515533447,-4.959499835968018,9.68139934539795
1702214492961836800,23.0848369140625,-1.8243999481201172,-7.189399719238281,8.130199432373047
1702214493021836800,23.1448369140625,-0.26989999413490295,-8.638500213623047,7.2826995849609375
1702214493081836800,23.2048369140625,1.0407999753952026,-12.367300033569336,4.046000003814697
1702214493141836800,23.2648369140625,0.10329999774694443,-9.894700050354004,2.2827999591827393
1702214493201836800,23.3248369140625,1.9763000011444092,-7.484899997711182,0.9907999634742737
1702214493261836800,23.3848369140625,0.7688999772071838,-4.667500019073486,-2.0820999145507812
1702214493321836800,23.4448369140625,0.852899968624115,-2.8855998516082764,-6.486599922180176
1702214493381836800,23.5048369140625,2.8021998405456543,-0.3114999830722809,-8.614299774169922
1702214493441836800,23.5648369140625,4.096399784088135,2.5648999214172363,-5.307799816131592
1702214493501836800,23.6248369140625,2.4549999237060547,1.925399899482727,-8.600699424743652
1702214493561836800,23.6848369140625,2.4445998668670654,0.5751999616622925,-11.507899284362793
1702214493621836800,23.7448369140625,1.4996999502182007,0.9684999585151672,-8.830900192260742
1702214493681836800,23.8048369140625,0.028099998831748962,-0.1589999943971634,-5.344899654388428
1702214493741836800,23.8648369140625,-1.7561999559402466,-4.8516998291015625,-6.118299961090088
1702214493801836800,23.9248369140625,-0.8044999837875366,-5.120100021362305,-3.6720998287200928
1702214493861836800,23.9848369140625,0.44119998812675476,-4.603600025177002,-0.002899999963119626
1702214493921836800,24.0448369140625,-0.4773999750614166,-4.982100009918213,2.776899814605713
1702214493981836800,24.1048369140625,0.3043999969959259,-5.349999904632568,4.62969970703125
1702214494041836800,24.1648369140625,0.34039998054504395,-5.286299705505371,7.518199920654297
1702214494101836800,24.2248369140625,-0.009200000204145908,-6.390699863433838,8.449899673461914
1702214494161836800,24.2848369140625,-2.2530999183654785,-8.27079963684082,7.473199844360352
1702214494221836800,24.3448369140625,0.582099974155426,-9.57509994506836,4.6489996910095215
1702214494281836800,24.4048369140625,-0.13509999215602875,-9.484000205993652,2.8242998123168945
1702214494341836800,24.4648369140625,1.3899999856948853,-8.548600196838379,2.438199996948242
1702214494401836800,24.5248369140625,3.056299924850464,-7.722599983215332,-1.6486999988555908
1702214494461836800,24.5848369140625,1.4228999614715576,-5.171199798583984,-9.418299674987793
1702214494521836800,24.6448369140625,0.03709999844431877,-0.7764999866485596,-10.924599647521973
1702214494581836800,24.7048369140625,2.2077999114990234,3.285599946975708,-5.995199680328369
1702214494641836800,24.7648369140625,3.1618998050689697,3.876199960708618,-8.183899879455566
1702214494701836800,24.8248369140625,1.642899990081787,2.0167999267578125,-15.45669937133789
1702214494761836800,24.8848369140625,-0.39010000228881836,-0.3024999797344208,-10.466400146484375
1702214494821836800,24.9448369140625,-0.7926999926567078,-0.6825999617576599,-9.259599685668945
1702214494881836800,25.0048369140625,-0.8192999958992004,-6.875699996948242,-8.06470012664795
1702214494941836800,25.0648369140625,-0.8689999580383301,-8.804499626159668,-5.704599857330322
1702214495001836800,25.1248369140625,1.7101999521255493,-7.40339994430542,-1.2467999458312988
1702214495061836800,25.1848369140625,2.288800001144409,-7.499199867248535,1.6378999948501587
1702214495121836800,25.2448369140625,2.6145999431610107,-7.316400051116943,5.017199993133545
1702214495181836800,25.3048369140625,4.648200035095215,-5.103600025177002,10.12279987335205
1702214495241836800,25.3648369140625,3.438699960708618,-7.307699680328369,9.024099349975586
1702214495301836800,25.4248369140625,0.8308999538421631,-7.400399684906006,7.438599586486816
1702214495361836800,25.4848369140625,-0.920199990272522,-8.967399597167969,6.20359992980957
1702214495421836800,25.5448369140625,-1.931899905204773,-10.252299308776855,1.7645999193191528
1702214495481836800,25.6048369140625,-1.8799999952316284,-8.424200057983398,0.219200000166893
1702214495541836800,25.6648369140625,1.0231999158859253,-5.549099922180176,-1.0118999481201172
1702214495601836800,25.7248369140625,0.24539999663829803,-1.9989999532699585,-3.8576998710632324
1702214495661836800,25.7848369140625,-0.5735999941825867,-0.8481000065803528,-6.387099742889404
1702214495721836800,25.8448369140625,1.6888999938964844,0.12150000035762787,-5.8190999031066895
1702214495781836800,25.9048369140625,3.2753000259399414,0.8491999506950378,-8.155699729919434
1702214495841836800,25.9648369140625,2.870699882507324,0.3061999976634979,-13.581599235534668
1702214495901836800,26.0248369140625,0.9236999750137329,-0.2556000053882599,-11.24489974975586
1702214495961836800,26.0848369140625,1.6861000061035156,1.0340999364852905,-6.6352996826171875
1702214496021836800,26.1448369140625,0.7357999682426453,-2.5520999431610107,-5.319900035858154
1702214496081836800,26.2048369140625,-1.090999960899353,-3.6405999660491943,-4.9131999015808105
1702214496141836800,26.2648369140625,0.03610000014305115,-2.733799934387207,-2.4765000343322754
1702214496201836800,26.3248369140625,1.5231000185012817,-4.134200096130371,-0.12159999459981918
1702214496261836800,26.3848369140625,2.1496999263763428,-5.479899883270264,0.945099949836731
1702214496321836800,26.4448369140625,3.964900016784668,-5.213699817657471,3.6024999618530273
1702214496381836800,26.5048369140625,3.0530998706817627,-8.855299949645996,4.958199977874756
1702214496441836800,26.5648369140625,3.1369998455047607,-7.241099834442139,8.252300262451172
1702214496501836800,26.6248369140625,3.6547999382019043,-7.819599628448486,6.196599960327148
1702214496561836800,26.6848369140625,0.8119999766349792,-6.645299911499023,4.168499946594238
1702214496621836800,26.7448369140625,0.5593000054359436,-4.490799903869629,3.218899965286255
1702214496681836800,26.8048369140625,-1.0515999794006348,-2.8313000202178955,-0.5715999603271484
1702214496741836800,26.8648369140625,-4.482999801635742,0.6197999715805054,-0.5990999937057495
1702214496801836800,26.9248369140625,-0.13589999079704285,-2.0678999423980713,-6.624199867248535
1702214496861836800,26.9848369140625,3.2079999446868896,-1.622399926185608,-9.175999641418457
1702214496921836800,27.0448369140625,1.0227999687194824,-0.6589999794960022,-11.115300178527832
1702214496981836800,27.1048369140625,0.7238999605178833,-0.4781000018119812,-8.25879955291748
1702214497041836800,27.1648369140625,3.445499897003174,3.1298999786376953,-6.109899997711182
1702214497101836800,27.2248369140625,1.8631999492645264,-2.698699951171875,-6.484899997711182
1702214497161836800,27.2848369140625,-4.091700077056885,-5.7652997970581055,-9.148399353027344
1702214497221836800,27.3448369140625,0.826200008392334,-4.108099937438965,-2.3362998962402344
1702214497281836800,27.4048369140625,2.5290000438690186,-3.334699869155884,1.8152999877929688
1702214497341836800,27.4648369140625,3.2509000301361084,-4.033899784088135,5.111999988555908
1702214497401836800,27.5248369140625,2.2042999267578125,-3.698199987411499,5.625499725341797
1702214497461836800,27.5848369140625,1.260599970817566,-4.841799736022949,5.52079963684082
1702214497521836800,27.6448369140625,1.6972999572753906,-5.53879976272583,3.786799907684326
1702214497581836800,27.7048369140625,2.5595998764038086,-5.513999938964844,6.369799613952637
1702214497641836800,27.7648369140625,1.4498000144958496,-6.556999683380127,5.454999923706055
1702214497701836800,27.8248369140625,-1.0276999473571777,-7.0792999267578125,3.5501999855041504
1702214497761836800,27.8848369140625,0.38279998302459717,-3.545799970626831,1.8202999830245972
1702214497821836800,27.9448369140625,-0.8841999769210815,-0.9197999835014343,-0.3107999861240387
1702214497881836800,28.0048369140625,-4.664700031280518,0.46629998087882996,-0.15850000083446503
1702214497941836800,28.0648369140625,2.613600015640259,-2.2985000610351562,-1.9325999021530151
1702214498001836800,28.1248369140625,6.269399642944336,-3.2314999103546143,-8.426300048828125
1702214498061836800,28.1848369140625,6.251499652862549,-1.6159999370574951,-11.059700012207031
1702214498121836800,28.2448369140625,4.302199840545654,0.31529998779296875,-6.665299892425537
1702214498181836800,28.3048369140625,3.0734000205993652,1.7657999992370605,-6.569200038909912
1702214498241836800,28.3648369140625,2.975800037384033,-3.628000020980835,-6.912399768829346
1702214498301836800,28.4248369140625,0.08349999785423279,-8.82289981842041,-8.929399490356445
1702214498361836800,28.4848369140625,1.214900016784668,-5.888700008392334,-2.1807000637054443
1702214498421836800,28.5448369140625,0.44449999928474426,-4.6915998458862305,2.289099931716919
1702214498481836800,28.6048369140625,0.31039997935295105,-4.673500061035156,5.589799880981445
1702214498541836800,28.6648369140625,0.4275999963283539,-3.9823999404907227,6.614199638366699
1702214498601836800,28.7248369140625,0.3610999882221222,-4.545000076293945,6.301300048828125
1702214498661836800,28.7848369140625,0.8902999758720398,-6.236499786376953,4.895699977874756
1702214498721836800,28.8448369140625,1.564099907875061,-7.8852996826171875,6.659599781036377
1702214498781836800,28.9048369140625,-0.652999997138977,-8.684100151062012,4.102499961853027
1702214498841836800,28.9648369140625,-0.5845000147819519,-7.066400051116943,3.9041998386383057
1702214498901836800,29.0248369140625,0.3052999973297119,-4.268599987030029,2.3085999488830566
1702214498961836800,29.0848369140625,-0.7637999653816223,-1.7669999599456787,-0.03529999777674675
1702214499021836800,29.1448369140625,-0.2775999903678894,-0.7565000057220459,-3.9948999881744385
1702214499081836800,29.2048369140625,2.1191999912261963,-1.549299955368042,-8.20300006866455
1702214499141836800,29.2648369140625,-1.771799921989441,0.17710000276565552,-6.463799953460693
1702214499201836800,29.3248369140625,-1.9641000032424927,1.4879999160766602,-7.481400012969971
1702214499261836800,29.3848369140625,-2.3970999717712402,2.403599977493286,-7.75499963760376
1702214499321836800,29.4448369140625,-1.0092999935150146,1.4981999397277832,-9.016900062561035
1702214499381836800,29.5048369140625,-2.6511998176574707,-0.41920000314712524,-7.551799774169922
1702214499441836800,29.5648369140625,-3.3000998497009277,-3.9873998165130615,-6.252500057220459
1702214499501836800,29.6248369140625,-1.6128000020980835,-4.440499782562256,-3.880999803543091
1702214499561836800,29.6848369140625,1.101099967956543,-3.894399881362915,-0.6015999913215637
1702214499621836800,29.7448369140625,2.16759991645813,-4.495999813079834,2.2818000316619873
1702214499681836800,29.8048369140625,3.1181998252868652,-5.412499904632568,4.074899673461914
1702214499741836800,29.8648369140625,3.805499792098999,-5.4776997566223145,5.340399742126465
1702214499801836800,29.9248369140625,4.929699897766113,-5.412399768829346,6.9191999435424805
1702214499861836800,29.9848369140625,2.648900032043457,-7.371199607849121,6.339999675750732
1702214499921836800,30.0448369140625,0.75409996509552,-7.951299667358398,4.9726996421813965
1702214499981836800,30.1048369140625,-0.5857999920845032,-8.110799789428711,1.6001999378204346
1702214500041836800,30.1648369140625,0.8763999938964844,-5.487099647521973,0.996399998664856
1702214500101836800,30.2248369140625,1.4246000051498413,-2.09089994430542,-0.060099996626377106
1702214500161836800,30.2848369140625,-0.3983999788761139,-0.6313999891281128,-2.0314998626708984
1702214500221836800,30.3448369140625,-1.4157999753952026,-0.5006999969482422,-5.839099884033203
1702214500281836800,30.4048369140625,-0.13079999387264252,0.2465999871492386,-7.760200023651123
1702214500341836800,30.4648369140625,0.8852999806404114,1.1657999753952026,-7.699899673461914
1702214500401836800,30.5248369140625,-0.6761999726295471,0.7849999666213989,-9.910599708557129
1702214500461836800,30.5848369140625,0.12399999797344208,-0.11889999359846115,-11.082399368286133
1702214500521836800,30.6448369140625,-1.1473000049591064,0.0023999998811632395,-7.174799919128418
1702214500581836800,30.7048369140625,-4.05620002746582,-4.197400093078613,-6.9492998123168945
1702214500641836800,30.7648369140625,-0.4271000027656555,-3.2836999893188477,-3.4563000202178955
1702214500701836800,30.8248369140625,1.0181999206542969,-2.808199882507324,0.48729997873306274
1702214500761836800,30.8848369140625,1.6753000020980835,-3.557799816131592,3.5237998962402344
1702214500821836800,30.9448369140625,2.224799871444702,-3.6887998580932617,5.253999710083008
1702214500881836800,31.0048369140625,2.319399833679199,-5.199699878692627,5.858299732208252
1702214500941836800,31.0648369140625,2.6419999599456787,-6.593999862670898,5.13539981842041
1702214501001836800,31.1248369140625,3.133699893951416,-8.466599464416504,5.133899688720703
1702214501061836800,31.1848369140625,-0.7667999863624573,-8.673799514770508,4.085299968719482
1702214501121836800,31.2448369140625,-0.5613999962806702,-5.759399890899658,4.3024001121521
1702214501181836800,31.3048369140625,-0.26759999990463257,-3.407099962234497,2.267400026321411
1702214501241836800,31.3648369140625,-0.2565000057220459,-1.4621999263763428,0.14669999480247498
1702214501301836800,31.4248369140625,0.3716999888420105,-1.1578999757766724,-2.521899938583374
1702214501361836800,31.4848369140625,-0.28630000352859497,-0.09869999438524246,-6.006700038909912
1702214501421836800,31.5448369140625,-0.038100000470876694,1.0422999858856201,-8.714499473571777
1702214501481836800,31.6048369140625,-1.5651999711990356,1.82669997215271,-10.335399627685547
1702214501541836800,31.6648369140625,-1.9472999572753906,-0.6031000018119812,-10.463500022888184
1702214501601836800,31.7248369140625,0.18649999797344208,0.3693999946117401,-8.013999938964844
1702214501661836800,31.7848369140625,0.7673999667167664,-3.151899814605713,-5.495100021362305
1702214501721836800,31.8448369140625,-0.24249999225139618,-3.867499828338623,-3.9417998790740967
1702214501781836800,31.9048369140625,0.15269999206066132,-3.7040998935699463,-1.451799988746643
1702214501841836800,31.9648369140625,1.4880999326705933,-3.1838998794555664,0.8220999836921692
1702214501901836800,32.0248369140625,2.2944998741149902,-3.4726998805999756,2.6601998805999756
1702214501961836800,32.0848369140625,3.05649995803833,-4.32289981842041,4.067899703979492
1702214502021836800,32.1448369140625,3.797799825668335,-4.918699741363525,5.255499839782715
1702214502081836800,32.2048369140625,3.921299934387207,-6.517099857330322,7.785099983215332
1702214502141836800,32.2648369140625,1.4142999649047852,-6.839399814605713,7.229799747467041
1702214502201836800,32.3248369140625,-1.37909996509552,-8.032899856567383,4.254300117492676
1702214502261836800,32.3848369140625,-1.4262999296188354,-7.388399600982666,1.5216000080108643
1702214502321836800,32.4448369140625,0.6031999588012695,-4.3078999519348145,0.6036999821662903
1702214502381836800,32.5048369140625,0.27059999108314514,-2.33489990234375,-1.2786999940872192
1702214502441836800,32.5648369140625,-0.5417999625205994,-1.7975999116897583,-4.771599769592285
1702214502501836800,32.6248369140625,0.7245999574661255,0.49779999256134033,-7.232199668884277
1702214502561836800,32.6848369140625,1.3658000230789185,2.39739990234375,-6.611000061035156
1702214502621836800,32.7448369140625,-0.6180999875068665,1.8233999013900757,-8.397099494934082
1702214502681836800,32.8048369140625,-1.3681999444961548,-0.060099996626377106,-8.613399505615234
1702214502741836800,32.8648369140625,-0.25529998540878296,-0.04019999876618385,-7.8394999504089355
1702214502801836800,32.9248369140625,-0.8449999690055847,-2.247299909591675,-6.153800010681152
1702214502861836800,32.9848369140625,-1.542099952697754,-3.2430999279022217,-4.23769998550415
1702214502921836800,33.0448369140625,-0.6240999698638916,-2.2370998859405518,-3.2538998126983643
1702214502981836800,33.1048369140625,1.6344999074935913,-2.6126999855041504,-0.24979999661445618
1702214503041836800,33.1648369140625,2.66729998588562,-3.7684998512268066,2.5321998596191406
1702214503101836800,33.2248369140625,2.9651999473571777,-4.01800012588501,3.6701998710632324
1702214503161836800,33.2848369140625,2.904899835586548,-4.457799911499023,4.23829984664917
1702214503221836800,33.3448369140625,2.78059983253479,-5.885499954223633,3.52839994430542
1702214503281836800,33.4048369140625,1.5994999408721924,-4.849899768829346,4.6905999183654785
1702214503341836800,33.4648369140625,-0.8868999481201172,-4.940099716186523,6.133800029754639
1702214503401836800,33.5248369140625,0.8522999882698059,-5.691499710083008,5.409499645233154
1702214503461836800,33.5848369140625,0.11089999973773956,-6.27079963684082,2.7769999504089355
1702214503521836800,33.6448369140625,-0.07679999619722366,-3.4006998538970947,-0.15680000185966492
1702214503581836800,33.7048369140625,-0.8222999572753906,-1.091499924659729,-5.022299766540527
1702214503641836800,33.7648369140625,-1.9783999919891357,1.5794999599456787,-4.811899662017822
1702214503701836800,33.8248369140625,-0.2272999882698059,2.82289981842041,-4.381799697875977
1702214503761836800,33.8848369140625,-0.8162999749183655,1.652899980545044,-5.776400089263916
1702214503821836800,33.9448369140625,-3.8417999744415283,-0.07199999690055847,-11.002399444580078
1702214503881836800,34.0048369140625,-2.14520001411438,1.8731999397277832,-8.535300254821777
1702214503941836800,34.0648369140625,0.28209999203681946,0.2239999920129776,-2.7460999488830566
1702214504001836800,34.1248369140625,0.34129998087882996,-4.283999919891357,-3.232100009918213
1702214504061836800,34.1848369140625,-1.8869999647140503,-3.5730998516082764,-6.635499954223633
1702214504121836800,34.2448369140625,1.2491999864578247,-2.536900043487549,-1.131500005722046
1702214504181836800,34.3048369140625,2.788599967956543,-2.874799966812134,2.6469998359680176
1702214504241836800,34.3648369140625,3.276399850845337,-3.7258999347686768,5.32480001449585
1702214504301836800,34.4248369140625,3.0749998092651367,-4.143599987030029,6.3043999671936035
1702214504361836800,34.4848369140625,2.2936999797821045,-5.269999980926514,5.158400058746338
1702214504421836800,34.5448369140625,1.5992999076843262,-6.559700012207031,5.382400035858154
1702214504481836800,34.6048369140625,0.4456999897956848,-6.5157999992370605,5.570399761199951
1702214504541836800,34.6648369140625,0.4980999827384949,-7.739099979400635,2.3613998889923096
1702214504601836800,34.7248369140625,-0.20509999990463257,-6.568699836730957,-0.16849999129772186
1702214504661836800,34.7848369140625,0.11699999868869781,-2.0446999073028564,-2.3447999954223633
1702214504721836800,34.8448369140625,-1.7174999713897705,1.1520999670028687,-4.2002997398376465
1702214504781836800,34.9048369140625,-1.625999927520752,1.1723999977111816,-5.753399848937988
1702214504841836800,34.9648369140625,0.13359999656677246,2.0286998748779297,-4.863499641418457
1702214504901836800,35.0248369140625,0.5273999571800232,1.427799940109253,-4.536200046539307
1702214504961836800,35.0848369140625,-1.9751999378204346,-0.9059000015258789,-8.745800018310547
1702214505021836800,35.1448369140625,-3.559799909591675,0.5396999716758728,-8.637299537658691
1702214505081836800,35.2048369140625,-0.8190999627113342,2.208099842071533,-2.5901999473571777
1702214505141836800,35.2648369140625,-0.5076000094413757,-2.348299980163574,-2.482499837875366
1702214505201836800,35.3248369140625,-2.7298998832702637,-2.9268999099731445,-5.632199764251709
1702214505261836800,35.3848369140625,0.37629997730255127,-2.242499828338623,-2.8989999294281006
1702214505321865000,35.44486499023437,2.7503998279571533,-2.1935999393463135,0.8399999737739563
1702214505381836800,35.5048369140625,3.6288998126983643,-3.166299819946289,3.2551000118255615
1702214505441836800,35.5648369140625,3.9606997966766357,-4.22659969329834,4.3491997718811035
1702214505501836800,35.6248369140625,1.7117999792099,-7.435400009155273,1.6191999912261963
1702214505561836800,35.6848369140625,1.6236999034881592,-6.243599891662598,4.370999813079834
1702214505621836800,35.7448369140625,2.958699941635132,-5.620599746704102,6.976799964904785
1702214505681836800,35.8048369140625,1.0633000135421753,-5.501399993896484,5.400899887084961
1702214505741836800,35.8648369140625,1.4966999292373657,-4.835099697113037,3.722100019454956
1702214505801836800,35.9248369140625,0.6053999662399292,-2.600800037384033,0.37849998474121094
1702214505861836800,35.9848369140625,-1.8125998973846436,-0.8167999982833862,-2.407599925994873
1702214505921836800,36.0448369140625,-3.0648000240325928,-0.3335999846458435,-6.327099800109863
1702214505981836800,36.1048369140625,-0.3260999917984009,0.34869998693466187,-7.636199951171875
1702214506041836800,36.1648369140625,-1.4940999746322632,1.0741000175476074,-7.136999607086182
1702214506101836800,36.2248369140625,-3.6233999729156494,0.663100004196167,-6.884199619293213
1702214506161836800,36.2848369140625,-1.0139999389648438,1.3865000009536743,-6.700799942016602
1702214506221836800,36.3448369140625,-1.229699969291687,-1.7044999599456787,-4.544600009918213
1702214506281836800,36.4048369140625,-1.472599983215332,-3.019899845123291,-4.1057000160217285
1702214506341836800,36.4648369140625,0.19460000097751617,-1.0340999364852905,-1.8496999740600586
1702214506401836800,36.5248369140625,1.0749000310897827,-0.7213000059127808,1.3657000064849854
1702214506461836800,36.5848369140625,1.82069993019104,-1.549299955368042,3.6057000160217285
1702214506521836800,36.6448369140625,2.068699836730957,-2.7955000400543213,3.571199893951416
1702214506581836800,36.7048369140625,0.789900004863739,-5.553299903869629,1.6404999494552612
1702214506641836800,36.7648369140625,1.2065999507904053,-4.626899719238281,2.869999885559082
1702214506701836800,36.8248369140625,2.6982998847961426,-4.461899757385254,5.596199989318848
1702214506761836800,36.8848369140625,2.2358999252319336,-7.018499851226807,3.743499994277954
1702214506821838300,36.94483837890625,1.3508999347686768,-5.991499900817871,1.3562999963760376
1702214506881836800,37.0048369140625,2.639899969100952,-1.647499918937683,1.3320000171661377
1702214506941836800,37.0648369140625,1.4785999059677124,1.0520999431610107,1.361899971961975
1702214507001836800,37.1248369140625,-0.4300999939441681,1.0306999683380127,-0.0026000000070780516
1702214507061836800,37.1848369140625,0.3270999789237976,-0.7110999822616577,-3.1803998947143555
1702214507121836800,37.2448369140625,0.8059999942779541,-0.5187999606132507,-6.896299839019775
1702214507181836800,37.3048369140625,-1.3547999858856201,-0.01979999989271164,-11.63479995727539
1702214507241836800,37.3648369140625,-2.5521998405456543,2.425600051879883,-6.663099765777588
1702214507301836800,37.4248369140625,0.24009999632835388,1.0987999439239502,-7.352799892425537
1702214507361836800,37.4848369140625,-1.1445999145507812,-0.2962000072002411,-7.083699703216553
1702214507421836800,37.5448369140625,-3.072000026702881,-3.9101998805999756,-6.326600074768066
1702214507481836800,37.6048369140625,-0.9314000010490417,-3.981599807739258,-3.8241000175476074
1702214507541836800,37.6648369140625,2.163100004196167,-3.115799903869629,0.12219999730587006
1702214507601836800,37.7248369140625,3.5032999515533447,-3.554799795150757,2.865799903869629
1702214507661836800,37.7848369140625,3.643699884414673,-3.546299934387207,4.092299938201904
1702214507721836800,37.8448369140625,3.271399974822998,-4.7546000480651855,4.755799770355225
1702214507781836800,37.9048369140625,3.8416998386383057,-5.055699825286865,5.620500087738037
1702214507841836800,37.9648369140625,1.4483000040054321,-6.234799861907959,6.046000003814697
1702214507901836800,38.0248369140625,-0.45639997720718384,-8.416399955749512,3.321899890899658
1702214507961836800,38.0848369140625,-0.8211999535560608,-8.035599708557129,1.8341999053955078
1702214508021836800,38.1448369140625,0.9615999460220337,-3.271199941635132,2.3969998359680176
1702214508081836800,38.2048369140625,0.2457999885082245,-0.21879999339580536,1.0728999376296997
1702214508141836800,38.2648369140625,-0.8848999738693237,0.055299997329711914,-0.2742999792098999
1702214508201836800,38.3248369140625,0.24129998683929443,-0.38199999928474426,-4.049999713897705
1702214508261836800,38.3848369140625,0.7777000069618225,-1.4661999940872192,-10.094799995422363
1702214508321865000,38.44486499023437,4.768599987030029,-1.093500018119812,-12.7701997756958
1702214508381836800,38.5048369140625,1.7609999179840088,-0.8779000043869019,-11.314899444580078
1702214508441836800,38.5648369140625,2.162799835205078,2.2973999977111816,-6.727399826049805
1702214508501836800,38.6248369140625,-0.29649999737739563,-1.9931999444961548,-4.773299694061279
1702214508561836800,38.6848369140625,-1.7941999435424805,-3.893899917602539,-6.31119966506958
1702214508621836800,38.7448369140625,0.6222000122070312,-3.608099937438965,-2.85509991645813
1702214508681836800,38.8048369140625,2.357599973678589,-4.6728997230529785,0.5209000110626221
1702214508741836800,38.8648369140625,2.493799924850464,-5.6539998054504395,2.65559983253479
1702214508801836800,38.9248369140625,3.262699842453003,-5.14139986038208,8.650899887084961
1702214508861836800,38.9848369140625,3.7926998138427734,-4.460599899291992,8.252799987792969
1702214508921836800,39.0448369140625,6.969699859619141,-7.814599990844727,5.891499996185303
1702214508981836800,39.1048369140625,1.2243000268936157,-9.594399452209473,4.70989990234375
1702214509041836800,39.1648369140625,-4.793799877166748,-8.590700149536133,2.2074999809265137
1702214509101836800,39.2248369140625,-4.882699966430664,-4.11299991607666,1.6373999118804932
1702214509161836800,39.2848369140625,-0.9739999771118164,-1.8671000003814697,1.8923999071121216
1702214509221836800,39.3448369140625,0.33809998631477356,-0.3878999948501587,0.7443000078201294
1702214509281836800,39.4048369140625,1.2863999605178833,-0.9343999624252319,-1.5412999391555786
1702214509341836800,39.4648369140625,2.444399833679199,-0.9126999974250793,-6.333399772644043
1702214509401836800,39.5248369140625,3.9124999046325684,-0.07919999957084656,-9.084799766540527
1702214509461836800,39.5848369140625,0.9180999994277954,0.47769999504089355,-9.240900039672852
1702214509521836800,39.6448369140625,-0.249099999666214,1.583299994468689,-7.060199737548828
1702214509581836800,39.7048369140625,-0.1873999983072281,2.9417998790740967,-6.387099742889404
1702214509641836800,39.7648369140625,-2.4393999576568604,-2.2946999073028564,-8.491799354553223
1702214509701836800,39.8248369140625,-2.407899856567383,-4.1803998947143555,-8.109600067138672
1702214509761836800,39.8848369140625,1.6359999179840088,-3.599900007247925,-1.5684999227523804
1702214509821865000,39.94486499023437,3.0876998901367188,-3.959199905395508,2.005499839782715
1702214509881836800,40.0048369140625,3.2788000106811523,-4.798999786376953,3.932999849319458
1702214509941836800,40.0648369140625,2.7268998622894287,-5.045000076293945,4.508599758148193
1702214510001836800,40.1248369140625,4.096199989318848,-5.747200012207031,6.638799667358398
1702214510061836800,40.1848369140625,1.9833999872207642,-6.358500003814697,6.510200023651123
1702214510121836800,40.2448369140625,-1.3808000087738037,-6.627999782562256,6.5214996337890625
1702214510181836800,40.3048369140625,-0.5737999677658081,-5.9014997482299805,3.5652999877929688
1702214510241836800,40.3648369140625,-1.6065999269485474,-4.936899662017822,1.6270999908447266
1702214510301836800,40.4248369140625,0.17009998857975006,-3.5326998233795166,1.4728000164031982
1702214510361836800,40.4848369140625,1.4753999710083008,-1.7630000114440918,0.260699987411499
1702214510421836800,40.5448369140625,1.8198999166488647,-1.2202999591827393,-3.086099863052368
1702214510481836800,40.6048369140625,1.843999981880188,0.4213999807834625,-6.728799819946289
1702214510541836800,40.6648369140625,1.8717999458312988,1.083299994468689,-6.460599899291992
1702214510601836800,40.7248369140625,0.02879999950528145,1.1236000061035156,-9.250699996948242
1702214510661836800,40.7848369140625,-0.016099998727440834,0.07229999452829361,-9.999199867248535
1702214510721836800,40.8448369140625,0.580299973487854,1.930899977684021,-7.135799884796143
1702214510781836800,40.9048369140625,-3.354300022125244,-5.614599704742432,-10.902899742126465
1702214510841836800,40.9648369140625,-1.2257000207901,-5.051799774169922,-7.01479959487915
1702214510901836800,41.0248369140625,2.3701000213623047,-3.0936999320983887,-0.7911999821662903
1702214510961836800,41.0848369140625,3.1619999408721924,-3.3969998359680176,2.4723000526428223
1702214511021836800,41.1448369140625,2.071699857711792,-4.665499687194824,3.682799816131592
1702214511081836800,41.2048369140625,2.3169000148773193,-5.1519999504089355,3.0146000385284424
1702214511141836800,41.2648369140625,4.57889986038208,-5.148600101470947,5.527400016784668
1702214511201836800,41.3248369140625,5.731199741363525,-7.013299942016602,7.326900005340576
1702214511261836800,41.3848369140625,2.7971999645233154,-8.025899887084961,7.346399784088135
1702214511321865000,41.44486499023437,0.33559998869895935,-8.613200187683105,3.662299871444702
1702214511381836800,41.5048369140625,-2.9872000217437744,-7.604499816894531,-0.8226999640464783
1702214511441836800,41.5648369140625,0.0722000002861023,-4.870199680328369,0.349700003862381
1702214511501836800,41.6248369140625,1.7108999490737915,-1.9285999536514282,-0.7182999849319458
1702214511561836800,41.6848369140625,1.601599931716919,0.052799999713897705,-0.37619999051094055
1702214511621836800,41.7448369140625,3.0874998569488525,0.20739999413490295,-3.5516998767852783
1702214511681836800,41.8048369140625,3.3857998847961426,0.46369999647140503,-9.885600090026855
1702214511741836800,41.8648369140625,1.1962000131607056,0.6290000081062317,-16.86240005493164
1702214511801836800,41.9248369140625,2.8794000148773193,1.000100016593933,-9.118399620056152
1702214511861836800,41.9848369140625,3.6233999729156494,2.552500009536743,-5.80019998550415
1702214511921836800,42.0448369140625,1.062399983406067,-5.513000011444092,-9.647699356079102
1702214511981836800,42.1048369140625,-1.5654999017715454,-8.441999435424805,-8.11870002746582
1702214512041836800,42.1648369140625,0.9292999505996704,-6.384699821472168,-1.2207999229431152
1702214512101836800,42.2248369140625,1.8233000040054321,-6.068199634552002,2.6902999877929688
1702214512161836800,42.2848369140625,1.834999918937683,-6.445999622344971,4.930799961090088
1702214512221836800,42.3448369140625,2.41159987449646,-5.608299732208252,6.008699893951416
1702214512281836800,42.4048369140625,3.5292999744415283,-4.91349983215332,8.894499778747559
1702214512341836800,42.4648369140625,2.254999876022339,-6.569200038909912,9.165800094604492
1702214512401836800,42.5248369140625,0.1890999972820282,-6.495999813079834,5.956299781799316
1702214512461836800,42.5848369140625,-1.4809999465942383,-8.835899353027344,5.001699924468994
1702214512521836800,42.6448369140625,-1.6585999727249146,-10.728099822998047,-0.8029999732971191
1702214512581836800,42.7048369140625,-0.9329999685287476,-6.662600040435791,-0.8488999605178833
1702214512641836800,42.7648369140625,0.2587999999523163,-2.611799955368042,-1.0673999786376953
1702214512701836800,42.8248369140625,0.2800999879837036,-1.2447999715805054,-2.2886998653411865
1702214512761836800,42.8848369140625,0.7744999527931213,-0.9960999488830566,-5.447700023651123
1702214512821836800,42.9448369140625,1.8671998977661133,0.41130000352859497,-7.843899726867676
1702214512881836800,43.0048369140625,2.791299819946289,2.9047000408172607,-8.501099586486816
1702214512941836800,43.0648369140625,0.526699960231781,1.8066999912261963,-10.563799858093262
1702214513001836800,43.1248369140625,-0.47119998931884766,-0.06319999694824219,-10.94320011138916
1702214513061836800,43.1848369140625,1.4599000215530396,1.1340999603271484,-8.332300186157227
1702214513121836800,43.2448369140625,-0.10949999839067459,-3.432299852371216,-6.513099670410156
1702214513181836800,43.3048369140625,-2.7562999725341797,-6.496199607849121,-6.153199672698975
1702214513241836800,43.3648369140625,-0.0811999961733818,-5.536799907684326,-2.5409998893737793
1702214513301836800,43.4248369140625,2.0702998638153076,-5.183599948883057,0.9982999563217163
1702214513361836800,43.4848369140625,2.7649998664855957,-5.541999816894531,3.336099863052368
1702214513421836800,43.5448369140625,3.088399887084961,-5.798799991607666,5.713099956512451
1702214513481836800,43.6048369140625,3.621999979019165,-6.188199996948242,9.092999458312988
1702214513541836800,43.6648369140625,1.935499906539917,-7.036099910736084,9.083600044250488
1702214513601836800,43.7248369140625,-0.25939998030662537,-9.05270004272461,6.653800010681152
1702214513661836800,43.7848369140625,0.010599999688565731,-10.556900024414062,1.3113999366760254
1702214513721836800,43.8448369140625,-2.014400005340576,-6.7428998947143555,1.0620999336242676
1702214513781836800,43.9048369140625,0.43849998712539673,-2.8840999603271484,1.6115999221801758
1702214513841836800,43.9648369140625,0.2660999894142151,-1.1453999280929565,0.6079999804496765
1702214513901836800,44.0248369140625,0.7670999765396118,-1.8062999248504639,-3.4896998405456543
1702214513961836800,44.0848369140625,-0.35909998416900635,-1.3586000204086304,-11.601299285888672
1702214514021836800,44.1448369140625,2.2848000526428223,0.9932999610900879,-12.054499626159668
1702214514081836800,44.2048369140625,1.6591999530792236,1.0128999948501587,-8.905499458312988
1702214514141836800,44.2648369140625,1.8456000089645386,0.7667999863624573,-9.38129997253418
1702214514201836800,44.3248369140625,1.7259999513626099,-0.8161999583244324,-8.319600105285645
1702214514261836800,44.3848369140625,0.32519999146461487,-5.237199783325195,-6.498899936676025
1702214514321836800,44.4448369140625,0.5364999771118164,-4.444299697875977,-3.0518999099731445
1702214514381836800,44.5048369140625,1.5414999723434448,-4.501499652862549,0.660099983215332
1702214514441836800,44.5648369140625,0.6660999655723572,-4.744699954986572,3.290599822998047
1702214514501836800,44.6248369140625,0.9398999810218811,-5.508299827575684,4.027899742126465
1702214514561836800,44.6848369140625,1.44760000705719,-6.1468000411987305,6.252799987792969
1702214514621836800,44.7448369140625,1.0353000164031982,-4.382899761199951,8.378299713134766
1702214514681836800,44.8048369140625,-0.5011000037193298,-5.753599643707275,8.374899864196777
1702214514741836800,44.8648369140625,-0.18930000066757202,-8.717100143432617,4.480199813842773
1702214514801836800,44.9248369140625,-1.45169997215271,-8.077400207519531,1.5247999429702759
1702214514861836800,44.9848369140625,0.052400000393390656,-4.237599849700928,1.2688000202178955
1702214514921836800,45.0448369140625,1.3914999961853027,-1.9347999095916748,0.4016000032424927
1702214514981836800,45.1048369140625,1.0641000270843506,-1.4354000091552734,-2.116999864578247
1702214515041836800,45.1648369140625,0.9477999806404114,-1.5686999559402466,-6.643399715423584
1702214515101836800,45.2248369140625,1.253499984741211,-0.18869999051094055,-10.993499755859375
1702214515161836800,45.2848369140625,0.9074999690055847,0.820099949836731,-11.45259952545166
1702214515221836800,45.3448369140625,0.8199999928474426,-0.6421999931335449,-10.826699256896973
1702214515281836800,45.4048369140625,0.6625999808311462,-0.4616999924182892,-5.989500045776367
1702214515341836800,45.4648369140625,-1.3054999113082886,-5.271699905395508,-5.320099830627441
1702214515401836800,45.5248369140625,-1.531499981880188,-5.288700103759766,-2.7863998413085938
1702214515461836800,45.5848369140625,0.9648999571800232,-4.593999862670898,2.2639000415802
1702214515521836800,45.6448369140625,1.8320999145507812,-2.7256999015808105,5.911499977111816
1702214515581836800,45.7048369140625,2.2276999950408936,-2.187700033187866,7.263700008392334
1702214515641836800,45.7648369140625,1.9224998950958252,-3.1970999240875244,6.548299789428711
1702214515701836800,45.8248369140625,1.154099941253662,-4.669399738311768,3.711399793624878
1702214515761836800,45.8848369140625,0.5751000046730042,-4.905600070953369,1.9434999227523804
1702214515821836800,45.9448369140625,2.0153000354766846,-5.229599952697754,3.4891998767852783
1702214515881836800,46.0048369140625,3.4995999336242676,-4.77810001373291,1.249400019645691
1702214515941836800,46.0648369140625,0.18599998950958252,-3.850600004196167,0.02709999866783619
1702214516001836800,46.1248369140625,-0.9696999788284302,0.2087000012397766,-1.0383999347686768
1702214516061836800,46.1848369140625,-0.6305999755859375,2.049999952316284,-0.9083999991416931
1702214516121836800,46.2448369140625,-0.15929999947547913,1.473699927330017,-0.5090000033378601
1702214516181836800,46.3048369140625,-1.7292999029159546,1.6159999370574951,-3.0398998260498047
1702214516241836800,46.3648369140625,-3.5421998500823975,0.5417999625205994,-6.0218000411987305
1702214516301836800,46.4248369140625,-2.743000030517578,-0.5067999958992004,-6.0478997230529785
1702214516361836800,46.4848369140625,-2.078700065612793,-1.0672999620437622,-5.237599849700928
1702214516421836800,46.5448369140625,-0.606499969959259,0.3650999963283539,-3.4872000217437744
1702214516481836800,46.6048369140625,-0.5006999969482422,-1.7615998983383179,-2.0023999214172363
1702214516541836800,46.6648369140625,0.3879999816417694,-2.0334999561309814,-1.3481999635696411
1702214516601836800,46.7248369140625,1.913599967956543,-0.8755999803543091,0.23070000112056732
1702214516661836800,46.7848369140625,1.9835999011993408,-0.49719998240470886,2.224599838256836
1702214516721836800,46.8448369140625,2.010999917984009,-0.8138999938964844,3.6885998249053955
1702214516781836800,46.9048369140625,1.5261999368667603,-1.5321999788284302,3.9701998233795166
1702214516841836800,46.9648369140625,0.6089000105857849,-2.7342000007629395,2.987499952316284
1702214516901836800,47.0248369140625,2.0149998664855957,-4.569499969482422,2.7137999534606934
1702214516961836800,47.0848369140625,0.17799998819828033,-4.415899753570557,0.8277999758720398
1702214517021836800,47.1448369140625,-0.4706999957561493,-2.8585000038146973,0.31540000438690186
1702214517081836800,47.2048369140625,-0.5913999676704407,-1.5550999641418457,0.757099986076355
1702214517141836800,47.2648369140625,-0.7037999629974365,1.2925000190734863,0.9311999678611755
1702214517201836800,47.3248369140625,0.13930000364780426,1.810499906539917,1.3188999891281128
1702214517261836800,47.3848369140625,0.6301999688148499,1.6079999208450317,0.5931999683380127
1702214517321836800,47.4448369140625,-0.7915999889373779,1.9448999166488647,-0.7919999957084656
1702214517381836800,47.5048369140625,-3.5047998428344727,0.044999998062849045,-2.4161999225616455
1702214517441836800,47.5648369140625,-2.6586999893188477,-0.503600001335144,-5.302099704742432
1702214517501836800,47.6248369140625,-1.6825000047683716,-0.23979999125003815,-5.66439962387085
1702214517561836800,47.6848369140625,-2.412099838256836,0.10159999877214432,-4.10159969329834
1702214517621836800,47.7448369140625,-1.9361000061035156,-1.9336999654769897,-4.408699989318848
1702214517681836800,47.8048369140625,1.1662999391555786,-0.973800003528595,-2.6399998664855957
1702214517741836800,47.8648369140625,2.2238998413085938,-0.14749999344348907,0.22429999709129333
1702214517801836800,47.9248369140625,1.382099986076355,-0.8247999548912048,1.8990999460220337
1702214517861836800,47.9848369140625,1.3701000213623047,-1.7588999271392822,2.5123000144958496
1702214517921836800,48.0448369140625,0.9037999510765076,-3.4781999588012695,2.0160999298095703
1702214517981836800,48.1048369140625,2.165600061416626,-4.384699821472168,2.7918999195098877
1702214518041836800,48.1648369140625,2.4177000522613525,-4.482199668884277,3.6999998092651367
1702214518101836800,48.2248369140625,0.6158999800682068,-3.8601999282836914,3.14739990234375
1702214518161836800,48.2848369140625,-0.1988999992609024,-3.833599805831909,2.4560999870300293
1702214518221836800,48.3448369140625,1.4950000047683716,-1.8786998987197876,2.1087000370025635
1702214518281836800,48.4048369140625,2.6057000160217285,0.11369999498128891,1.7569999694824219
1702214518341836800,48.4648369140625,1.4465999603271484,0.6376999616622925,0.6200999617576599
1702214518401836800,48.5248369140625,0.726099967956543,0.3312000036239624,-1.8853999376296997
1702214518461836800,48.5848369140625,-0.13289999961853027,0.4462999999523163,-5.053699970245361
1702214518521836800,48.6448369140625,-2.7899999618530273,-0.7161999940872192,-7.614599704742432
1702214518581836800,48.7048369140625,-2.4779999256134033,-0.142099991440773,-5.284499645233154
1702214518641836800,48.7648369140625,-0.4148999750614166,-0.37619999051094055,-4.374300003051758
1702214518701836800,48.8248369140625,-1.2390999794006348,0.4390999972820282,-3.9697999954223633
1702214518761836800,48.8848369140625,-3.7642998695373535,-1.9742999076843262,-3.3053998947143555
1702214518821836800,48.9448369140625,-0.27320000529289246,-0.9745000004768372,-1.4433000087738037
1702214518881836800,49.0048369140625,1.5787999629974365,0.17139999568462372,0.6952999830245972
1702214518941836800,49.0648369140625,1.5987999439239502,-0.10099999606609344,2.3938000202178955
1702214519001836800,49.1248369140625,2.062199831008911,-0.8154999613761902,2.8907999992370605
1702214519061836800,49.1848369140625,1.7318999767303467,-3.5488998889923096,2.4426000118255615
1702214519121836800,49.2448369140625,1.1308000087738037,-4.6591997146606445,1.3806999921798706
1702214519181836800,49.3048369140625,2.2530999183654785,-6.2368998527526855,2.789299964904785
1702214519241836800,49.3648369140625,0.5857999920845032,-4.161999702453613,1.4229999780654907
1702214519301836800,49.4248369140625,0.5541999936103821,-2.3046000003814697,2.413599967956543
1702214519361836800,49.4848369140625,1.1644999980926514,-0.6369999647140503,3.162400007247925
1702214519421836800,49.5448369140625,1.0865999460220337,1.1073999404907227,2.5083999633789062
1702214519481836800,49.6048369140625,0.6588000059127808,1.7273999452590942,1.0957000255584717
1702214519541836800,49.6648369140625,0.30820000171661377,0.47939997911453247,-0.2500999867916107
1702214519601836800,49.7248369140625,-1.126099944114685,-0.5860999822616577,-3.545599937438965
1702214519661836800,49.7848369140625,-4.087800025939941,-0.8836999535560608,-6.90339994430542
1702214519721836800,49.8448369140625,-2.6029999256134033,-1.143399953842163,-4.688299655914307
1702214519781836800,49.9048369140625,-1.621999979019165,-0.20109999179840088,-4.406399726867676
1702214519841836800,49.9648369140625,0.16920000314712524,-0.7843999862670898,-2.999799966812134
1702214519901836800,50.0248369140625,-0.7426999807357788,-1.4975999593734741,-3.750999927520752
1702214519961836800,50.0848369140625,0.8395999670028687,0.8140999674797058,-1.3991999626159668
1702214520021836800,50.1448369140625,0.7373999953269958,2.1534998416900635,1.337999939918518
1702214520081836800,50.2048369140625,1.2939999103546143,1.466399908065796,2.5597000122070312
1702214520141836800,50.2648369140625,1.955399990081787,-0.6960999965667725,2.326900005340576
1702214520201836800,50.3248369140625,-0.05829999968409538,-4.470399856567383,0.02579999901354313
1702214520261836800,50.3848369140625,-0.24459999799728394,-2.5618999004364014,1.6389999389648438
1702214520321836800,50.4448369140625,-0.022299999371170998,-6.373300075531006,4.533400058746338
1702214520381836800,50.5048369140625,3.679999828338623,-5.787099838256836,3.091599941253662
1702214520441836800,50.5648369140625,3.2670998573303223,-5.08329963684082,1.7721999883651733
1702214520501836800,50.6248369140625,2.4556000232696533,-0.31369999051094055,2.2604000568389893
1702214520561836800,50.6848369140625,1.517799973487854,1.5116000175476074,0.9524999856948853
1702214520621836800,50.7448369140625,0.17189998924732208,0.6495000123977661,-0.8986999988555908
1702214520681836800,50.8048369140625,-1.098699927330017,0.7353999614715576,-4.463699817657471
1702214520741836800,50.8648369140625,-3.5010998249053955,1.2128000259399414,-6.727599620819092
1702214520801836800,50.9248369140625,-5.158499717712402,1.8260999917984009,-6.378999710083008
1702214520861836800,50.9848369140625,-3.3538999557495117,1.6825999021530151,-6.45419979095459
1702214520921836800,51.0448369140625,-1.181999921798706,-0.07479999959468842,-5.824199676513672
1702214520981836800,51.1048369140625,-2.3875999450683594,-2.9435999393463135,-7.835599899291992
1702214521041836800,51.1648369140625,-3.720899820327759,-5.205399990081787,-7.009399890899658
1702214521101836800,51.2248369140625,1.5819000005722046,-1.7388999462127686,-2.725299835205078
1702214521161836800,51.2848369140625,4.175300121307373,-1.5233999490737915,0.7285999655723572
1702214521221836800,51.3448369140625,4.155200004577637,-4.076699733734131,2.652400016784668
1702214521281836800,51.4048369140625,3.0481998920440674,-4.718999862670898,1.5614999532699585
1702214521341836800,51.4648369140625,4.092799663543701,-5.188600063323975,2.378499984741211
1702214521401836800,51.5248369140625,4.002399921417236,-5.6875996589660645,5.115799903869629
1702214521461836800,51.5848369140625,2.428799867630005,-6.7683000564575195,7.0971999168396
1702214521521836800,51.6448369140625,1.7141000032424927,-9.785900115966797,3.663800001144409
1702214521581836800,51.7048369140625,1.2791999578475952,-6.703399658203125,3.234799861907959
1702214521641836800,51.7648369140625,0.37299999594688416,-2.1552000045776367,3.287799835205078
1702214521701836800,51.8248369140625,-0.2602999806404114,-1.0322999954223633,1.743299961090088
1702214521761836800,51.8848369140625,0.8877999782562256,-2.131999969482422,-1.920300006866455
1702214521821836800,51.9448369140625,-1.0154999494552612,-1.9657999277114868,-11.596699714660645
1702214521881836800,52.0048369140625,-1.4531999826431274,-0.37219998240470886,-13.568699836730957
1702214521941836800,52.0648369140625,-2.513000011444092,1.8381999731063843,-10.407099723815918
1702214522001836800,52.1248369140625,-1.8558999300003052,0.39419999718666077,-11.065199851989746
1702214522061836800,52.1848369140625,-0.85999995470047,0.7676999568939209,-6.990200042724609
1702214522121836800,52.2448369140625,-4.408599853515625,-5.792799949645996,-7.654599666595459
1702214522181836800,52.3048369140625,-4.097700119018555,-7.182600021362305,-8.643099784851074
1702214522241836800,52.3648369140625,2.3947999477386475,-5.372200012207031,-1.3294999599456787
1702214522301836800,52.4248369140625,4.38700008392334,-5.899199962615967,1.9972999095916748
1702214522361836800,52.4848369140625,4.605899810791016,-6.2241997718811035,3.4106998443603516
1702214522421836800,52.5448369140625,4.337899684906006,-6.5169997215271,3.3974997997283936
1702214522481836800,52.6048369140625,6.661900043487549,-7.652899742126465,6.382899761199951
1702214522541836800,52.6648369140625,6.780999660491943,-7.973799705505371,6.533999919891357
1702214522601836800,52.7248369140625,2.6297998428344727,-9.296599388122559,6.447000026702881
1702214522661836800,52.7848369140625,-0.9476999640464783,-10.445099830627441,2.078399896621704
1702214522721836800,52.8448369140625,-1.5762999057769775,-6.455999851226807,1.8948999643325806
1702214522781836800,52.9048369140625,1.3558999300003052,-4.432600021362305,1.2903000116348267
1702214522841836800,52.9648369140625,-0.0064999996684491634,-3.3407998085021973,-1.6552999019622803
1702214522901836800,53.0248369140625,-1.4891999959945679,-3.2645998001098633,-7.614599704742432
1702214522961836800,53.0848369140625,-0.3270999789237976,-0.9271999597549438,-11.81149959564209
1702214523021836800,53.1448369140625,-0.33390000462532043,1.378999948501587,-12.274999618530273
1702214523081836800,53.2048369140625,-2.2774999141693115,1.559499979019165,-13.189599990844727
1702214523141836800,53.2648369140625,-2.255199909210205,0.6372999548912048,-11.052800178527832
1702214523201836800,53.3248369140625,0.3545999825000763,-0.5529999732971191,-8.052299499511719
1702214523261836800,53.3848369140625,-2.1668999195098877,-8.68340015411377,-9.205499649047852
1702214523321836800,53.4448369140625,-0.8443999886512756,-7.924499988555908,-4.893599987030029
1702214523381836800,53.5048369140625,3.3148000240325928,-5.737099647521973,0.5573999881744385
1702214523441836800,53.5648369140625,3.523899793624878,-4.797999858856201,3.7730000019073486
1702214523501836800,53.6248369140625,3.847399950027466,-5.013400077819824,5.405399799346924
1702214523561836800,53.6848369140625,3.982800006866455,-5.193699836730957,6.85189962387085
1702214523621836800,53.7448369140625,3.664299964904785,-5.952199935913086,7.0346999168396
1702214523681836800,53.8048369140625,1.9339998960494995,-7.448599815368652,6.311999797821045
1702214523741836800,53.8648369140625,0.6358000040054321,-8.793399810791016,5.092400074005127
1702214523801836800,53.9248369140625,-3.2518999576568604,-7.279299736022949,2.4395999908447266
1702214523861836800,53.9848369140625,-1.803999900817871,-6.700999736785889,0.7824999690055847
1702214523921836800,54.0448369140625,-0.26659998297691345,-3.199699878692627,-0.5801999568939209
1702214523981836800,54.1048369140625,0.15150000154972076,-0.48889997601509094,-2.032399892807007
1702214524041836800,54.1648369140625,0.07840000092983246,-0.16910000145435333,-3.050299882888794
1702214524101836800,54.2248369140625,0.8344999551773071,-0.23439998924732208,-3.7035999298095703
1702214524161836800,54.2848369140625,2.529099941253662,0.3105999827384949,-6.752999782562256
1702214524221836800,54.3448369140625,2.4724998474121094,-0.3646000027656555,-10.765999794006348
1702214524281836800,54.4048369140625,2.888399839401245,0.344899982213974,-9.731499671936035
1702214524341836800,54.4648369140625,0.025499999523162842,0.8714999556541443,-8.168999671936035
1702214524401836800,54.5248369140625,-1.4921000003814697,-3.8696999549865723,-7.471399784088135
1702214524461836800,54.5848369140625,-0.808899998664856,-4.446399688720703,-5.948800086975098
1702214524521836800,54.6448369140625,1.3580999374389648,-3.325199842453003,-1.2451000213623047
1702214524581836800,54.7048369140625,1.3350999355316162,-3.58489990234375,2.2779998779296875
1702214524641907200,54.7649072265625,1.0943000316619873,-4.306299686431885,4.292999744415283
1702214524701836800,54.8248369140625,1.105299949645996,-4.922100067138672,4.543399810791016
1702214524761836800,54.8848369140625,2.227799892425537,-5.082599639892578,6.365999698638916
1702214524821836800,54.9448369140625,3.2388999462127686,-5.861799716949463,8.891900062561035
1702214524881836800,55.0048369140625,0.8781999945640564,-7.739599704742432,5.022200107574463
1702214524941836800,55.0648369140625,-2.8188998699188232,-6.5204997062683105,1.9296998977661133
1702214525001836800,55.1248369140625,-1.3077999353408813,-5.3831000328063965,1.4261000156402588
1702214525061836800,55.1848369140625,1.354599952697754,-2.490799903869629,1.7968999147415161
1702214525121836800,55.2448369140625,0.28369998931884766,0.26319998502731323,1.135200023651123
1702214525181836800,55.3048369140625,-0.26249998807907104,0.047599997371435165,-0.16689999401569366
1702214525241836800,55.3648369140625,1.6275999546051025,-1.0425000190734863,-2.966099977493286
1702214525301836800,55.4248369140625,2.699199914932251,-1.0236999988555908,-6.943299770355225
1702214525361836800,55.4848369140625,2.189499855041504,-0.8484999537467957,-9.56820011138916
1702214525421836800,55.5448369140625,1.767699956893921,-0.551800012588501,-7.396999835968018
1702214525481836800,55.6048369140625,0.204599991440773,1.899899959564209,-9.671899795532227
1702214525541836800,55.6648369140625,-2.135499954223633,-0.2985000014305115,-6.820699691772461
1702214525601836800,55.7248369140625,-2.748499870300293,-2.9147000312805176,-6.479499816894531
1702214525661836800,55.7848369140625,0.5437999963760376,-2.2156999111175537,-2.227099895477295
1702214525721836800,55.8448369140625,1.9698998928070068,-2.883699893951416,1.0819000005722046
1702214525781836800,55.9048369140625,2.1808998584747314,-3.904899835586548,3.0752999782562256
1702214525841836800,55.9648369140625,1.6395999193191528,-4.359299659729004,2.969599962234497
1702214525901836800,56.0248369140625,2.7251999378204346,-5.084499835968018,3.3066999912261963
1702214525961836800,56.0848369140625,2.923799991607666,-5.84660005569458,5.593499660491943
1702214526021836800,56.1448369140625,0.9052000045776367,-5.676199913024902,8.38640022277832
1702214526081836800,56.2048369140625,0.7675999999046326,-7.184899806976318,5.43619966506958
1702214526141836800,56.2648369140625,-1.295699954032898,-6.106899738311768,1.9579999446868896
1702214526201836800,56.3248369140625,0.18769998848438263,-3.1517999172210693,2.074399948120117
1702214526261836800,56.3848369140625,1.2782999277114868,-1.2777999639511108,1.527899980545044
1702214526321836800,56.4448369140625,0.7628999948501587,-1.6876999139785767,-0.8226999640464783
1702214526381836800,56.5048369140625,0.2320999950170517,-2.163800001144409,-6.219699859619141
1702214526441836800,56.5648369140625,1.6557999849319458,0.00559999980032444,-9.002999305725098
1702214526501836800,56.6248369140625,1.4579999446868896,0.8174999952316284,-8.758600234985352
1702214526561836800,56.6848369140625,-2.003700017929077,0.6355999708175659,-12.219099998474121
1702214526621836800,56.7448369140625,-0.04910000041127205,2.158400058746338,-7.509999752044678
1702214526681836800,56.8048369140625,-0.08739999681711197,-0.5149999856948853,-6.655900001525879
1702214526741836800,56.8648369140625,-5.207399845123291,-6.546499729156494,-9.32129955291748
1702214526801836800,56.9248369140625,-1.3051999807357788,-5.244999885559082,-4.654299736022949
1702214526861836800,56.9848369140625,2.901700019836426,-4.38070011138916,0.4178999960422516
1702214526921836800,57.0448369140625,3.710399866104126,-4.832200050354004,3.247999906539917
1702214526981836800,57.1048369140625,3.2761998176574707,-5.356400012969971,3.967399835586548
1702214527041836800,57.1648369140625,3.0349998474121094,-5.358599662780762,5.1194000244140625
1702214527101836800,57.2248369140625,4.061500072479248,-5.5157999992370605,8.850299835205078
1702214527161836800,57.2848369140625,2.784600019454956,-6.599799633026123,8.636799812316895
1702214527221836800,57.3448369140625,0.28619998693466187,-7.700599670410156,4.059799671173096
1702214527281836800,57.4048369140625,-2.562700033187866,-7.923399925231934,2.3571999073028564
1702214527341836800,57.4648369140625,-0.3280999958515167,-6.312099933624268,1.2480000257492065
1702214527401836800,57.5248369140625,1.2913999557495117,-3.416599988937378,0.1143999993801117
1702214527461836800,57.5848369140625,-0.1387999951839447,-2.034899950027466,-2.9632999897003174
1702214527521836800,57.6448369140625,-0.3653999865055084,-1.2996000051498413,-7.627599716186523
1702214527581836800,57.7048369140625,1.8416999578475952,0.6543999910354614,-8.360400199890137
1702214527641836800,57.7648369140625,2.0336999893188477,1.1618000268936157,-10.829899787902832
1702214527701836800,57.8248369140625,-0.4472000002861023,0.5884000062942505,-12.913399696350098
1702214527761836800,57.8848369140625,0.0471000000834465,0.5142999887466431,-10.28439998626709
1702214527821836800,57.9448369140625,0.6189999580383301,-2.853799819946289,-6.84559965133667
1702214527881836800,58.0048369140625,-1.538599967956543,-6.224899768829346,-6.696099758148193
1702214527941836800,58.0648369140625,0.469899982213974,-4.432699680328369,-2.5642998218536377
1702214528001836800,58.1248369140625,2.4644999504089355,-4.068399906158447,1.4746999740600586
1702214528061836800,58.1848369140625,2.6791999340057373,-5.1103997230529785,3.9482998847961426
1702214528121836800,58.2448369140625,2.57099986076355,-5.533699989318848,4.444799900054932
1702214528181836800,58.3048369140625,3.5670998096466064,-5.4928998947143555,4.968100070953369
1702214528241836800,58.3648369140625,2.943699836730957,-6.3078999519348145,5.89769983291626
1702214528301836800,58.4248369140625,0.8744999766349792,-6.1190996170043945,8.434499740600586
1702214528361836800,58.4848369140625,0.272599995136261,-7.973899841308594,4.441699981689453
1702214528421836800,58.5448369140625,0.16499999165534973,-7.738499641418457,1.536199927330017
1702214528481836800,58.6048369140625,1.0821999311447144,-4.9679999351501465,1.5532000064849854
1702214528541836800,58.6648369140625,0.8276000022888184,-2.1601998805999756,-0.08779999613761902
1702214528601836800,58.7248369140625,-0.895799994468689,-1.4115999937057495,-2.7289998531341553
1702214528661836800,58.7848369140625,-0.43289998173713684,-1.1461999416351318,-6.8765997886657715
1702214528721836800,58.8448369140625,1.132599949836731,0.9077999591827393,-8.621199607849121
1702214528781836800,58.9048369140625,-0.6053000092506409,2.0625998973846436,-10.009200096130371
1702214528841836800,58.9648369140625,-1.64739990234375,2.906399965286255,-9.753399848937988
1702214528901836800,59.0248369140625,-0.4220999777317047,2.2555999755859375,-8.497300148010254
1702214528961836800,59.0848369140625,-2.414099931716919,-3.2403998374938965,-10.699399948120117
1702214529021836800,59.1448369140625,-3.8374998569488525,-8.40719985961914,-9.3681001663208
1702214529081836800,59.2048369140625,0.828499972820282,-5.4604997634887695,-2.19599986076355
1702214529141836800,59.2648369140625,3.029599905014038,-5.320300102233887,2.0371999740600586
1702214529201836800,59.3248369140625,2.4955999851226807,-6.819200038909912,4.514499664306641
1702214529261836800,59.3848369140625,2.1658999919891357,-5.697499752044678,4.838500022888184
1702214529321836800,59.4448369140625,3.0394999980926514,-4.2505998611450195,6.445499897003174
1702214529381836800,59.5048369140625,3.499300003051758,-5.91409969329834,9.028499603271484
1702214529441836800,59.5648369140625,0.5461999773979187,-7.986999988555908,6.297199726104736
1702214529501836800,59.6248369140625,-1.8240000009536743,-7.980999946594238,5.089600086212158
1702214529561836800,59.6848369140625,-2.141900062561035,-6.046799659729004,2.300299882888794
1702214529621836800,59.7448369140625,-1.9924999475479126,-6.229399681091309,1.0930999517440796
1702214529681836800,59.8048369140625,-1.055299997329712,-3.9591000080108643,-1.9395999908447266
1702214529741836800,59.8648369140625,0.47079998254776,-2.316699981689453,-4.5903000831604
1702214529801836800,59.9248369140625,2.1080000400543213,-0.8797000050544739,-5.627199649810791
1702214529861836800,59.9848369140625,2.9512999057769775,1.0027999877929688,-4.754799842834473
1702214529921836800,60.0448369140625,3.4278998374938965,1.33079993724823,-5.610599994659424
1702214529981836800,60.1048369140625,1.8890999555587769,0.2443999946117401,-10.36870002746582
1702214530041836800,60.1648369140625,1.6217999458312988,-0.14079999923706055,-9.72249984741211
1702214530101836800,60.2248369140625,-0.09429999440908432,0.3968999981880188,-10.090999603271484
1702214530161836800,60.2848369140625,-1.1974999904632568,-4.2677998542785645,-6.7444000244140625
1702214530221836800,60.3448369140625,-0.7218999862670898,-6.196499824523926,-5.167299747467041
1702214530281836800,60.4048369140625,0.8592999577522278,-4.411499977111816,-0.5489999651908875
1702214530341836800,60.4648369140625,2.3334999084472656,-4.346199989318848,2.5992000102996826
1702214530401836800,60.5248369140625,3.3351998329162598,-4.926699638366699,3.9605000019073486
1702214530461836800,60.5848369140625,2.8169000148773193,-4.704999923706055,5.440700054168701
1702214530521836800,60.6448369140625,1.7733999490737915,-5.637899875640869,6.338399887084961
1702214530581836800,60.7048369140625,1.9893999099731445,-6.519599914550781,8.688699722290039
1702214530641836800,60.7648369140625,2.884199857711792,-7.639400005340576,8.051599502563477
1702214530701836800,60.8248369140625,0.4693000018596649,-8.589799880981445,2.7021000385284424
1702214530761836800,60.8848369140625,-0.9142999649047852,-6.747999668121338,2.933199882507324
1702214530821836800,60.9448369140625,1.087899923324585,-5.138899803161621,1.919600009918213
1702214530881836800,61.0048369140625,0.9945999979972839,-4.3180999755859375,-1.2323999404907227
1702214530941836800,61.0648369140625,0.5769999623298645,-3.2757999897003174,-5.839200019836426
1702214531001836800,61.1248369140625,3.540299892425537,-2.226300001144409,-9.353300094604492
1702214531061836800,61.1848369140625,5.70959997177124,-0.19059999287128448,-9.56779956817627
1702214531121836800,61.2448369140625,3.1009998321533203,0.9941999912261963,-15.356199264526367
1702214531181836800,61.3048369140625,0.9492999911308289,1.52839994430542,-12.705499649047852
1702214531241836800,61.3648369140625,0.5489000082015991,0.7107999920845032,-8.650400161743164
1702214531301836800,61.4248369140625,-1.6852999925613403,-7.016299724578857,-8.776199340820312
1702214531361836800,61.4848369140625,-2.217099905014038,-8.434399604797363,-6.136399745941162
1702214531421836800,61.5448369140625,1.2493000030517578,-7.669999599456787,-0.6908000111579895
1702214531481836800,61.6048369140625,2.5135998725891113,-6.665499687194824,3.0120999813079834
1702214531541836800,61.6648369140625,2.000699996948242,-7.138299942016602,4.451099872589111
1702214531601836800,61.7248369140625,2.046299934387207,-6.549999713897705,5.66949987411499
1702214531661836800,61.7848369140625,3.2891998291015625,-5.253999710083008,10.808099746704102
1702214531721836800,61.8448369140625,1.7350999116897583,-6.570899963378906,10.569999694824219
1702214531781836800,61.9048369140625,-1.757200002670288,-7.544600009918213,6.388099670410156
1702214531841836800,61.9648369140625,-4.158999919891357,-6.262099742889404,3.473099946975708
1702214531901836800,62.0248369140625,-2.4686999320983887,-8.313300132751465,3.3683998584747314
1702214531961836800,62.0848369140625,0.8639000058174133,-7.847499847412109,1.9459999799728394
1702214532021836800,62.1448369140625,1.7056999206542969,-5.6255998611450195,-1.8467999696731567
1702214532081836800,62.2048369140625,0.527999997138977,-3.1277999877929688,-5.035099983215332
1702214532141836800,62.2648369140625,2.0030999183654785,-1.9869999885559082,-4.4481000900268555
1702214532201836800,62.3248369140625,2.6552000045776367,-0.73089998960495,-5.824100017547607
1702214532261836800,62.3848369140625,4.243000030517578,-1.3330999612808228,-12.204599380493164
1702214532321836800,62.4448369140625,1.9045000076293945,-0.3304999768733978,-13.370399475097656
1702214532381836800,62.5048369140625,-0.16990000009536743,0.48749998211860657,-12.752099990844727
1702214532441836800,62.5648369140625,-1.4572999477386475,-2.679499864578247,-9.217499732971191
1702214532501836800,62.6248369140625,-0.9613999724388123,-6.662600040435791,-7.231199741363525
1702214532561836800,62.6848369140625,0.8071999549865723,-5.532199859619141,-2.5144999027252197
1702214532621836800,62.7448369140625,1.250100016593933,-5.4228997230529785,1.1965999603271484
1702214532681836800,62.8048369140625,1.0654000043869019,-5.7555999755859375,2.973299980163574
1702214532741836800,62.8648369140625,1.2620999813079834,-5.466099739074707,3.238999843597412
1702214532801836800,62.9248369140625,2.813699960708618,-6.25629997253418,4.747999668121338
1702214532861836800,62.9848369140625,3.178799867630005,-6.646899700164795,6.668299674987793
1702214532921836800,63.0448369140625,1.680799961090088,-6.1738996505737305,8.603499412536621
1702214532981836800,63.1048369140625,-0.21369999647140503,-5.134900093078613,7.377699851989746
1702214533041836800,63.1648369140625,-2.537299871444702,-7.662199974060059,4.291599750518799
1702214533101836800,63.2248369140625,-0.873199999332428,-7.242599964141846,1.3665000200271606
1702214533161836800,63.2848369140625,0.18619999289512634,-4.193399906158447,-0.7037000060081482
1702214533221836800,63.3448369140625,-1.0120999813079834,-1.958899974822998,-3.0971999168395996
1702214533281836800,63.4048369140625,0.7513999938964844,-1.2071999311447144,-5.449699878692627
1702214533341836800,63.4648369140625,1.8686999082565308,0.5834000110626221,-6.698299884796143
1702214533401836800,63.5248369140625,1.1363999843597412,0.73089998960495,-12.264199256896973
1702214533461836800,63.5848369140625,-0.8815000057220459,0.7032999992370605,-12.437799453735352
1702214533521836800,63.6448369140625,-0.7351999878883362,3.691699981689453,-9.654500007629395
1702214533581836800,63.7048369140625,-1.0911999940872192,-1.7358999252319336,-7.875399589538574
1702214533641836800,63.7648369140625,-2.000999927520752,-9.45930004119873,-11.441399574279785
1702214533701836800,63.8248369140625,2.859799861907959,-8.097000122070312,-3.1733999252319336
1702214533761836800,63.8848369140625,3.4774999618530273,-6.185999870300293,1.5372999906539917
1702214533821838300,63.94483837890625,3.0981998443603516,-6.045899868011475,3.749499797821045
1702214533881836800,64.0048369140625,3.3115999698638916,-6.2017998695373535,3.754499912261963
1702214533941836800,64.0648369140625,3.9754998683929443,-5.789299964904785,4.374599933624268
1702214534001836800,64.1248369140625,4.7778000831604,-4.57349967956543,7.389599800109863
1702214534061836800,64.1848369140625,3.8132998943328857,-4.599100112915039,8.92449951171875
1702214534121836800,64.2448369140625,-1.931999921798706,-6.734999656677246,5.906300067901611
1702214534181836800,64.3048369140625,-1.7834999561309814,-6.448400020599365,3.703199863433838
1702214534241836800,64.3648369140625,-2.842900037765503,-6.397899627685547,0.2581999897956848
1702214534301836800,64.4248369140625,-0.6176999807357788,-6.165999889373779,3.7535998821258545
1702214534361836800,64.4848369140625,3.2797999382019043,-6.861599922180176,3.6683998107910156
1702214534421836800,64.5448369140625,4.694499969482422,-5.897500038146973,-0.424699991941452
1702214534481836800,64.6048369140625,2.580899953842163,-4.677299976348877,-7.559199810028076
1702214534541836800,64.6648369140625,1.6385999917984009,-0.43289998173713684,-10.05639934539795
1702214534601836800,64.7248369140625,2.679299831390381,0.9947999715805054,-7.959099769592285
1702214534661836800,64.7848369140625,1.9637999534606934,0.20389999449253082,-11.6097993850708
1702214534721836800,64.8448369140625,3.202699899673462,0.2395000010728836,-11.1003999710083
1702214534781836800,64.9048369140625,0.8364999890327454,-0.09869999438524246,-9.637800216674805
1702214534841836800,64.9648369140625,-2.237799882888794,-2.149099826812744,-7.1419997215271
1702214534901836800,65.0248369140625,-0.8427000045776367,-6.166499614715576,-4.530999660491943
1702214534961836800,65.0848369140625,1.9443999528884888,-5.0441999435424805,-0.08659999817609787
1702214535021836800,65.1448369140625,2.539799928665161,-4.150599956512451,2.289599895477295
1702214535081836800,65.2048369140625,2.0936999320983887,-4.070499897003174,3.2726998329162598
1702214535141836800,65.2648369140625,1.6650999784469604,-5.6956000328063965,3.1793999671936035
1702214535201836800,65.3248369140625,1.9441999197006226,-6.107500076293945,5.771599769592285
1702214535261836800,65.3848369140625,2.2498998641967773,-6.156199932098389,9.80929946899414
1702214535321865000,65.44486499023438,1.0515999794006348,-8.509300231933594,6.471999645233154
1702214535381836800,65.5048369140625,1.2851999998092651,-8.048199653625488,2.9846999645233154
1702214535441836800,65.5648369140625,1.7109999656677246,-3.745800018310547,3.107499837875366
1702214535501836800,65.6248369140625,1.305999994277954,-1.9291999340057373,1.2167999744415283
1702214535561836800,65.6848369140625,-0.808899998664856,-3.1470999717712402,-3.1322999000549316
1702214535621836800,65.7448369140625,-0.8353999853134155,-2.749199867248535,-11.53339958190918
1702214535681836800,65.8048369140625,2.3401999473571777,0.3294999897480011,-10.81719970703125
1702214535741836800,65.8648369140625,-0.8326999545097351,1.8089998960494995,-8.873499870300293
1702214535801836800,65.9248369140625,-3.0541999340057373,1.2991999387741089,-10.307700157165527
1702214535861836800,65.9848369140625,-2.1654999256134033,0.2563999891281128,-10.014699935913086
1702214535921836800,66.0448369140625,-4.332299709320068,-2.9870998859405518,-8.226799964904785
1702214535981836800,66.1048369140625,-3.4213998317718506,-6.357999801635742,-5.822199821472168
1702214536041836800,66.1648369140625,1.5733000040054321,-5.5503997802734375,-2.077899932861328
1702214536101836800,66.2248369140625,3.4522998332977295,-5.719799995422363,1.3227999210357666
1702214536161836800,66.2848369140625,2.371999979019165,-6.579699993133545,3.1023998260498047
1702214536221836800,66.3448369140625,2.843600034713745,-6.190899848937988,4.0717997550964355
1702214536281836800,66.4048369140625,3.4057998657226562,-6.459199905395508,7.876399993896484
1702214536341836800,66.4648369140625,2.390899896621704,-6.19350004196167,10.211899757385254
1702214536401836800,66.5248369140625,-0.45339998602867126,-9.143499374389648,7.507199764251709
1702214536461836800,66.5848369140625,0.39419999718666077,-10.161499977111816,3.663100004196167
1702214536521836800,66.6448369140625,-0.8296999931335449,-7.636999607086182,2.1579999923706055
1702214536581836800,66.7048369140625,0.4737999737262726,-5.877799987792969,1.4572999477386475
1702214536641836800,66.7648369140625,0.8187999725341797,-4.302099704742432,-1.6093000173568726
1702214536701836800,66.8248369140625,0.06839999556541443,-3.114300012588501,-6.638499736785889
1702214536761836800,66.8848369140625,1.5866999626159668,-0.6383000016212463,-9.63029956817627
1702214536821865000,66.94486499023438,2.5632998943328857,1.1140999794006348,-8.676799774169922
1702214536881836800,67.0048369140625,2.239500045776367,1.3600999116897583,-10.835100173950195
1702214536941836800,67.0648369140625,3.251199960708618,1.7335999011993408,-12.314799308776855
1702214537001836800,67.1248369140625,0.46539998054504395,-0.09119999408721924,-12.607999801635742
1702214537061836800,67.1848369140625,-1.5008999109268188,-3.7946999073028564,-7.24459981918335
1702214537121836800,67.2448369140625,-0.9416999816894531,-5.365200042724609,-3.4365999698638916
1702214537181836800,67.3048369140625,0.8223999738693237,-4.622099876403809,-0.600600004196167
1702214537241836800,67.3648369140625,1.5805000066757202,-5.152899742126465,0.542199969291687
1702214537301836800,67.4248369140625,1.9246000051498413,-6.770699977874756,1.3875999450683594
1702214537361836800,67.4848369140625,1.917099952697754,-8.143799781799316,2.475299835205078
1702214537421836800,67.5448369140625,1.2355999946594238,-6.446199893951416,8.908899307250977
1702214537481836800,67.6048369140625,1.2490999698638916,-6.117199897766113,10.685999870300293
1702214537541836800,67.6648369140625,1.6799999475479126,-6.341599941253662,7.635799884796143
1702214537601836800,67.7248369140625,2.3715999126434326,-8.318900108337402,2.634199857711792
1702214537661836800,67.7848369140625,-1.2390999794006348,-6.0976996421813965,1.5759999752044678
1702214537721836800,67.8448369140625,1.7793999910354614,-4.519000053405762,0.1899999976158142
1702214537781836800,67.9048369140625,1.4163999557495117,-2.625200033187866,-2.116499900817871
1702214537841836800,67.9648369140625,1.6983999013900757,-1.3228999376296997,-5.961199760437012
1702214537901836800,68.0248369140625,-0.4432999789714813,1.0872999429702759,-8.861299514770508
1702214537961836800,68.0848369140625,-0.3684999942779541,1.473599910736084,-10.601999282836914
1702214538021836800,68.1448369140625,2.0421998500823975,0.2629999816417694,-10.92549991607666
1702214538081836800,68.2048369140625,1.611899971961975,0.5557999610900879,-12.011099815368652
1702214538141836800,68.2648369140625,1.2775999307632446,-0.09059999883174896,-5.537299633026123
1702214538201836800,68.3248369140625,-1.525399923324585,-2.9833998680114746,-4.456699848175049
1702214538261836800,68.3848369140625,-0.708299994468689,-2.8085999488830566,-3.5760998725891113
1702214538321838300,68.44483837890625,2.494999885559082,-3.6982998847961426,-1.3097999095916748
1702214538381836800,68.5048369140625,3.5181000232696533,-4.719399929046631,0.33379998803138733
1702214538441836800,68.5648369140625,4.19980001449585,-4.9593000411987305,1.3145999908447266
1702214538501836800,68.6248369140625,5.139999866485596,-5.2881999015808105,2.964900016784668
1702214538561836800,68.6848369140625,2.6008999347686768,-5.74970006942749,3.9738998413085938
1702214538621836800,68.7448369140625,1.875,-5.299099922180176,8.621199607849121
1702214538681836800,68.8048369140625,-1.0928999185562134,-5.975399971008301,6.948599815368652
1702214538741836800,68.8648369140625,-0.09719999879598618,-7.497699737548828,3.3420000076293945
1702214538801836800,68.9248369140625,-0.8172999620437622,-7.015199661254883,1.4900000095367432
1702214538861836800,68.9848369140625,0.4818999767303467,-3.9494998455047607,0.7662999629974365
1702214538921836800,69.0448369140625,0.870199978351593,-1.3575999736785889,-0.47919997572898865
1702214538981836800,69.1048369140625,-0.5496000051498413,-0.9294999837875366,-3.1403000354766846
1702214539041836800,69.1648369140625,0.025499999523162842,-0.32170000672340393,-7.044299602508545
1702214539101836800,69.2248369140625,1.4615999460220337,0.5824999809265137,-10.565899848937988
1702214539161836800,69.2848369140625,-1.090399980545044,1.420300006866455,-8.335199356079102
1702214539221836800,69.3448369140625,-2.871699810028076,1.7081999778747559,-8.994500160217285
1702214539281836800,69.4048369140625,-2.9161999225616455,1.6270999908447266,-10.464099884033203
1702214539341836800,69.4648369140625,-2.540599822998047,-0.6595999598503113,-6.837599754333496
1702214539401836800,69.5248369140625,-2.0160999298095703,-2.846599817276001,-4.749799728393555
1702214539461836800,69.5848369140625,-0.07050000131130219,-3.6945998668670654,-4.426799774169922
1702214539521836800,69.6448369140625,2.3595998287200928,-4.9766998291015625,-1.9608999490737915
1702214539581836800,69.7048369140625,2.971799850463867,-6.088199615478516,0.1907999962568283
1702214539641836800,69.7648369140625,3.421799898147583,-6.541599750518799,2.0901999473571777
1702214539701836800,69.8248369140625,3.8461999893188477,-6.456699848175049,5.080699920654297
1702214539761836800,69.8848369140625,3.240999937057495,-5.621099948883057,7.621799945831299
1702214539821836800,69.9448369140625,-0.2563999891281128,-6.258499622344971,6.762499809265137
1702214539881836800,70.0048369140625,-1.913100004196167,-6.278599739074707,6.647799968719482
1702214539941836800,70.0648369140625,-2.466099977493286,-6.484699726104736,5.353899955749512
1702214540001836800,70.1248369140625,-1.6694999933242798,-6.671999931335449,3.869799852371216
1702214540061836800,70.1848369140625,-0.3105999827384949,-6.244799613952637,0.5485000014305115
1702214540121836800,70.2448369140625,-1.3385999202728271,-4.9552998542785645,-5.2789998054504395
1702214540181836800,70.3048369140625,-0.13509999215602875,-2.130499839782715,-10.49679946899414
1702214540241836800,70.3648369140625,2.818699836730957,1.3950999975204468,-5.604399681091309
1702214540301836800,70.4248369140625,2.59060001373291,1.3596999645233154,-11.580999374389648
1702214540361836800,70.4848369140625,1.2378000020980835,0.7989000082015991,-14.097299575805664
1702214540421836800,70.5448369140625,3.6504998207092285,0.38979998230934143,-8.208499908447266
1702214540481836800,70.6048369140625,3.158099889755249,-1.4812999963760376,-5.791599750518799
1702214540541836800,70.6648369140625,-2.2590999603271484,-5.700599670410156,-6.988499641418457
1702214540601836800,70.7248369140625,0.6157000064849854,-5.892999649047852,-3.0262999534606934
1702214540661836800,70.7848369140625,3.0192999839782715,-5.0752997398376465,1.4697999954223633
1702214540721836800,70.8448369140625,3.001199960708618,-5.219699859619141,4.009699821472168
1702214540781836800,70.9048369140625,2.15120005607605,-6.048699855804443,5.342199802398682
1702214540841836800,70.9648369140625,1.5092999935150146,-5.216899871826172,7.260200023651123
1702214540901836800,71.0248369140625,0.9319999814033508,-5.790799617767334,8.680699348449707
1702214540961836800,71.0848369140625,-0.1039000004529953,-6.901299953460693,9.342199325561523
1702214541021836800,71.1448369140625,-2.2906999588012695,-9.805699348449707,2.0966999530792236
1702214541081836800,71.2048369140625,-3.04229998588562,-7.569900035858154,0.016699999570846558
1702214541141836800,71.2648369140625,-0.12889999151229858,-3.7760000228881836,0.2863999903202057
1702214541201836800,71.3248369140625,-0.3148999810218811,-0.38279998302459717,1.0583000183105469
1702214541261836800,71.3848369140625,1.073099970817566,-0.40389999747276306,-1.1136999130249023
1702214541321836800,71.4448369140625,3.1826000213623047,-1.7030999660491943,-6.599799633026123
1702214541381836800,71.5048369140625,4.2829999923706055,0.2692999839782715,-11.025699615478516
1702214541441836800,71.5648369140625,6.77269983291626,0.49469998478889465,-8.817699432373047
1702214541501836800,71.6248369140625,5.848399639129639,1.8395999670028687,-5.580699920654297
1702214541561836800,71.6848369140625,6.018799781799316,0.04259999841451645,-6.667599678039551
1702214541621836800,71.7448369140625,3.406099796295166,-4.031700134277344,-8.44789981842041
1702214541681836800,71.8048369140625,-0.429999977350235,-7.914999961853027,-6.7739996910095215
1702214541741836800,71.8648369140625,-0.13809999823570251,-5.494499683380127,-1.105799913406372
1702214541801836800,71.9248369140625,0.5475000143051147,-5.131199836730957,2.835899829864502
1702214541861836800,71.9848369140625,-0.23680000007152557,-5.408799648284912,5.060699939727783
1702214541921836800,72.0448369140625,-0.8452000021934509,-5.558799743652344,6.134399890899658
1702214541981836800,72.1048369140625,-1.4132000207901,-4.973999977111816,8.590999603271484
1702214542041836800,72.1648369140625,-2.106799840927124,-4.18179988861084,10.307799339294434
1702214542101836800,72.2248369140625,-3.5951998233795166,-7.841099739074707,4.114699840545654
1702214542161836800,72.2848369140625,-5.223199844360352,-7.202399730682373,2.0204999446868896
1702214542221836800,72.3448369140625,-3.2723000049591064,-8.579500198364258,0.2581000030040741
1702214542281836800,72.4048369140625,-0.2773999869823456,-6.522299766540527,1.2144999504089355
1702214542341836800,72.4648369140625,1.980299949645996,-3.6721999645233154,0.4421999752521515
1702214542401836800,72.5248369140625,2.1029999256134033,-2.170300006866455,-2.3101999759674072
1702214542461836800,72.5848369140625,2.82099986076355,-0.9598000049591064,-5.705499649047852
1702214542521836800,72.6448369140625,5.350599765777588,1.1840999126434326,-5.506099700927734
1702214542581836800,72.7048369140625,4.815399646759033,0.5633999705314636,-9.655699729919434
1702214542641836800,72.7648369140625,4.212699890136719,-0.10569999366998672,-10.79990005493164
1702214542701836800,72.8248369140625,4.708499908447266,0.6240999698638916,-7.877699851989746
1702214542761836800,72.8848369140625,3.728299856185913,-2.213099956512451,-5.8643999099731445
1702214542821836800,72.9448369140625,0.07639999687671661,-6.519899845123291,-7.67419958114624
1702214542881836800,73.0048369140625,0.21629999577999115,-5.684199810028076,-3.166800022125244
1702214542941836800,73.0648369140625,1.4305999279022217,-4.667099952697754,1.4852999448776245
1702214543001836800,73.1248369140625,1.1050999164581299,-5.120500087738037,4.206500053405762
1702214543061836800,73.1848369140625,0.7099999785423279,-5.754799842834473,5.130699634552002
1702214543121836800,73.2448369140625,0.5468999743461609,-5.26669979095459,5.920799732208252
1702214543181836800,73.3048369140625,-0.38169997930526733,-5.466399669647217,8.689899444580078
1702214543241836800,73.3648369140625,-1.5073999166488647,-6.25439977645874,8.024399757385254
1702214543301836800,73.4248369140625,-1.1273000240325928,-7.916800022125244,5.649099826812744
1702214543361836800,73.4848369140625,-1.347499966621399,-8.613999366760254,1.4168000221252441
1702214543421836800,73.5448369140625,-2.1164000034332275,-6.36769962310791,0.47429999709129333
1702214543481836800,73.6048369140625,0.5539000034332275,-3.65939998626709,-0.4535999894142151
1702214543541836800,73.6648369140625,0.9608999490737915,-1.3077999353408813,-2.420599937438965
1702214543601836800,73.7248369140625,1.4232999086380005,-0.6954999566078186,-5.6952996253967285
1702214543661836800,73.7848369140625,3.5302999019622803,0.2637999951839447,-6.469599723815918
1702214543721836800,73.8448369140625,4.088099956512451,1.9585999250411987,-6.252500057220459
1702214543781836800,73.9048369140625,2.669800043106079,1.4126999378204346,-8.270599365234375
1702214543841836800,73.9648369140625,2.0104000568389893,1.6186000108718872,-8.435599327087402
1702214543901836800,74.0248369140625,1.9500999450683594,0.5728999972343445,-9.023699760437012
1702214543961836800,74.0848369140625,1.0650999546051025,-2.180999994277954,-7.9878997802734375
1702214544021836800,74.1448369140625,-1.5134999752044678,-6.601999759674072,-7.5264997482299805
1702214544081836800,74.2048369140625,-0.25290000438690186,-5.449100017547607,-2.849299907684326
1702214544141836800,74.2648369140625,1.4735000133514404,-4.872799873352051,1.3966000080108643
1702214544201836800,74.3248369140625,1.7893999814987183,-5.30620002746582,4.06279993057251
1702214544261836800,74.3848369140625,1.6836999654769897,-5.646299839019775,4.866199970245361
1702214544321836800,74.4448369140625,1.903899908065796,-6.054999828338623,6.7423996925354
1702214544381836800,74.5048369140625,2.0743000507354736,-4.892999649047852,9.072599411010742
1702214544441836800,74.5648369140625,0.8352999687194824,-6.751199722290039,8.120599746704102
1702214544501836800,74.6248369140625,-2.7704999446868896,-8.361000061035156,5.034499645233154
1702214544561836800,74.6848369140625,-2.044100046157837,-8.632599830627441,1.4994999170303345
1702214544621836800,74.7448369140625,-2.1148998737335205,-6.597300052642822,0.7634999752044678
1702214544681836800,74.8048369140625,-0.004900000058114529,-4.139899730682373,-0.7860999703407288
1702214544741836800,74.8648369140625,1.0950000286102295,-2.4945998191833496,-4.058499813079834
1702214544801836800,74.9248369140625,2.431299924850464,-1.15339994430542,-7.1703996658325195
1702214544861836800,74.9848369140625,3.7301998138427734,1.973699927330017,-6.1977996826171875
1702214544921836800,75.0448369140625,2.4445998668670654,1.6337999105453491,-8.615900039672852
1702214544981836800,75.1048369140625,1.0500999689102173,0.5349000096321106,-12.608599662780762
1702214545041836800,75.1648369140625,1.9820998907089233,0.46639999747276306,-9.932999610900879
1702214545101836800,75.2248369140625,1.4871000051498413,-0.983199954032898,-6.451699733734131
1702214545161836800,75.2848369140625,-0.4992999732494354,-5.121699810028076,-7.080899715423584
1702214545221836800,75.3448369140625,-0.6071000099182129,-5.25469970703125,-4.355499744415283
1702214545281836800,75.4048369140625,1.7454999685287476,-4.6778998374938965,-0.3425000011920929
1702214545341836800,75.4648369140625,2.738499879837036,-5.274099826812744,2.367499828338623
1702214545401836800,75.5248369140625,2.624799966812134,-5.990599632263184,3.3945999145507812
1702214545461836800,75.5848369140625,3.2167999744415283,-5.769399642944336,4.7967000007629395
1702214545521836800,75.6448369140625,3.0000998973846436,-5.586099624633789,8.30639934539795
1702214545581836800,75.7048369140625,1.8219000101089478,-5.5980000495910645,8.663899421691895
1702214545641836800,75.7648369140625,-1.3977999687194824,-8.18709945678711,5.538599967956543
1702214545701836800,75.8248369140625,0.5442999601364136,-7.912399768829346,4.00029993057251
1702214545761836800,75.8848369140625,-0.2912999987602234,-7.309199810028076,1.24399995803833
1702214545821836800,75.9448369140625,-1.562999963760376,-5.946199893951416,-1.1607999801635742
1702214545881836800,76.0048369140625,-0.0997999981045723,-3.5623998641967773,-4.291899681091309
1702214545941836800,76.0648369140625,0.9980999827384949,-0.9375999569892883,-7.122900009155273
1702214546001836800,76.1248369140625,1.2747999429702759,2.1301000118255615,-5.927199840545654
1702214546061836800,76.1848369140625,1.0336999893188477,4.19189977645874,-5.844699859619141
1702214546121836800,76.2448369140625,-1.831399917602539,2.325199842453003,-9.086099624633789
1702214546181836800,76.3048369140625,-1.5555999279022217,0.70169997215271,-10.604700088500977
1702214546241836800,76.3648369140625,-0.7109000086784363,-0.36809998750686646,-11.127999305725098
