time,seconds_elapsed,z,y,x
1702691088528154000,0.045154052734375,-0.06119999662041664,-0.04899999871850014,-0.2839999794960022
1702691088588154000,0.105154052734375,0.16589999198913574,-0.039000000804662704,0.04319999739527702
1702691088648154000,0.165154052734375,0.09229999780654907,0.006199999712407589,0.07970000058412552
1702691088708154000,0.225154052734375,0.029899999499320984,-0.08129999786615372,-0.10130000114440918
1702691088768154000,0.285154052734375,0.19009999930858612,-0.05130000039935112,-0.025200000032782555
1702691088828154000,0.345154052734375,0.15299999713897705,0.0429999977350235,-0.04699999839067459
1702691088888154000,0.405154052734375,-0.03399999812245369,0.13189999759197235,-0.1589999943971634
1702691088948154000,0.465154052734375,-0.3700000047683716,0.22909998893737793,-0.3351999819278717
1702691089008154000,0.525154052734375,-0.09629999846220016,-0.007699999958276749,-0.030899999663233757
1702691089068154000,0.585154052734375,-0.16599999368190765,-0.10729999840259552,0.2280000001192093
1702691089128154000,0.645154052734375,-0.17229999601840973,-0.19219999015331268,0.22659999132156372
1702691089188154000,0.705154052734375,0.06499999761581421,-0.07530000060796738,0.13419999182224274
1702691089248154000,0.765154052734375,0.06030000001192093,0.14980000257492065,-0.08540000021457672
1702691089308154000,0.825154052734375,-0.22540000081062317,-0.035099998116493225,-0.01809999905526638
1702691089368154000,0.885154052734375,-0.014599999412894249,-0.02279999852180481,-0.211899995803833
1702691089428154000,0.945154052734375,-0.26999998092651367,-0.8029999732971191,2.14139986038208
1702691089488154000,1.005154052734375,0.7971999645233154,1.4545999765396118,-2.0292999744415283
1702691089548154000,1.065154052734375,-0.015099999494850636,-1.6348999738693237,0.2556999921798706
1702691089608154000,1.125154052734375,0.16779999434947968,-0.32690000534057617,0.08739999681711197
1702691089668154000,1.185154052734375,0.4170999825000763,0.1477999985218048,0.6850000023841858
1702691089728154000,1.245154052734375,0.1412999927997589,0.5597999691963196,0.23600000143051147
1702691089788154000,1.305154052734375,-0.23649999499320984,0.3669999837875366,-0.1581999957561493
1702691089848154000,1.365154052734375,-0.251800000667572,0.18029999732971191,-0.12150000035762787
1702691089908154000,1.425154052734375,-0.05989999696612358,-0.004399999976158142,-0.0714000016450882
1702691089968154000,1.485154052734375,-0.25360000133514404,-0.1378999948501587,0.09589999914169312
1702691090028154000,1.545154052734375,-0.17399999499320984,-0.16929998993873596,0.16689999401569366
1702691090088154000,1.605154052734375,-0.44449999928474426,-0.045499999076128006,-0.19619999825954437
1702691090148154000,1.665154052734375,0.3990999758243561,0.20029999315738678,0.08089999854564667
1702691090208154000,1.725154052734375,-0.10989999771118164,0.006799999624490738,0.2903999984264374
1702691090268154000,1.785154052734375,-0.03189999982714653,0.20659999549388885,-0.2085999995470047
1702691090328154000,1.845154052734375,-0.31219998002052307,0.0722000002861023,-0.40860000252723694
1702691090388154000,1.905154052734375,-0.03460000082850456,-0.1354999989271164,-0.16110000014305115
1702691090448154000,1.965154052734375,-0.12379999458789825,-0.32019999623298645,-0.30649998784065247
1702691090508154000,2.025154052734375,-0.23229999840259552,-0.11909999698400497,-0.21849998831748962
1702691090568154000,2.085154052734375,0.16659998893737793,0.07209999859333038,0.17970000207424164
1702691090628154000,2.145154052734375,0.3666999936103821,-0.2760999798774719,0.257099986076355
1702691090688154000,2.205154052734375,0.01640000008046627,-0.1816999912261963,0.14010000228881836
1702691090748154000,2.265154052734375,-0.22029998898506165,-0.24269999563694,0.0429999977350235
1702691090808154000,2.325154052734375,0.093299999833107,-0.024000000208616257,0.44749999046325684
1702691090868154000,2.385154052734375,-0.1606999933719635,0.14239999651908875,-0.0982000008225441
1702691090928154000,2.445154052734375,0.29889997839927673,0.29420000314712524,0.40049999952316284
1702691090988154000,2.505154052734375,0.12529999017715454,-0.0058999997563660145,0.2230999916791916
1702691091048154000,2.565154052734375,-0.0892999991774559,0.013499999418854713,-0.14319999516010284
1702691091108154000,2.625154052734375,-0.7640999555587769,-0.24210000038146973,-0.4503999948501587
1702691091168154000,2.685154052734375,-0.01599999889731407,0.17249999940395355,-0.46639999747276306
1702691091228154000,2.745154052734375,-0.2800999879837036,-0.3105999827384949,-0.6850000023841858
1702691091288154000,2.805154052734375,0.07679999619722366,-0.25040000677108765,-0.2935999929904938
1702691091348154000,2.865154052734375,-0.15230000019073486,0.0965999960899353,0.015199999324977398
1702691091408154000,2.925154052734375,0.41609999537467957,-0.23759999871253967,0.0697999969124794
1702691091468154000,2.985154052734375,-0.12219999730587006,-0.2701999843120575,0.3066999912261963
1702691091528154000,3.045154052734375,-0.251800000667572,0.06759999692440033,0.25949999690055847
1702691091588154000,3.105154052734375,-0.27070000767707825,0.21779999136924744,0.3586999773979187
1702691091648154000,3.165154052734375,-0.05559999868273735,0.25429999828338623,0.6782000064849854
1702691091708154000,3.225154052734375,0.010599999688565731,0.4323999881744385,0.09919999539852142
1702691091768154000,3.285154052734375,0.13419999182224274,0.24409998953342438,0.04989999905228615
1702691091828154000,3.345154052734375,-0.2976999878883362,-0.04039999842643738,-0.08049999922513962
1702691091888154000,3.405154052734375,-0.5485999584197998,0.07970000058412552,-0.023599999025464058
1702691091948154000,3.465154052734375,-0.21089999377727509,0.05329999700188637,-0.46289998292922974
1702691092008154000,3.525154052734375,0.015099999494850636,-0.4949999749660492,-0.5486999750137329
1702691092068154000,3.585154052734375,-0.1809999942779541,-0.5188999772071838,-0.46399998664855957
1702691092128154000,3.645154052734375,-0.03359999880194664,-0.2011999934911728,-0.2224999964237213
1702691092188154000,3.705154052734375,0.053999997675418854,-0.14299999177455902,0.15649999678134918
1702691092248154000,3.765154052734375,0.09839999675750732,-0.029500000178813934,0.10369999706745148
1702691092308154000,3.825154052734375,0.00699999975040555,-0.08150000125169754,0.11649999767541885
1702691092368154000,3.885154052734375,-0.13899999856948853,0.09849999845027924,0.33139997720718384
1702691092428154000,3.945154052734375,-0.29899999499320984,0.13989999890327454,0.39959999918937683
1702691092488154000,4.005154052734375,0.13830000162124634,0.23879998922348022,0.6602999567985535
1702691092548154000,4.065154052734375,-0.31029999256134033,0.2272000014781952,-0.2254999876022339
1702691092608154000,4.125154052734375,0.0705999955534935,0.11939999461174011,0.023499999195337296
1702691092668154000,4.185154052734375,-0.48019999265670776,-0.065700002014637,-0.17109999060630798
1702691092728154000,4.245154052734375,0.2240999937057495,0.003999999724328518,0.21089999377727509
1702691092788154000,4.305154052734375,-0.33379998803138733,-0.25369998812675476,-0.24289999902248383
1702691092848154000,4.365154052734375,-0.18459999561309814,-0.06929999589920044,-0.24549999833106995
1702691092908154000,4.425154052734375,-0.024699999019503593,0.03879999741911888,-0.1525000035762787
1702691092968154000,4.485154052734375,-0.09200000017881393,-0.04999999701976776,-0.29159998893737793
1702691093028154000,4.545154052734375,-0.11899999529123306,0.07509999722242355,-0.6728999614715576
1702691093088154000,4.605154052734375,0.00039999998989515007,-0.16689999401569366,-0.2578999996185303
1702691093148154000,4.665154052734375,0.04259999841451645,-0.4245999753475189,0.4065999984741211
1702691093208154000,4.725154052734375,-0.11229999363422394,-0.17459999024868011,0.7020999789237976
1702691093268154000,4.785154052734375,-0.03830000013113022,0.018400000408291817,0.6599000096321106
1702691093328154000,4.845154052734375,-0.11539999395608902,0.16539999842643738,0.5959999561309814
1702691093388154000,4.905154052734375,0.045499999076128006,0.3440999984741211,0.08339999616146088
1702691093448154000,4.965154052734375,-0.18529999256134033,0.204599991440773,-0.06480000168085098
1702691093508154000,5.025154052734375,-0.5658000111579895,0.007199999876320362,0.04879999905824661
1702691093568154000,5.085154052734375,-0.8780999779701233,0.06079999729990959,-0.2766000032424927
1702691093628154000,5.145154052734375,-0.6189000010490417,-0.0802999958395958,-0.1889999955892563
1702691093688154000,5.205154052734375,0.14169999957084656,-0.016699999570846558,-0.5990999937057495
1702691093748154000,5.265154052734375,0.2971999943256378,-0.03539999946951866,-0.6164000034332275
1702691093808154000,5.325154052734375,-0.18809999525547028,-0.07959999889135361,-0.5202999711036682
1702691093868154000,5.385154052734375,0.3962000012397766,-0.030899999663233757,0.029099998995661736
1702691093928154000,5.445154052734375,0.2069999873638153,-0.21079999208450317,0.16619999706745148
1702691093988154000,5.505154052734375,-0.24789999425411224,-0.29260000586509705,0.08320000022649765
1702691094048154000,5.565154052734375,0.0762999951839447,0.004699999932199717,0.26899999380111694
1702691094108154000,5.625154052734375,-0.02539999969303608,0.14829999208450317,0.01599999889731407
1702691094168154000,5.685154052734375,-0.1890999972820282,0.0697999969124794,0.1615999937057495
1702691094228154000,5.745154052734375,0.03500000014901161,0.21079999208450317,0.16579999029636383
1702691094288154000,5.805154052734375,-0.2807999849319458,0.044099997729063034,0.48669999837875366
1702691094348154000,5.865154052734375,-0.484499990940094,0.09399999678134918,0.2870999872684479
1702691094408154000,5.925154052734375,0.16179999709129333,0.019199999049305916,-0.2708999812602997
1702691094468154000,5.985154052734375,0.009599999524652958,0.11589999496936798,-0.33640000224113464
1702691094528154000,6.045154052734375,-0.30730000138282776,0.2280000001192093,-0.5803999900817871
1702691094588154000,6.105154052734375,-0.05309999734163284,0.06319999694824219,-0.36239999532699585
1702691094648154000,6.165154052734375,0.14869999885559082,-0.12719999253749847,-0.14589999616146088
1702691094708154000,6.225154052734375,0.11639999598264694,-0.26749998331069946,-0.5241999626159668
1702691094768154000,6.285154052734375,0.01730000041425228,-0.0746999979019165,-0.19739998877048492
1702691094828154000,6.345154052734375,0.09559999406337738,-0.043299999088048935,0.1832999885082245
1702691094888154000,6.405154052734375,-0.027699999511241913,-0.11469999700784683,0.4283999800682068
1702691094948154000,6.465154052734375,0.023899998515844345,-0.00139999995008111,0.3240000009536743
1702691095008154000,6.525154052734375,0.13830000162124634,0.003599999938160181,0.31790000200271606
1702691095068154000,6.585154052734375,0.131400004029274,0.09649999439716339,0.17350000143051147
1702691095128154000,6.645154052734375,0.1678999960422516,0.15199999511241913,0.01249999925494194
1702691095188154000,6.705154052734375,-0.4438999891281128,0.0803999975323677,0.11149999499320984
1702691095248154000,6.765154052734375,0.05700000002980232,0.1605999916791916,-0.03059999831020832
1702691095308154000,6.825154052734375,-0.2676999866962433,-0.13589999079704285,-0.43539997935295105
1702691095368154000,6.885154052734375,0.08549999445676804,-0.33820000290870667,-0.03139999881386757
1702691095428154000,6.945154052734375,-0.26010000705718994,-0.08489999920129776,-0.42969998717308044
1702691095488154000,7.005154052734375,-0.23439998924732208,0.0794999971985817,-0.4607999920845032
1702691095548154000,7.065154052734375,0.11270000040531158,-0.06359999626874924,-0.05329999700188637
1702691095608154000,7.125154052734375,-0.13660000264644623,0.041099999099969864,-0.15049999952316284
1702691095668154000,7.185154052734375,0.04580000042915344,0.02979999966919422,0.20170000195503235
1702691095728154000,7.245154052734375,0.42260000109672546,-0.2224999964237213,0.2888999879360199
1702691095788154000,7.305154052734375,-0.26089999079704285,-0.06239999830722809,0.08879999816417694
1702691095848154000,7.365154052734375,0.18199999630451202,0.12559999525547028,0.21400000154972076
1702691095908154000,7.425154052734375,0.0072999997064471245,0.023599999025464058,0.04099999740719795
1702691095968154000,7.485154052734375,0.20029999315738678,0.0689999982714653,0.12799999117851257
1702691096028154000,7.545154052734375,-0.31759998202323914,0.09389999508857727,0.20899999141693115
1702691096088154000,7.605154052734375,-0.4300999939441681,-0.06599999964237213,0.009800000116229057
1702691096148154000,7.665154052734375,0.20819999277591705,-0.03819999843835831,-0.11189999431371689
1702691096208154000,7.725154052734375,-0.29569998383522034,-0.05790000036358833,-0.142099991440773
1702691096268154000,7.785154052734375,-0.3012999892234802,0.023599999025464058,-0.5861999988555908
1702691096328154000,7.845154052734375,-0.35269999504089355,0.08569999784231186,-0.2936999797821045
1702691096388154000,7.905154052734375,0.043299999088048935,0.1631999909877777,-0.06949999928474426
1702691096448154000,7.965154052734375,0.06849999725818634,0.10729999840259552,0.004399999976158142
1702691096508154000,8.025154052734376,0.16030000150203705,0.1542000025510788,-0.0674000009894371
1702691096568154000,8.085154052734374,0.05869999900460243,0.11249999701976776,-0.12870000302791595
1702691096628154000,8.145154052734375,0.0674000009894371,-0.03009999915957451,0.024799998849630356
1702691096688154000,8.205154052734375,-0.1444000005722046,0.01269999984651804,-0.04600000008940697
1702691096748154000,8.265154052734376,-0.10089999437332153,-0.09730000048875809,-0.06729999929666519
1702691096808154000,8.325154052734375,-0.10170000046491623,0.0052999998442828655,-0.07039999961853027
1702691096868154000,8.385154052734375,-0.06520000100135803,0.03500000014901161,-0.05639999732375145
1702691096928154000,8.445154052734376,-0.06129999831318855,-0.023499999195337296,-0.02449999935925007
1702691096988154000,8.505154052734374,-0.11089999973773956,-0.1833999902009964,-0.019700000062584877
1702691097048154000,8.565154052734375,-0.16009999811649323,-0.25619998574256897,-0.017400000244379044
1702691097108154000,8.625154052734375,-0.08509999513626099,-0.14980000257492065,0.00419999985024333
1702691097168154000,8.685154052734376,-0.23569999635219574,-0.2451999932527542,-0.4211999773979187
1702691097228154000,8.745154052734375,-0.21229998767375946,-0.15469999611377716,-0.3594000041484833
1702691097288154000,8.805154052734375,0.03749999776482582,0.19409999251365662,-0.1590999960899353
1702691097348154000,8.865154052734376,0.16949999332427979,0.16210000216960907,0.36559998989105225
1702691097408154000,8.925154052734374,0.3465999960899353,-0.050999999046325684,0.7416999936103821
1702691097468154000,8.985154052734375,-0.3001999855041504,-0.06520000100135803,0.11639999598264694
1702691097528154000,9.045154052734375,-0.26100000739097595,-0.13249999284744263,0.21149998903274536
1702691097588154000,9.105154052734376,-0.0925000011920929,-0.09910000115633011,0.2133999913930893
1702691097648154000,9.165154052734374,-0.30809998512268066,0.035499997437000275,-0.04470000043511391
1702691097708154000,9.225154052734375,-0.3174999952316284,-0.08399999886751175,0.08609999716281891
