time,seconds_elapsed,z,y,x
1702219081284682800,0.056682861328125,0.2498999983072281,-0.4381999969482422,-0.44769999384880066
1702219081344682800,0.116682861328125,0.14710000157356262,-1.194700002670288,-0.14019998908042908
1702219081404682800,0.176682861328125,0.021699998527765274,-1.5031999349594116,-0.23549999296665192
1702219081464682800,0.236682861328125,-0.5303999781608582,-0.6122999787330627,-0.7630999684333801
1702219081524682800,0.296682861328125,1.5614999532699585,-1.3982999324798584,-0.6699000000953674
1702219081584682800,0.356682861328125,-0.2239999920129776,-0.5633000135421753,-0.47859999537467957
1702219081644682800,0.416682861328125,-1.020799994468689,-1.1700999736785889,-0.3845999836921692
1702219081704682800,0.476682861328125,-0.34579998254776,-3.3922998905181885,2.3890998363494873
1702219081764682800,0.536682861328125,-3.696899890899658,-5.2571001052856445,2.004999876022339
1702219081824682800,0.596682861328125,-1.9684998989105225,-4.334199905395508,1.157599925994873
1702219081884682800,0.656682861328125,-5.204899787902832,-7.563399791717529,3.833699941635132
1702219081944682800,0.716682861328125,2.2495999336242676,-8.909199714660645,-6.4816999435424805
1702219082004682800,0.776682861328125,0.3310000002384186,-3.6419999599456787,-7.262399673461914
1702219082064682800,0.836682861328125,2.032399892807007,-0.2954999804496765,-12.006599426269531
1702219082124682800,0.896682861328125,3.8939998149871826,4.328700065612793,-13.06820011138916
1702219082184682800,0.956682861328125,17.792499542236328,7.0605998039245605,-3.492499828338623
1702219082244682800,1.016682861328125,-0.8648999929428101,2.277099847793579,0.006799999624490738
1702219082304682800,1.076682861328125,-2.199699878692627,2.2268998622894287,3.555299997329712
1702219082364682800,1.136682861328125,0.604200005531311,2.982599973678589,-1.0645999908447266
1702219082424682800,1.196682861328125,0.9817000031471252,1.9983999729156494,-2.0425000190734863
1702219082484682800,1.256682861328125,-0.9484999775886536,-1.5591999292373657,-0.23549999296665192
1702219082544682800,1.316682861328125,1.837499976158142,-1.1776999235153198,1.0745999813079834
1702219082604682800,1.376682861328125,2.4842000007629395,-0.7081999778747559,-1.073599934577942
1702219082664681200,1.43668115234375,0.04939999803900719,-2.80649995803833,-3.0172998905181885
1702219082724682800,1.496682861328125,0.2831999957561493,0.6705999970436096,1.0779999494552612
1702219082784682800,1.556682861328125,1.767799973487854,5.5727996826171875,1.0698999166488647
1702219082844682800,1.616682861328125,0.7824999690055847,4,-5.508999824523926
1702219082904682800,1.676682861328125,1.4967999458312988,-1.6347999572753906,1.1323999166488647
1702219082964682800,1.736682861328125,-0.3669999837875366,-2.7411999702453613,-0.8932999968528748
1702219083024682800,1.796682861328125,-0.6470999717712402,-0.4262000024318695,0.25209999084472656
1702219083084682800,1.856682861328125,-0.16300000250339508,1.5375999212265015,-0.6516000032424927
1702219083144682800,1.916682861328125,0.1542000025510788,2.458199977874756,4.709000110626221
1702219083204682800,1.976682861328125,1.5194000005722046,-3.1122000217437744,2.503499984741211
1702219083264682800,2.036682861328125,-1.9328999519348145,-4.544300079345703,2.9880998134613037
1702219083324682800,2.096682861328125,1.7010999917984009,-1.3950999975204468,1.3356000185012817
1702219083384682800,2.156682861328125,4.716799736022949,1.358799934387207,-3.562299966812134
1702219083444682800,2.216682861328125,0.02979999966919422,0.37869998812675476,0.413100004196167
1702219083504682800,2.276682861328125,-0.8766999840736389,-3.629499912261963,-3.2739999294281006
1702219083564682800,2.336682861328125,1.8030999898910522,-2.063699960708618,3.3187999725341797
1702219083624682800,2.396682861328125,-2.833199977874756,-1.2278000116348267,-0.46949997544288635
1702219083684682800,2.456682861328125,-1.722599983215332,0.6741999983787537,2.115000009536743
1702219083744682800,2.516682861328125,-0.4797999858856201,3.4482998847961426,6.229399681091309
1702219083804682800,2.576682861328125,-2.6591999530792236,-4.115900039672852,-4.672599792480469
1702219083864682800,2.636682861328125,-0.06399999558925629,-6.321300029754639,-2.891899824142456
1702219083924682800,2.696682861328125,1.0477999448776245,3.901599884033203,0.4764999747276306
1702219083984682800,2.756682861328125,9.525099754333496,-3.0249998569488525,-2.9663000106811523
1702219084044682800,2.816682861328125,-0.6214999556541443,-1.2685999870300293,-1.1139999628067017
1702219084104682800,2.876682861328125,-0.5945000052452087,-3.0451998710632324,-2.101300001144409
1702219084164682800,2.936682861328125,11.446599960327148,-2.295099973678589,2.4141998291015625
1702219084224682800,2.996682861328125,-1.670300006866455,-4.750699996948242,-3.3272998332977295
1702219084284682800,3.056682861328125,-4.226099967956543,-2.662400007247925,2.240299940109253
1702219084344682800,3.116682861328125,-0.01809999905526638,0.16349999606609344,3.65339994430542
1702219084404682800,3.176682861328125,-3.341599941253662,2.327699899673462,-0.3992999792098999
1702219084464682800,3.236682861328125,-3.088399887084961,1.9905999898910522,2.342399835586548
1702219084524682800,3.296682861328125,-1.9608999490737915,1.3400999307632446,3.2266998291015625
1702219084584682800,3.356682861328125,6.968699932098389,1.1518999338150024,-5.171000003814697
1702219084644682800,3.416682861328125,1.4235999584197998,1.8579999208450317,-1.3990999460220337
1702219084704682800,3.476682861328125,-1.2552999258041382,0.7042999863624573,1.6829999685287476
1702219084764682800,3.536682861328125,0.515999972820282,-7.713699817657471,-3.992499828338623
1702219084824682800,3.596682861328125,-3.2547998428344727,-3.659799814224243,0.33219999074935913
1702219084884682800,3.656682861328125,-3.059799909591675,-0.6495999693870544,2.6582999229431152
1702219084944682800,3.716682861328125,0.17379999160766602,1.414199948310852,0.7915999889373779
1702219085004682800,3.776682861328125,0.16509999334812164,-0.7080999612808228,1.5880999565124512
1702219085064682800,3.836682861328125,-0.9319999814033508,0.046299997717142105,-0.8343999981880188
1702219085124682800,3.896682861328125,1.2936999797821045,1.287500023841858,-0.43869999051094055
1702219085184682800,3.956682861328125,3.018199920654297,-1.0741000175476074,-0.3467999994754791
1702219085244682800,4.016682861328125,3.2035999298095703,-3.857599973678589,-1.1146999597549438
1702219085304681200,4.07668115234375,0.814300000667572,-3.2797999382019043,-2.91129994392395
1702219085364681200,4.13668115234375,5.53309965133667,-1.4375,-3.5251998901367188
1702219085424682800,4.196682861328125,-2.1364998817443848,-1.8250999450683594,-0.15860000252723694
1702219085484682800,4.256682861328125,-1.2589999437332153,-3.1191999912261963,-1.645900011062622
1702219085544681200,4.31668115234375,0.23510000109672546,-1.3619999885559082,1.6261999607086182
1702219085604681200,4.37668115234375,-3.0981998443603516,0.3561999797821045,1.2944999933242798
1702219085664682800,4.436682861328125,-1.8901000022888184,1.5800999402999878,1.9010999202728271
1702219085724682800,4.496682861328125,-1.9208999872207642,2.620499849319458,4.599299907684326
1702219085784682800,4.556682861328125,1.1763999462127686,1.6547999382019043,-1.6047999858856201
1702219085844682800,4.616682861328125,-2.074199914932251,2.51039981842041,-2.765899896621704
1702219085904682800,4.676682861328125,3.033099889755249,0.012899999506771564,-2.3666000366210938
1702219085964682800,4.736682861328125,-9.31190013885498,-3.507399797439575,3.708899974822998
1702219086024682800,4.796682861328125,-6.0112996101379395,-2.6821999549865723,5.705699920654297
1702219086084682800,4.856682861328125,-2.6815998554229736,-4.678199768066406,-3.0685999393463135
1702219086144682800,4.916682861328125,-0.44209998846054077,0.6929999589920044,-2.8857998847961426
1702219086204682800,4.976682861328125,-0.8937000036239624,2.5518999099731445,1.0268999338150024
1702219086264681200,5.03668115234375,0.4123999774456024,-0.11649999767541885,-1.413100004196167
1702219086324681200,5.09668115234375,0.9250999689102173,0.6967999935150146,-0.5397999882698059
1702219086384682800,5.156682861328125,0.2630999982357025,0.8955000042915344,-1.0245000123977661
1702219086444682800,5.216682861328125,1.0530999898910522,-0.20729999244213104,-0.7360999584197998
1702219086504682800,5.276682861328125,4.547199726104736,-2.8488998413085938,-1.2939999103546143
1702219086564682800,5.336682861328125,0.7186999917030334,-1.9952999353408813,-2.8437998294830322
1702219086624682800,5.396682861328125,3.9858999252319336,-0.6333000063896179,-4.336999893188477
1702219086684682800,5.456682861328125,-3.8015999794006348,-2.1922998428344727,-0.18959999084472656
1702219086744682800,5.516682861328125,0.29099997878074646,-4.291399955749512,-0.3504999876022339
1702219086804682800,5.576682861328125,-2.2898998260498047,0.7602999806404114,1.7623000144958496
1702219086864682800,5.636682861328125,-1.7745000123977661,1.0073000192642212,1.9016000032424927
1702219086924682800,5.696682861328125,-2.3494999408721924,1.3845999240875244,3.0184998512268066
1702219086984682800,5.756682861328125,-1.0785999298095703,2.1320998668670654,6.011600017547607
1702219087044682800,5.816682861328125,6.204799652099609,-2.0190999507904053,-5.501999855041504
1702219087104682800,5.876682861328125,0.6232999563217163,5.101900100708008,-1.4680999517440796
1702219087164682800,5.936682861328125,1.7667999267578125,-8.057000160217285,-3.062199831008911
1702219087224682800,5.996682861328125,-2.234499931335449,-0.17960000038146973,5.4741997718811035
1702219087284682800,6.056682861328125,-5.0453996658325195,-2.6666998863220215,1.058899998664856
1702219087344682800,6.116682861328125,-0.48589998483657837,-0.8639000058174133,-0.6434999704360962
1702219087404682800,6.176682861328125,0.7421999573707581,-0.3164999783039093,2.0588998794555664
1702219087464682800,6.236682861328125,-1.1269999742507935,-0.019899999722838402,0.5812999606132507
1702219087524682800,6.296682861328125,0.6739999651908875,1.4531999826431274,-2.0232999324798584
1702219087584682800,6.356682861328125,-0.3220999836921692,1.3911999464035034,-1.3114999532699585
1702219087644682800,6.416682861328125,-0.05920000001788139,1.3273999691009521,-0.46379998326301575
1702219087704682800,6.476682861328125,3.4410998821258545,-1.5343999862670898,-0.0778999999165535
1702219087764682800,6.536682861328125,1.757200002670288,-2.1496999263763428,-1.282099962234497
1702219087824682800,6.596682861328125,3.9038000106811523,-1.2137999534606934,-4.20359992980957
1702219087884682800,6.656682861328125,0.3472999930381775,-2.1414999961853027,-0.5521999597549438
1702219087944682800,6.716682861328125,-4.237599849700928,-3.759399890899658,-1.4269999265670776
1702219088004682800,6.776682861328125,-1.097599983215332,-4.90310001373291,1.3463000059127808
1702219088064682800,6.836682861328125,-1.569599986076355,0.5799999833106995,4.065700054168701
1702219088124682800,6.896682861328125,-1.7618999481201172,2.3317999839782715,2.3280999660491943
1702219088184682800,6.956682861328125,0.6827999949455261,4.724499702453613,6.429999828338623
1702219088244682800,7.016682861328125,2.6736998558044434,1.5916999578475952,-5.240799903869629
1702219088304682800,7.076682861328125,-6.139800071716309,-1.715399980545044,-3.4556000232696533
1702219088364682800,7.136682861328125,2.4863998889923096,-2.5058000087738037,-2.1501998901367188
1702219088424682800,7.196682861328125,-3.758999824523926,-2.621999979019165,3.609999895095825
1702219088484682800,7.256682861328125,-1.4981999397277832,-2.4617998600006104,2.652400016784668
1702219088544682800,7.316682861328125,-1.8155999183654785,-0.32909998297691345,-0.16849999129772186
1702219088604682800,7.376682861328125,0.5697000026702881,-0.6802999973297119,0.4229999780654907
1702219088664682800,7.436682861328125,0.8197999596595764,1.4250999689102173,0.459199994802475
1702219088724682800,7.496682861328125,0.545799970626831,1.9753999710083008,-0.7143999934196472
1702219088784682800,7.556682861328125,0.3596999943256378,1.3336999416351318,-1.337999939918518
1702219088844682800,7.616682861328125,0.583899974822998,0.1800999939441681,0.7372999787330627
1702219088904682800,7.676682861328125,0.12079999595880508,-1.9032999277114868,-1.2042999267578125
1702219088964682800,7.736682861328125,-1.9298999309539795,-2.7216999530792236,-2.4868998527526855
1702219089024682800,7.796682861328125,1.506500005722046,-2.9644999504089355,-3.4594998359680176
1702219089084682800,7.856682861328125,3.9387998580932617,-2.6052000522613525,-4.6591997146606445
1702219089144682800,7.916682861328125,-1.0303000211715698,1.0016000270843506,-2.2346999645233154
1702219089204682800,7.976682861328125,0.08349999785423279,-3.3623998165130615,-0.1476999968290329
1702219089264682800,8.036682861328124,-2.493799924850464,-3.528599977493286,4.028500080108643
1702219089324682800,8.096682861328125,-0.515999972820282,0.6645999550819397,2.5570998191833496
1702219089384682800,8.156682861328125,-2.8080999851226807,1.6958999633789062,1.8492000102996826
1702219089444682800,8.216682861328126,-2.352299928665161,2.68149995803833,5.718800067901611
1702219089504682800,8.276682861328124,4.074599742889404,3.1582000255584717,1.2465999126434326
1702219089564709400,8.33670947265625,2.8880999088287354,-0.4153999984264374,-1.7245999574661255
1702219089624682800,8.396682861328125,0.3346000015735626,-4.440799713134766,-0.9932000041007996
1702219089684682800,8.456682861328124,-4.205699920654297,-1.8565999269485474,-2.4112000465393066
1702219089744682800,8.516682861328125,-1.8127999305725098,-2.874300003051758,3.038100004196167
1702219089804682800,8.576682861328125,-1.5101999044418335,-2.0355000495910645,1.685499906539917
1702219089864682800,8.636682861328126,-0.5503999590873718,-0.668999969959259,0.04919999837875366
1702219089924682800,8.696682861328124,-0.32739999890327454,-0.7163999676704407,-0.9175999760627747
1702219089984682800,8.756682861328125,-1.5209999084472656,2.2575998306274414,-1.0676000118255615
1702219090044682800,8.816682861328125,-1.556899905204773,1.7110999822616577,-1.9235999584197998
1702219090104682800,8.876682861328124,0.9521999955177307,-0.0957999974489212,-1.4294999837875366
1702219090164682800,8.936682861328125,0.5444999933242798,-0.17790000140666962,0.26429998874664307
1702219090224682800,8.996682861328125,2.656399965286255,-1.136099934577942,-0.4026999771595001
1702219090284682800,9.056682861328126,1.4179999828338623,-0.0697999969124794,-1.2333999872207642
1702219090344682800,9.116682861328124,-0.3823999762535095,0.15879999101161957,-3.03439998626709
1702219090404682800,9.176682861328125,7.984399795532227,-3.2458999156951904,-2.462899923324585
1702219090464682800,9.236682861328125,-1.6075999736785889,-0.45669999718666077,-2.649600028991699
1702219090524682800,9.296682861328126,-0.7849000096321106,-3.1333999633789062,-3.5857999324798584
1702219090584682800,9.356682861328125,-0.8922999501228333,-3.9289000034332275,1.4067000150680542
1702219090644682800,9.416682861328125,-1.5220999717712402,0.538100004196167,1.3619999885559082
1702219090704682800,9.476682861328126,-0.7300999760627747,2.7771999835968018,-1.0951999425888062
1702219090764682800,9.536682861328124,-1.3716999292373657,2.2712998390197754,5.401199817657471
1702219090824682800,9.596682861328125,-1.643799901008606,3.13919997215271,6.332099914550781
1702219090884682800,9.656682861328125,6.176499843597412,0.11019999533891678,-10.427999496459961
1702219090944682800,9.716682861328126,-1.8752999305725098,4.868599891662598,-1.552899956703186
1702219091004682800,9.776682861328124,5.478799819946289,-9.564499855041504,-4.599999904632568
1702219091064682800,9.836682861328125,-6.029799938201904,-0.5184000134468079,7.650300025939941
1702219091124682800,9.896682861328125,-2.088599920272827,-3.7558000087738037,2.0053000450134277
1702219091184682800,9.956682861328124,-2.2246999740600586,0.32739999890327454,-2.4303998947143555
1702219091244682800,10.016682861328125,2.853099822998047,-1.1560999155044556,0.38830000162124634
1702219091304682800,10.076682861328125,0.00419999985024333,2.0207998752593994,1.3249999284744263
1702219091364682800,10.136682861328126,-0.5249999761581421,2.4951000213623047,-0.9878999590873718
1702219091424682800,10.196682861328124,-1.208299994468689,1.1208000183105469,-0.41929998993873596
1702219091484682800,10.256682861328125,2.322200059890747,0.2043999880552292,-1.862399935722351
1702219091544682800,10.316682861328125,4.613800048828125,-2.4649999141693115,-0.76419997215271
1702219091604682800,10.376682861328124,3.071499824523926,-3.3945000171661377,-6.224299907684326
1702219091664682800,10.436682861328125,-3.089399814605713,-0.8253999948501587,-3.2795000076293945
1702219091724682800,10.496682861328125,-0.5102999806404114,-6.841699600219727,-2.513200044631958
1702219091784682800,10.556682861328126,-1.5286999940872192,-1.2177000045776367,3.485999822616577
1702219091844682800,10.616682861328124,-1.8708999156951904,0.823199987411499,3.721299886703491
1702219091904682800,10.676682861328125,-2.6403000354766846,1.9978998899459839,3.736599922180176
1702219091964682800,10.736682861328125,-2.5281999111175537,3.3239998817443848,6.334699630737305
1702219092024682800,10.796682861328126,6.81279993057251,-0.5371999740600586,-5.69189977645874
1702219092084682800,10.856682861328125,1.896399974822998,3.806299924850464,-1.57669997215271
1702219092144682800,10.916682861328125,-3.9348998069763184,0.08129999786615372,-0.14249999821186066
1702219092204682800,10.976682861328126,-0.4449999928474426,-6.566199779510498,-1.9441999197006226
1702219092264682800,11.036682861328124,-4.857199668884277,-2.6610000133514404,2.907099962234497
1702219092324682800,11.096682861328125,-4.046199798583984,-3.4557998180389404,-0.6818999648094177
1702219092384682800,11.156682861328125,2.807499885559082,-0.009200000204145908,3.275399923324585
1702219092444682800,11.216682861328126,0.3586999773979187,0.696399986743927,0.6033999919891357
1702219092504682800,11.276682861328124,-1.9096999168395996,2.113600015640259,-1.8476999998092651
1702219092564682800,11.336682861328125,1.4375,2.333899974822998,-1.7796999216079712
1702219092624682800,11.396682861328125,4.535399913787842,-1.8614999055862427,-0.8869999647140503
1702219092684682800,11.456682861328124,0.7950999736785889,-1.4280999898910522,-1.8593999147415161
1702219092744682800,11.516682861328125,1.569599986076355,-1.3413000106811523,-3.6310999393463135
1702219092804682800,11.576682861328125,-0.21299999952316284,-0.09129999577999115,-2.2295000553131104
1702219092864682800,11.636682861328126,-1.7395999431610107,-2.483099937438965,-3.009899854660034
1702219092924681200,11.69668115234375,-1.289199948310852,-2.1203999519348145,2.081199884414673
1702219092984681200,11.75668115234375,-1.2745999097824097,-0.37219998240470886,3.7075998783111572
1702219093044682800,11.816682861328125,-1.2300999164581299,1.6512999534606934,2.1937999725341797
1702219093104682800,11.876682861328124,-1.2109999656677246,1.374400019645691,0.8921999931335449
1702219093164682800,11.936682861328125,1.5507999658584595,0.9557999968528748,-2.4435999393463135
1702219093224682800,11.996682861328125,0.6473999619483948,1.2812999486923218,-0.10179999470710754
1702219093284682800,12.056682861328126,0.28119999170303345,1.7235000133514404,0.5997999906539917
1702219093344682800,12.116682861328124,-1.4686999320983887,-6.675099849700928,-1.9894999265670776
1702219093404682800,12.176682861328125,1.076200008392334,-1.5999999046325684,2.9433000087738037
1702219093464682800,12.236682861328125,-3.1524999141693115,-0.28039997816085815,0.9071999788284302
1702219093524682800,12.296682861328126,-1.0620999336242676,0.8881999850273132,-1.9427999258041382
1702219093584682800,12.356682861328125,-0.07930000126361847,0.4616999924182892,-1.0334999561309814
1702219093644682800,12.416682861328125,-0.590999960899353,0.3109000027179718,0.06260000169277191
1702219093704682800,12.476682861328126,-0.11669999361038208,0.9205999970436096,0.5235999822616577
1702219093764682800,12.536682861328124,1.0935999155044556,0.3057999908924103,-0.8007000088691711
1702219093824682800,12.596682861328125,2.657399892807007,-0.9944999814033508,-1.8061999082565308
1702219093884682800,12.656682861328125,3.0521998405456543,-0.9187999963760376,-0.38259997963905334
1702219093944682800,12.716682861328126,2.0107998847961426,-2.9198999404907227,-5.995599746704102
1702219094004682800,12.776682861328124,-2.5137999057769775,0.840499997138977,-2.8782999515533447
1702219094064682800,12.836682861328125,1.8355000019073486,-3.6756999492645264,-1.170300006866455
1702219094124682800,12.896682861328125,-1.9187999963760376,-0.9032999873161316,2.3954999446868896
1702219094184682800,12.956682861328124,-2.162299871444702,0.5884000062942505,1.5951999425888062
1702219094244682800,13.016682861328125,-1.632099986076355,-0.15689998865127563,1.7447999715805054
1702219094304682800,13.076682861328125,-2.4563000202178955,1.4953999519348145,5.143499851226807
1702219094364682800,13.136682861328126,1.3895999193191528,1.2944999933242798,0.46219998598098755
1702219094424682800,13.196682861328124,3.3733999729156494,2.4677000045776367,-4.996299743652344
1702219094484682800,13.256682861328125,1.9564999341964722,-2.066699981689453,-4.756799697875977
1702219094544682800,13.316682861328125,-4.642899990081787,-1.520799994468689,3.9567999839782715
1702219094604682800,13.376682861328124,-5.201699733734131,-0.7763999700546265,1.087999939918518
1702219094664682800,13.436682861328125,-1.6354999542236328,-3.2431998252868652,-2.0917999744415283
1702219094724682800,13.496682861328125,-0.2441999912261963,0.09389999508857727,2.312199831008911
1702219094784682800,13.556682861328126,0.863099992275238,-0.9587000012397766,0.8072999715805054
1702219094844682800,13.616682861328124,0.30159997940063477,1.132200002670288,-0.7585999965667725
1702219094904682800,13.676682861328125,0.009800000116229057,1.020900011062622,-1.5651999711990356
1702219094964682800,13.736682861328125,2.6384999752044678,0.3400999903678894,-2.838099956512451
1702219095024682800,13.796682861328126,3.694399833679199,-1.4564999341964722,-0.8779000043869019
1702219095084682800,13.856682861328125,3.796799898147583,-2.0348000526428223,-3.798799991607666
1702219095144682800,13.916682861328125,-0.08299999684095383,-0.6455999612808228,-3.395599842071533
1702219095204682800,13.976682861328126,-1.277999997138977,-5.150300025939941,0.8877999782562256
1702219095264682800,14.036682861328124,-1.798699975013733,-1.7069998979568481,1.6833999156951904
1702219095324682800,14.096682861328125,-2.2167999744415283,1.3228999376296997,2.4089999198913574
1702219095384682800,14.156682861328125,-2.187700033187866,0.42289999127388,1.9569000005722046
1702219095444682800,14.216682861328126,-2.283099889755249,2.0349998474121094,5.495699882507324
1702219095504682800,14.276682861328124,1.4733999967575073,0.16740000247955322,-0.0908999964594841
1702219095564682800,14.336682861328125,4.2480998039245605,1.517899990081787,-7.435999870300293
1702219095624682800,14.396682861328125,0.2003999948501587,-2.8441998958587646,-4.465399742126465
1702219095684682800,14.456682861328124,-2.6188998222351074,0.14959999918937683,8.510499954223633
1702219095744682800,14.516682861328125,-3.2655999660491943,-3.2609000205993652,1.8190999031066895
1702219095804682800,14.576682861328125,-3.3867998123168945,-2.0123000144958496,-2.6322999000549316
1702219095864682800,14.636682861328126,-1.4045000076293945,0.1711999922990799,0.8621000051498413
1702219095924682800,14.696682861328124,-0.030299998819828033,0.42419999837875366,2.097100019454956
1702219095984682800,14.756682861328125,0.5462999939918518,0.9162999987602234,-0.6426999568939209
1702219096044682800,14.816682861328125,-0.9784999489784241,0.6601999998092651,-2.64520001411438
1702219096104682800,14.876682861328124,1.1815999746322632,1.3731999397277832,-2.1843998432159424
1702219096164682800,14.936682861328125,4.255399703979492,-1.1913999319076538,-1.3531999588012695
1702219096224682800,14.996682861328125,-0.15609999001026154,-1.250100016593933,-1.9260998964309692
1702219096284682800,15.056682861328126,5.4618000984191895,-0.9698999524116516,-3.46560001373291
1702219096344682800,15.116682861328124,-4.000999927520752,-1.8815999031066895,-1.5121999979019165
1702219096404682800,15.176682861328125,2.439199924468994,-2.7091000080108643,-1.7136999368667603
1702219096464682800,15.236682861328125,-3.0393998622894287,-1.0508999824523926,3.46809983253479
1702219096524682800,15.296682861328126,-1.035599946975708,1.0032999515533447,3.103099822998047
1702219096584682800,15.356682861328125,-2.475600004196167,1.1007000207901,1.813599944114685
1702219096644682800,15.416682861328125,-1.4771000146865845,1.9016000032424927,4.280399799346924
1702219096704682800,15.476682861328126,4.4517998695373535,-0.5879999995231628,-4.869100093841553
1702219096764682800,15.536682861328124,1.5580999851226807,3.4530999660491943,-2.761899948120117
1702219096824682800,15.596682861328125,0.0568000003695488,1.9066998958587646,2.1482999324798584
1702219096884682800,15.656682861328125,-1.499899983406067,-6.478799819946289,-2.875499963760376
1702219096944682800,15.716682861328126,-1.0888999700546265,0.3199000060558319,2.275399923324585
1702219097004681200,15.77668115234375,-4.771699905395508,-2.7316999435424805,0.026799999177455902
1702219097064682800,15.836682861328125,-1.983299970626831,-0.40779998898506165,0.0949999988079071
1702219097124682800,15.896682861328125,5.055099964141846,-0.24279999732971191,4.9928998947143555
1702219097184682800,15.956682861328124,-0.32659998536109924,0.3123999834060669,-0.1906999945640564
1702219097244682800,16.016682861328125,-0.17249999940395355,1.5744999647140503,-1.6692999601364136
1702219097304682800,16.076682861328123,1.792699933052063,0.3504999876022339,-3.0872998237609863
1702219097364682800,16.136682861328126,3.501199960708618,-0.9376999735832214,-0.5286999940872192
1702219097424682800,16.196682861328124,0.3935000002384186,-2.6963999271392822,-3.7893998622894287
1702219097484682800,16.256682861328127,3.041299819946289,-0.4560999870300293,-1.8282999992370605
1702219097544682800,16.316682861328125,-4.277299880981445,-4.537899971008301,-1.0013999938964844
1702219097604682800,16.376682861328124,-1.4771000146865845,-1.7240999937057495,1.1247999668121338
1702219097664682800,16.436682861328126,-2.645400047302246,0.7453999519348145,0.8729999661445618
1702219097724682800,16.496682861328125,-1.7524999380111694,0.781499981880188,2.0765998363494873
1702219097784682800,16.556682861328124,-1.9737999439239502,-0.20789998769760132,4.108799934387207
1702219097844682800,16.616682861328126,-0.8064999580383301,1.500499963760376,3.5625998973846436
1702219097904682800,16.676682861328125,1.9436999559402466,1.5647999048233032,-4.748300075531006
1702219097964682800,16.736682861328124,-0.6694999933242798,3.192199945449829,-4.719099998474121
1702219098024681200,16.79668115234375,0.5203999876976013,-7.729300022125244,-3.7314999103546143
1702219098084682800,16.856682861328125,-6.567800045013428,-1.6650999784469604,7.495199680328369
1702219098144682800,16.916682861328123,-4.1566996574401855,-4.730000019073486,-1.1354999542236328
1702219098204682800,16.976682861328126,-0.8574999570846558,1.1166999340057373,-0.6481999754905701
1702219098264682800,17.036682861328124,-0.715499997138977,-0.21139998733997345,1.218500018119812
1702219098324682800,17.096682861328127,0.0510999970138073,0.7719999551773071,-0.42179998755455017
1702219098384682800,17.156682861328125,0.4617999792098999,1.2954000234603882,-2.7163000106811523
1702219098444682800,17.216682861328124,0.8593999743461609,1.3909999132156372,-1.7501999139785767
1702219098504682800,17.276682861328126,-1.011099934577942,0.6205999851226807,-2.603799819946289
1702219098564682800,17.336682861328125,2.629699945449829,-1.0787999629974365,-1.1390999555587769
1702219098624682800,17.396682861328124,3.5841000080108643,-0.25040000677108765,-3.356099843978882
1702219098684682800,17.456682861328126,-1.3715999126434326,2.0737998485565186,-4.19379997253418
1702219098744682800,17.516682861328125,-3.600799798965454,-3.043299913406372,-2.3899998664855957
1702219098804682800,17.576682861328123,-0.321399986743927,-4.924200057983398,-0.9845999479293823
1702219098864682800,17.636682861328126,-2.0815999507904053,-1.279099941253662,2.5750999450683594
1702219098924682800,17.696682861328124,-0.6881999969482422,-0.10119999945163727,0.9247999787330627
1702219098984682800,17.756682861328127,-2.1196000576019287,0.429099977016449,5.470999717712402
1702219099044682800,17.816682861328125,-1.4455000162124634,2.9940998554229736,6.153800010681152
1702219099104682800,17.876682861328124,-0.13580000400543213,2.09089994430542,-7.277199745178223
1702219099164682800,17.936682861328126,-1.6983000040054321,1.389799952507019,-1.404599905014038
1702219099224682800,17.996682861328125,5.556399822235107,-9.653900146484375,-3.9375
1702219099284682800,18.056682861328124,-5.015599727630615,3.0207998752593994,3.072399854660034
1702219099344682800,18.116682861328126,-3.3203999996185303,0.4389999806880951,0.5059999823570251
1702219099404682800,18.176682861328125,-1.6345999240875244,-0.3926999866962433,-1.4407999515533447
1702219099464682800,18.236682861328124,-1.5331999063491821,-1.021899938583374,1.4422999620437622
1702219099524682800,18.296682861328126,-0.335999995470047,-0.05289999768137932,0.30660000443458557
1702219099584682800,18.356682861328125,0.04559999704360962,1.0425000190734863,-0.5177000164985657
1702219099644682800,18.416682861328123,1.4393999576568604,0.5547999739646912,-0.6166999936103821
1702219099704682800,18.476682861328126,2.7962000370025635,0.75,-1.7352999448776245
1702219099764682800,18.536682861328124,0.8600999712944031,-0.17459999024868011,-0.5673999786376953
1702219099824682800,18.596682861328127,3.1308000087738037,0.49859997630119324,-3.5083999633789062
1702219099884682800,18.656682861328125,0.2442999929189682,-0.5758999586105347,-6.379499912261963
1702219099944682800,18.716682861328124,-2.049999952316284,-4.108999729156494,-0.5108000040054321
1702219100004682800,18.776682861328126,-0.25380000472068787,-1.3562999963760376,0.6092999577522278
1702219100064682800,18.836682861328125,-1.5156999826431274,0.9911999702453613,2.6641998291015625
1702219100124682800,18.896682861328124,-1.4388999938964844,0.3279999792575836,3.182999849319458
1702219100184682800,18.956682861328126,-2.2488999366760254,1.8765000104904175,5.338900089263916
1702219100244682800,19.016682861328125,-1.8325999975204468,-1.0959999561309814,-0.8183000087738037
1702219100304682800,19.076682861328123,7.363699913024902,3.70770001411438,-3.0062999725341797
1702219100364682800,19.136682861328126,-0.9404000043869019,3.189499855041504,0.4893999993801117
1702219100424682800,19.196682861328124,-5.8668999671936035,-6.3694000244140625,-5.565099716186523
1702219100484682800,19.256682861328127,-8.488399505615234,1.3167999982833862,2.516899824142456
1702219100544682800,19.316682861328125,-3.5817999839782715,-2.8855998516082764,-0.9729999899864197
1702219100604682800,19.376682861328124,6.9131999015808105,-0.6581000089645386,3.8471999168395996
1702219100664682800,19.436682861328126,-0.5381999611854553,-0.25599998235702515,0.7928999662399292
1702219100724682800,19.496682861328125,-1.0300999879837036,2.4925999641418457,-1.1131999492645264
1702219100784682800,19.556682861328124,3.96589994430542,4.194900035858154,-1.2483999729156494
1702219100844682800,19.616682861328126,2.871699810028076,0.7195000052452087,-2.4972000122070312
1702219100904682800,19.676682861328125,-1.5848000049591064,-6.3294997215271,-8.154999732971191
1702219100964682800,19.736682861328124,-2.1503000259399414,-3.830399990081787,-0.6863999962806702
1702219101024682800,19.796682861328126,1.080299973487854,-5.892999649047852,1.4124000072479248
1702219101084682800,19.856682861328125,-1.3776999711990356,1.0211999416351318,4.2220001220703125
1702219101144682800,19.916682861328123,-1.3914999961853027,1.563099980354309,1.9222999811172485
1702219101204682800,19.976682861328126,-0.8633999824523926,2.1720998287200928,5.501800060272217
1702219101264682800,20.036682861328124,-1.990799903869629,1.5614999532699585,1.4372999668121338
1702219101324682800,20.096682861328127,3.5737998485565186,1.4763000011444092,-6.880499839782715
1702219101384682800,20.156682861328125,-0.9695999622344971,3.8329999446868896,-2.149899959564209
1702219101444682800,20.216682861328124,-1.5468999147415161,-5.735699653625488,-1.6310999393463135
1702219101504682800,20.276682861328126,-4.733699798583984,0.5698999762535095,3.527599811553955
1702219101564682800,20.336682861328125,-4.3491997718811035,-4.101799964904785,-2.0219998359680176
1702219101624682800,20.396682861328124,0.6626999974250793,-1.0943999290466309,-0.7813000082969666
1702219101684682800,20.456682861328126,-0.0471000000834465,-1.7346999645233154,3.6785998344421387
1702219101744682800,20.516682861328125,-0.7943999767303467,1.3269000053405762,0.8434999585151672
1702219101804682800,20.576682861328123,0.9667999744415283,2.422299861907959,-1.1746000051498413
1702219101864682800,20.636682861328126,1.4098999500274658,1.5230000019073486,-2.046999931335449
1702219101924682800,20.696682861328124,2.4177000522613525,-0.33069998025894165,-1.4050999879837036
1702219101984682800,20.756682861328127,3.672499895095825,-1.8910999298095703,-5.904099941253662
1702219102044682800,20.816682861328125,1.4490000009536743,-1.3727999925613403,0.15320000052452087
1702219102104682800,20.876682861328124,-1.7197999954223633,-3.079200029373169,-1.0276999473571777
1702219102164682800,20.936682861328126,-1.079699993133545,-1.1851999759674072,0.683899998664856
1702219102224682800,20.996682861328125,-2.065000057220459,1.5703999996185303,0.9186999797821045
1702219102284682800,21.056682861328124,-1.792699933052063,0.8476999998092651,2.0782999992370605
1702219102344682800,21.116682861328126,-1.5460000038146973,1.6495999097824097,3.852099895477295
1702219102404682800,21.176682861328125,0.37229999899864197,1.117900013923645,-0.47689998149871826
1702219102464682800,21.236682861328124,4.477200031280518,2.989799976348877,-6.908799648284912
1702219102524682800,21.296682861328126,-2.015399932861328,2.4177000522613525,0.4310999810695648
1702219102584682800,21.356682861328125,-3.0526998043060303,-8.17389965057373,-4.326099872589111
1702219102644682800,21.416682861328123,-5.180200099945068,-0.44829997420310974,3.0707998275756836
1702219102704682800,21.476682861328126,-5.262199878692627,-1.5720999240875244,2.176800012588501
1702219102764682800,21.536682861328124,-3.4520998001098633,-0.8641999959945679,-0.03610000014305115
1702219102824682800,21.596682861328127,7.534299850463867,-0.1462000012397766,2.4707000255584717
1702219102884682800,21.656682861328125,-1.167799949645996,1.5038999319076538,-1.1194000244140625
1702219102944682800,21.716682861328124,-1.32669997215271,2.5137999057769775,-0.612500011920929
1702219103004682800,21.776682861328126,1.9581999778747559,0.09239999949932098,-1.8736000061035156
1702219103064682800,21.836682861328125,4.1921000480651855,-1.4311999082565308,-1.7703999280929565
1702219103124682800,21.896682861328124,0.22139999270439148,-0.5586999654769897,-4.558099746704102
1702219103184682800,21.956682861328126,6.177499771118164,-0.7949000000953674,-2.336899995803833
1702219103244682800,22.016682861328125,-3.8479998111724854,-0.6991999745368958,-0.13439999520778656
1702219103304681200,22.07668115234375,0.007699999958276749,-4.63100004196167,-2.483099937438965
1702219103364682800,22.136682861328126,-4.6433000564575195,-1.8041999340057373,0.6764999628067017
1702219103424682800,22.196682861328124,-2.907599925994873,1.1691999435424805,1.8405998945236206
1702219103484682800,22.256682861328127,-2.5829999446868896,2.496799945831299,2.487799882888794
1702219103544682800,22.316682861328125,-0.4675999879837036,2.4702999591827393,5.768899917602539
1702219103604682800,22.376682861328124,3.506199836730957,-0.09470000118017197,-2.0848000049591064
1702219103664682800,22.436682861328126,0.5769999623298645,1.4362000226974487,-4.68589973449707
1702219103724682800,22.496682861328125,-1.965399980545044,1.6561999320983887,-1.6161999702453613
1702219103784682800,22.556682861328124,-1.3758000135421753,-6.300699710845947,-0.1525000035762787
1702219103844682800,22.616682861328126,-5.206399917602539,-1.0331000089645386,1.844099998474121
1702219103904682800,22.676682861328125,-2.8362998962402344,-1.8210999965667725,-1.2480000257492065
1702219103964682800,22.736682861328124,-3.694399833679199,0.576200008392334,3.1178998947143555
1702219104024682800,22.796682861328126,6.109799861907959,-0.9892999529838562,-0.5223999619483948
1702219104084682800,22.856682861328125,-2.341099977493286,1.341499924659729,-1.1926000118255615
1702219104144682800,22.916682861328123,-1.0855000019073486,1.2598999738693237,-1.6270999908447266
1702219104204682800,22.976682861328126,0.3431999981403351,1.0368000268936157,-2.1778998374938965
1702219104264682800,23.036682861328124,7.5055999755859375,-2.3466999530792236,-0.09179999679327011
1702219104324682800,23.096682861328127,-0.42089998722076416,0.06920000165700912,-1.1503000259399414
1702219104384682800,23.156682861328125,4.291299819946289,-2.384500026702881,-10.208499908447266
1702219104444682800,23.216682861328124,-0.5245000123977661,0.5072999596595764,-1.3173999786376953
1702219104504682800,23.276682861328126,-1.2573000192642212,-4.850100040435791,0.5393999814987183
1702219104564682800,23.336682861328125,-1.9318000078201294,-0.8202999830245972,2.240799903869629
1702219104624682800,23.396682861328124,-3.2256999015808105,1.4197999238967896,2.104099988937378
1702219104684682800,23.456682861328126,-1.9326999187469482,1.184399962425232,1.326799988746643
1702219104744682800,23.516682861328125,-2.3259999752044678,1.920699954032898,5.859099864959717
1702219104804682800,23.576682861328123,1.1470999717712402,1.3622000217437744,0.2678999900817871
1702219104864682800,23.636682861328126,2.637699842453003,2.145900011062622,-8.108200073242188
1702219104924681200,23.69668115234375,3.8188998699188232,-6.4054999351501465,-5.913699626922607
1702219104984682800,23.756682861328127,-2.229300022125244,0.7038999795913696,8.326199531555176
1702219105044682800,23.816682861328125,-8.251399993896484,-2.358299970626831,1.4924999475479126
1702219105104682800,23.876682861328124,-2.1564998626708984,-3.3885998725891113,-5.888599872589111
1702219105164682800,23.936682861328126,2.2132999897003174,2.8969998359680176,2.4091999530792236
1702219105224682800,23.996682861328125,-0.5091999769210815,-1.1541999578475952,1.2253999710083008
1702219105284682800,24.056682861328124,1.3035999536514282,2.7993998527526855,-0.34389999508857727
1702219105344682800,24.116682861328126,0.15349999070167542,1.9937999248504639,-2.551499843597412
1702219105404682800,24.176682861328125,1.889699935913086,0.620199978351593,-3.7209999561309814
1702219105464681200,24.23668115234375,3.488999843597412,-0.9213999509811401,-1.320099949836731
1702219105524682800,24.296682861328126,6.396699905395508,0.16449999809265137,-2.099599838256836
1702219105584682800,24.356682861328125,-2.3927998542785645,-2.912799835205078,-9.295700073242188
1702219105644682800,24.416682861328123,-0.35099998116493225,-2.749199867248535,-3.9607999324798584
1702219105704682800,24.476682861328126,-1.2002999782562256,-5.813699722290039,2.793299913406372
1702219105764682800,24.536682861328124,-1.9265999794006348,1.154099941253662,3.8322999477386475
1702219105824682800,24.596682861328127,-3.040799856185913,1.6648999452590942,1.1506999731063843
1702219105884682800,24.656682861328125,-2.955899953842163,3.5130999088287354,7.503299713134766
1702219105944682800,24.716682861328124,4.908299922943115,2.1133999824523926,-0.9168999791145325
1702219106004681200,24.77668115234375,-0.8725999593734741,3.5388998985290527,-3.384999990463257
1702219106064681200,24.83668115234375,6.439899921417236,-7.6489996910095215,-11.423500061035156
1702219106124682800,24.896682861328124,-5.531499862670898,0.3440999984741211,8.155099868774414
1702219106184681200,24.95668115234375,-5.266299724578857,-3.621799945831299,1.2149999141693115
1702219106244682800,25.016682861328125,0.7307999730110168,-2.8138999938964844,-3.912400007247925
1702219106304682800,25.076682861328123,0.272599995136261,-0.18599998950958252,0.9884999990463257
1702219106364682800,25.136682861328126,-0.09380000084638596,1.4120999574661255,-0.05289999768137932
1702219106424682800,25.196682861328124,0.5748000144958496,3.2460999488830566,-1.5247999429702759
1702219106484682800,25.256682861328127,-1.8528999090194702,2.724400043487549,-0.9817000031471252
1702219106544682800,25.316682861328125,3.368299961090088,-0.6103999614715576,-3.500699996948242
1702219106604682800,25.376682861328124,6.103399753570557,-2.3606998920440674,-1.5884000062942505
1702219106664682800,25.436682861328126,2.603099822998047,-0.08309999853372574,-6.812199592590332
1702219106724682800,25.496682861328125,-3.658900022506714,-2.7446999549865723,-3.771899938583374
1702219106784682800,25.556682861328124,0.27730000019073486,-5.500799655914307,-2.28410005569458
1702219106844682800,25.616682861328126,-1.4063999652862549,-2.2224998474121094,2.9768998622894287
1702219106904682800,25.676682861328125,-2.7177000045776367,1.8676999807357788,3.4865000247955322
1702219106964682800,25.736682861328124,-3.4886999130249023,2.940699815750122,3.2228000164031982
1702219107024682800,25.796682861328126,-2.0708000659942627,2.586699962615967,5.854700088500977
1702219107084682800,25.856682861328125,2.8099000453948975,-0.2807999849319458,-2.649600028991699
1702219107144682800,25.916682861328123,-0.2126999944448471,2.4059998989105225,-5.991799831390381
1702219107204682800,25.976682861328126,0.3522999882698059,3.432299852371216,3.291599988937378
1702219107264682800,26.036682861328124,-11.77649974822998,-8.126899719238281,-3.965399980545044
1702219107324682800,26.096682861328127,-5.285299777984619,-0.8179000020027161,0.8660999536514282
1702219107384682800,26.156682861328125,-6.07319974899292,-2.266700029373169,0.40119999647140503
1702219107444682800,26.216682861328124,-1.36899995803833,-1.0485999584197998,1.0720999240875244
1702219107504682800,26.276682861328126,1.000999927520752,1.0805000066757202,1.597599983215332
1702219107564682800,26.336682861328125,-3.599599838256836,2.3559999465942383,-0.8228999972343445
1702219107624682800,26.396682861328124,-1.0987999439239502,3.5827999114990234,-2.0801000595092773
1702219107684682800,26.456682861328126,6.350599765777588,-1.2791999578475952,-5.837299823760986
1702219107744682800,26.516682861328125,0.8812999725341797,-1.2573999166488647,-2.982499837875366
1702219107804682800,26.576682861328123,11.640599250793457,1.3650999069213867,-3.6464998722076416
1702219107864682800,26.636682861328126,-2.5520999431610107,-0.8064000010490417,-3.976599931716919
1702219107924682800,26.696682861328124,-3.4809999465942383,-3.9301998615264893,-4.8668999671936035
1702219107984682800,26.756682861328127,0.2775000035762787,-5.018499851226807,0.3520999848842621
1702219108044682800,26.816682861328125,-3.1603000164031982,0.2272000014781952,4.65939998626709
1702219108104682800,26.876682861328124,-3.7888998985290527,1.5413999557495117,1.1425999402999878
1702219108164682800,26.936682861328126,-3.6295998096466064,2.2783000469207764,7.466899871826172
1702219108224682800,26.996682861328125,-1.7764999866485596,1.8155999183654785,6.071399688720703
1702219108284682800,27.056682861328124,7.285999774932861,-1.1800999641418457,-14.278800010681152
1702219108344682800,27.116682861328126,-0.6671000123023987,0.29019999504089355,-6.037600040435791
1702219108404682800,27.176682861328125,-11.186999320983887,-2.9017999172210693,3.2986998558044434
1702219108464682800,27.236682861328124,-6.519799709320068,-1.9808999300003052,3.2849998474121094
1702219108524682800,27.296682861328126,-4.8628997802734375,-7.507599830627441,-3.0404999256134033
1702219108584682800,27.356682861328125,-1.428399920463562,0.538100004196167,1.5130000114440918
1702219108644682800,27.416682861328123,-0.7346999645233154,0.07729999721050262,0.08399999886751175
1702219108704682800,27.476682861328126,-0.4917999804019928,2.221299886703491,-1.8355998992919922
1702219108764682800,27.536682861328124,0.17440000176429749,3.1689000129699707,-2.2936999797821045
1702219108824682800,27.596682861328127,2.587100028991699,0.4235000014305115,-5.099299907684326
1702219108884682800,27.656682861328125,1.5978999137878418,-1.0644999742507935,-2.266899824142456
1702219108944682800,27.716682861328124,10.736499786376953,0.6150999665260315,-3.236299991607666
1702219109004682800,27.776682861328126,-2.160599946975708,-0.06430000066757202,-3.160799980163574
1702219109064682800,27.836682861328125,-6.878399848937988,-3.019699811935425,-7.716799736022949
1702219109124682800,27.896682861328124,4.3643999099731445,-7.092399597167969,2.1016998291015625
1702219109184682800,27.956682861328126,-1.3250999450683594,-0.02329999953508377,5.048999786376953
1702219109244682800,28.016682861328125,-2.683799982070923,1.9890999794006348,1.4133999347686768
1702219109304682800,28.076682861328123,-4.070099830627441,1.758099913597107,6.370199680328369
1702219109364682800,28.136682861328126,-1.5069999694824219,1.2839000225067139,7.1605000495910645
1702219109424682800,28.196682861328124,4.553199768066406,-4.563799858093262,-16.288700103759766
1702219109484682800,28.256682861328127,0.49729999899864197,3.648699998855591,-4.42009973526001
1702219109544682800,28.316682861328125,-6.005799770355225,-2.6617000102996826,3.4527997970581055
1702219109604682800,28.376682861328124,-4.916999816894531,-2.9926998615264893,1.9879999160766602
1702219109664682800,28.436682861328126,-2.6081998348236084,-1.8083999156951904,0.6000999808311462
1702219109724682800,28.496682861328125,4.061699867248535,0.11429999768733978,-1.5951999425888062
1702219109784682800,28.556682861328124,-1.7805999517440796,0.4509999752044678,1.1883999109268188
1702219109844682800,28.616682861328126,-1.0990999937057495,0.8314999938011169,-0.7181000113487244
1702219109904682800,28.676682861328125,-0.14019998908042908,2.2021000385284424,-0.7024999856948853
1702219109964682800,28.736682861328124,0.5651000142097473,1.4573999643325806,-1.0383999347686768
1702219110024682800,28.796682861328126,2.2528998851776123,0.059699997305870056,-3.157399892807007
1702219110084682800,28.856682861328125,2.0441999435424805,0.05590000003576279,-1.2620999813079834
1702219110144682800,28.916682861328123,1.3270000219345093,-0.2645999789237976,-3.982499837875366
1702219110204682800,28.976682861328126,0.05959999933838844,-1.1435999870300293,-5.31089973449707
1702219110264682800,29.036682861328124,-2.802799940109253,-3.3153998851776123,-4.039700031280518
1702219110324682800,29.096682861328127,2.3646998405456543,-4.2164998054504395,0.2557999789714813
1702219110384682800,29.156682861328125,-4.653899669647217,0.23819999396800995,2.296799898147583
1702219110444682800,29.216682861328124,-3.322499990463257,1.730199933052063,1.9191999435424805
1702219110504682800,29.276682861328126,-3.9970998764038086,1.4982999563217163,3.5660998821258545
1702219110564682800,29.336682861328125,-1.2143999338150024,1.6597999334335327,3.970599889755249
1702219110624682800,29.396682861328124,4.784499645233154,0.12280000001192093,-4.282199859619141
1702219110684682800,29.456682861328126,-0.6891999840736389,3.3838999271392822,-5.30709981918335
1702219110744682800,29.516682861328125,1.225600004196167,1.014799952507019,-0.033799998462200165
1702219110804682800,29.576682861328123,-6.132400035858154,-7.040899753570557,-2.1208999156951904
1702219110864682800,29.636682861328126,-5.124499797821045,0.0835999995470047,4.905999660491943
1702219110924682800,29.696682861328124,-4.434000015258789,-2.350800037384033,0.19209998846054077
1702219110984682800,29.756682861328127,-2.993799924850464,0.28200000524520874,0.7591999769210815
1702219111044682800,29.816682861328125,6.873899936676025,0.5335000157356262,2.0576999187469482
1702219111104682800,29.876682861328124,-1.18149995803833,1.2803000211715698,-1.9887999296188354
1702219111164682800,29.936682861328126,-0.7967999577522278,1.462399959564209,-3.0845999717712402
1702219111224682800,29.996682861328125,6.046000003814697,0.7071999907493591,-3.138199806213379
1702219111284682800,30.056682861328124,0.23420000076293945,0.12780000269412994,-3.1322999000549316
1702219111344682800,30.116682861328126,3.050299882888794,0.25209999084472656,-2.9800000190734863
1702219111404682800,30.176682861328125,-0.2295999974012375,-0.8112999796867371,-6.019599914550781
1702219111464682800,30.236682861328124,-5.321099758148193,-2.8001999855041504,1.098099946975708
1702219111524682800,30.296682861328126,0.9142999649047852,-7.898499965667725,-1.5496000051498413
1702219111584682800,30.356682861328125,-4.91510009765625,1.5872999429702759,3.951900005340576
1702219111644682800,30.416682861328123,-1.8888999223709106,1.499400019645691,1.1274999380111694
1702219111704682800,30.476682861328126,-3.13349986076355,2.1019999980926514,5.130099773406982
1702219111764682800,30.536682861328124,-0.7906999588012695,1.7821999788284302,5.259500026702881
1702219111824682800,30.596682861328127,9.089900016784668,-1.5374000072479248,-11.624099731445312
1702219111884682800,30.656682861328125,-0.8323999643325806,4.473400115966797,-1.8691999912261963
1702219111944682800,30.716682861328124,7.312199592590332,-10.31619930267334,-0.7906000018119812
1702219112004682800,30.776682861328126,-5.061100006103516,1.4291999340057373,4.553400039672852
1702219112064682800,30.836682861328125,-5.8867998123168945,-2.8538999557495117,-1.9129999876022339
1702219112124682800,30.896682861328124,-3.1892998218536377,0.24319998919963837,-1.4412999153137207
1702219112184682800,30.956682861328126,2.461699962615967,0.6473999619483948,2.588099956512451
1702219112244682800,31.016682861328125,-1.3392999172210693,0.809499979019165,0.2708999812602997
1702219112304682800,31.076682861328123,0.689799964427948,1.9714999198913574,-1.3342000246047974
1702219112364682800,31.136682861328126,5.495199680328369,0.6563000082969666,-4.081900119781494
1702219112424682800,31.196682861328124,-1.0068999528884888,0.21229998767375946,-1.9395999908447266
1702219112484682800,31.256682861328127,2.0283000469207764,-0.1720999926328659,-2.7646000385284424
1702219112544682800,31.316682861328125,7.335099697113037,-2.238800048828125,-3.6401000022888184
1702219112604682800,31.376682861328124,-6.625199794769287,-2.5000998973846436,-6.069900035858154
1702219112664682800,31.436682861328126,2.554999828338623,-3.294600009918213,-2.3608999252319336
1702219112724682800,31.496682861328125,-4.425099849700928,-1.3473999500274658,3.6547999382019043
1702219112784682800,31.556682861328124,-1.9609999656677246,2.7147998809814453,0.3010999858379364
1702219112844682800,31.616682861328126,-5.0071001052856445,1.1095999479293823,2.36929988861084
1702219112904682800,31.676682861328125,-2.309299945831299,0.9215999841690063,6.274799823760986
1702219112964682800,31.736682861328124,9.677999496459961,-1.993299961090088,-2.7769999504089355
1702219113024682800,31.796682861328126,-0.9375,5.689699649810791,-2.952699899673462
1702219113084682800,31.856682861328125,-2.562700033187866,-3.9781999588012695,-2.279899835586548
1702219113144682800,31.916682861328123,-6.443699836730957,-0.8191999793052673,1.3209999799728394
1702219113204682800,31.976682861328126,-3.254999876022339,0.13750000298023224,-1.1500999927520752
1702219113264682800,32.036682861328124,2.7211999893188477,-5.6651997566223145,0.03959999978542328
1702219113324682800,32.09668286132813,-3.173499822616577,1.4895999431610107,0.4414999783039093
1702219113384681200,32.15668115234375,0.7777000069618225,1.062399983406067,-0.8915999531745911
1702219113444682800,32.216682861328124,4.662099838256836,1.0867999792099,-0.9483000040054321
1702219113504682800,32.276682861328126,-1.7069000005722046,0.9165999889373779,-1.1376999616622925
1702219113564682800,32.33668286132813,2.6930999755859375,0.25369998812675476,-4.484499931335449
1702219113624682800,32.396682861328124,2.1118998527526855,-0.3033999800682068,-3.402899980545044
1702219113684682800,32.456682861328126,3.9106998443603516,-0.3757999837398529,-5.340399742126465
1702219113744682800,32.51668286132813,-0.06939999759197235,-2.0820000171661377,-0.5429999828338623
1702219113804682800,32.57668286132812,-0.9550999999046326,-5.554199695587158,-0.898099958896637
1702219113864682800,32.636682861328126,-2.0418999195098877,0.07750000059604645,-0.2728999853134155
1702219113924682800,32.69668286132813,-4.527100086212158,0.4397999942302704,1.6899999380111694
1702219113984682800,32.75668286132812,-2.44350004196167,1.083299994468689,2.7438998222351074
1702219114044682800,32.816682861328125,-2.9721999168395996,1.9332998991012573,3.95989990234375
1702219114104682800,32.87668286132813,-1.249400019645691,2.2932000160217285,4.9415998458862305
1702219114164682800,32.93668286132812,10.81029987335205,-3.9011998176574707,-15.070699691772461
1702219114224682800,32.996682861328125,-0.2087000012397766,5.497699737548828,-1.9899998903274536
1702219114284682800,33.05668286132813,-1.0990999937057495,-5.69379997253418,3.3984999656677246
1702219114344682800,33.11668286132812,-4.727099895477295,-1.919600009918213,1.5084999799728394
1702219114404682800,33.176682861328125,-4.438199996948242,-1.0819000005722046,-1.9848999977111816
1702219114464682800,33.23668286132813,-2.482100009918213,-0.25509998202323914,-1.1258000135421753
1702219114524682800,33.29668286132812,2.5336999893188477,-0.2797999978065491,2.0160999298095703
1702219114584682800,33.356682861328125,-1.5195000171661377,1.50409996509552,-0.8119999766349792
1702219114644682800,33.41668286132813,-1.2688000202178955,3.025599956512451,-0.8167999982833862
1702219114704682800,33.47668286132812,0.8111000061035156,-0.5672000050544739,-2.9354000091552734
1702219114764682800,33.536682861328124,7.504199981689453,-1.308899998664856,-1.423699975013733
1702219114824682800,33.59668286132813,-1.8377999067306519,-0.4373999834060669,-5.002500057220459
1702219114884682800,33.65668286132812,9.77489948272705,0.02329999953508377,-3.985299825668335
1702219114944682800,33.716682861328124,-0.9072999954223633,0.21490000188350677,-0.5483999848365784
1702219115004682800,33.776682861328126,-1.9030998945236206,-4.660200119018555,-1.8596999645233154
1702219115064682800,33.83668286132813,-2.8406999111175537,-2.2231998443603516,-0.5600999593734741
1702219115124682800,33.896682861328124,-3.861799955368042,1.0845999717712402,0.7105000019073486
1702219115184682800,33.956682861328126,-3.284600019454956,1.4305999279022217,1.291100025177002
1702219115244682800,34.01668286132813,-1.8488999605178833,2.314300060272217,5.3379998207092285
1702219115304682800,34.07668286132812,1.3398000001907349,0.44509997963905334,2.559999942779541
1702219115364682800,34.136682861328126,5.253200054168701,2.273200035095215,-3.8270998001098633
1702219115424682800,34.19668286132813,-1.302299976348877,-0.03619999811053276,-8.62720012664795
1702219115484682800,34.25668286132812,-0.7373999953269958,-2.6777000427246094,0.9126999974250793
1702219115544682800,34.316682861328125,-4.745999813079834,-0.45799997448921204,4.180299758911133
1702219115604682800,34.37668286132813,-3.4838998317718506,-2.668299913406372,-0.3865000009536743
1702219115664682800,34.43668286132812,-2.4631998538970947,0.5288999676704407,0.11490000039339066
1702219115724682800,34.496682861328125,4.415999889373779,-0.7035999894142151,-1.31659996509552
1702219115784682800,34.55668286132813,-2.4544999599456787,1.2775999307632446,-0.9131999611854553
1702219115844682800,34.61668286132812,-0.7197999954223633,2.243799924850464,-1.8410999774932861
1702219115904682800,34.676682861328125,0.6800000071525574,2.4186999797821045,-1.6066999435424805
1702219115964682800,34.73668286132813,1.9975999593734741,-0.5590999722480774,-1.323599934577942
1702219116024682800,34.79668286132812,0.30169999599456787,-0.2615000009536743,-0.9017999768257141
1702219116084682800,34.856682861328125,1.4737999439239502,-0.5478999614715576,-3.9863998889923096
1702219116144681200,34.91668115234375,5.640399932861328,-1.3020999431610107,-5.438199996948242
1702219116204681200,34.97668115234375,-1.0069999694824219,-0.09059999883174896,-0.7408999800682068
1702219116264751400,35.03675146484375,-2.833899974822998,-3.296099901199341,-0.09709999710321426
1702219116324682800,35.09668286132813,-1.9924999475479126,-0.4643999934196472,-0.05119999870657921
1702219116384682800,35.15668286132812,-1.7994999885559082,0.7263000011444092,0.3748999834060669
1702219116444682800,35.216682861328124,-2.052299976348877,1.9452999830245972,3.827399969100952
1702219116504682800,35.276682861328126,-1.6140999794006348,2.6385998725891113,4.778899669647217
1702219116564682800,35.33668286132813,2.941999912261963,0.07699999958276749,-4.608699798583984
1702219116624682800,35.396682861328124,1.3695999383926392,4.2571001052856445,-4.109600067138672
1702219116684682800,35.456682861328126,-0.12319999933242798,-2.2109999656677246,-3.339900016784668
1702219116744682800,35.51668286132813,2.971799850463867,-3.298799991607666,1.648800015449524
1702219116804682800,35.57668286132812,-5.254299640655518,-1.9651999473571777,1.602199912071228
1702219116864682800,35.636682861328126,-2.514899969100952,-1.3213999271392822,-1.2281999588012695
1702219116924682800,35.69668286132813,2.6038999557495117,0.36319997906684875,2.5239999294281006
1702219116984682800,35.75668286132812,-0.43869999051094055,0.9037999510765076,-0.9158999919891357
1702219117044682800,35.816682861328125,-0.5539000034332275,2.3977999687194824,-2.218400001525879
1702219117104682800,35.87668286132813,0.6121999621391296,1.4407999515533447,-1.6805999279022217
1702219117164682800,35.93668286132812,3.075199842453003,-1.1710000038146973,-1.1949999332427979
1702219117224682800,35.996682861328125,1.5805000066757202,-0.665399968624115,-1.1973999738693237
1702219117284682800,36.05668286132813,4.790999889373779,-0.289000004529953,-5.732399940490723
1702219117344682800,36.11668286132812,-1.2954000234603882,0.7269999980926514,-5.499899864196777
1702219117404682800,36.176682861328125,-0.6484000086784363,-4.715799808502197,-0.5108999609947205
1702219117464682800,36.23668286132813,-0.7996999621391296,-1.0894999504089355,1.1280999183654785
1702219117524682800,36.29668286132812,-3.888199806213379,1.4068999290466309,1.1977999210357666
1702219117584682800,36.356682861328125,-2.433199882507324,1.8095999956130981,3.4278998374938965
1702219117644682800,36.41668286132813,-1.319599986076355,3.2084999084472656,5.794600009918213
1702219117704682800,36.47668286132812,4.25600004196167,-3.910599946975708,-15.117799758911133
1702219117764682800,36.536682861328124,1.501099944114685,6.424699783325195,0.9311999678611755
1702219117824682800,36.59668286132813,-3.1843998432159424,-7.967499732971191,-2.6921000480651855
1702219117884682800,36.65668286132812,-6.235899925231934,0.4916999936103821,2.542099952697754
1702219117944682800,36.716682861328124,-4.870100021362305,-3.385200023651123,-2.6410000324249268
1702219118004682800,36.776682861328126,-0.632099986076355,0.33399999141693115,1.3502999544143677
1702219118064682800,36.83668286132813,0.552299976348877,-0.7802000045776367,0.7752000093460083
1702219118124682800,36.896682861328124,-0.8765999674797058,1.4878000020980835,-0.5579999685287476
1702219118184682800,36.956682861328126,-0.7378000020980835,1.0392999649047852,-1.3600999116897583
1702219118244682800,37.01668286132813,0.913599967956543,0.6333999633789062,-2.449399948120117
1702219118304681200,37.07668115234375,3.647899866104126,-0.6668999791145325,-2.9387998580932617
1702219118364682800,37.136682861328126,1.0049999952316284,0.46879997849464417,-3.8902997970581055
1702219118424682800,37.19668286132813,6.3078999519348145,-1.2223999500274658,-4.858299732208252
1702219118484682800,37.25668286132812,1.847999930381775,-0.6523000001907349,-1.4715999364852905
1702219118544682800,37.316682861328125,-3.6933000087738037,-4.5640997886657715,-4.039799690246582
1702219118604682800,37.37668286132813,-2.3646998405456543,-0.8930000066757202,-2.1917998790740967
1702219118664682800,37.43668286132812,-3.5757999420166016,0.7700999975204468,1.5999000072479248
1702219118724682800,37.496682861328125,-2.171099901199341,1.267300009727478,4.901700019836426
1702219118784682800,37.55668286132813,-1.792199969291687,2.734299898147583,6.915999889373779
1702219118844682800,37.61668286132812,-0.1735999882221222,0.7840999960899353,-0.5428999662399292
1702219118904682800,37.676682861328125,3.052799940109253,0.8831999897956848,-5.583099842071533
1702219118964682800,37.73668286132813,2.0794999599456787,0.627299964427948,-3.6345999240875244
1702219119024682800,37.79668286132812,0.4802999794483185,-6.761600017547607,1.1086000204086304
1702219119084682800,37.856682861328125,-3.751199960708618,2.3557000160217285,2.6589999198913574
1702219119144682800,37.91668286132813,-3.31469988822937,-3.0012998580932617,-2.365000009536743
1702219119204682800,37.97668286132812,-1.9464999437332153,-0.004799999762326479,0.49309998750686646
1702219119264682800,38.036682861328124,3.216899871826172,-0.8866999745368958,1.6699999570846558
1702219119324682800,38.09668286132813,-1.0684999227523804,0.7193999886512756,-0.762499988079071
1702219119384682800,38.15668286132812,-0.9401999711990356,1.8544999361038208,-1.5471999645233154
1702219119444682800,38.216682861328124,0.614300012588501,2.6382999420166016,-2.131899833679199
1702219119504682800,38.276682861328126,2.9012999534606934,-0.12449999898672104,-4.077600002288818
1702219119564709400,38.33670947265625,1.7519999742507935,-0.8526999950408936,-2.8232998847961426
1702219119624682800,38.396682861328124,4.816699981689453,-1.2269999980926514,-6.714099884033203
1702219119684682800,38.456682861328126,-0.7436999678611755,-0.680899977684021,-1.296299934387207
1702219119744682800,38.51668286132813,-1.2691999673843384,-4.314700126647949,-3.3999998569488525
1702219119804682800,38.57668286132812,-1.746899962425232,-2.904399871826172,1.3679999113082886
1702219119864682800,38.636682861328126,-1.684999942779541,-0.023799998685717583,1.3366999626159668
1702219119924682800,38.69668286132813,-2.262199878692627,1.8208999633789062,2.0607998371124268
1702219119984682800,38.75668286132812,-3.192499876022339,2.5983998775482178,5.713299751281738
1702219120044682800,38.816682861328125,-0.2515999972820282,1.8741999864578247,0.1931999921798706
1702219120104682800,38.87668286132813,2.230299949645996,0.6746000051498413,-3.6980998516082764
1702219120164682800,38.93668286132812,-3.8568999767303467,-1.0214999914169312,-0.35679998993873596
1702219120224682800,38.996682861328125,-1.6236000061035156,-6.751399993896484,-1.169600009918213
1702219120284682800,39.05668286132813,-1.645900011062622,2.5223000049591064,1.965399980545044
1702219120344682800,39.11668286132812,-2.75,-1.5210999250411987,-2.2856998443603516
1702219120404682800,39.176682861328125,0.5590000152587891,0.4797999858856201,-0.7652999758720398
1702219120464682800,39.23668286132813,-0.911300003528595,0.313400000333786,-0.6505999565124512
1702219120524682800,39.29668286132812,0.2044999897480011,0.5336999893188477,-2.2927000522613525
1702219120584682800,39.356682861328125,-1.011299967765808,2.059499979019165,-2.154599905014038
1702219120644682800,39.41668286132813,0.0786999985575676,0.11299999803304672,1.39329993724823
1702219120704682800,39.47668286132812,1.0918999910354614,-0.06849999725818634,0.878600001335144
1702219120764682800,39.536682861328124,1.2796000242233276,0.15060000121593475,-0.09309999644756317
1702219120824682800,39.59668286132813,2.2114999294281006,-0.8667999505996704,-0.4245999753475189
1702219120884682800,39.65668286132812,1.1103999614715576,0.21570000052452087,-1.1898000240325928
1702219120944682800,39.716682861328124,-2.7986998558044434,-0.08159999549388885,-5.428999900817871
1702219121004682800,39.776682861328126,1.6763999462127686,-1.3187999725341797,-2.6552000045776367
1702219121064682800,39.83668286132813,4.302700042724609,-5.280999660491943,-1.604200005531311
1702219121124682800,39.896682861328124,-0.8715999722480774,-0.9772999882698059,-0.5860999822616577
1702219121184682800,39.956682861328126,-2.5652999877929688,-2.4631998538970947,-0.1525999903678894
1702219121244682800,40.01668286132813,1.2726999521255493,-1.2817000150680542,2.0850000381469727
1702219121304682800,40.07668286132812,-1.8845999240875244,-1.284999966621399,2.5625
1702219121364682800,40.136682861328126,-2.426100015640259,0.32179999351501465,0.12209999561309814
1702219121424682800,40.19668286132813,-2.785099983215332,0.26179999113082886,3.2792999744415283
1702219121484682800,40.25668286132812,-1.3791999816894531,1.3676999807357788,7.972799777984619
1702219121544682800,40.316682861328125,1.295199990272522,2.698699951171875,2.596400022506714
1702219121604682800,40.37668286132813,2.6116998195648193,-6.154799938201904,-10.922399520874023
1702219121664682800,40.43668286132812,-6.992799758911133,3.812299966812134,3.3402998447418213
1702219121724682800,40.496682861328125,-2.9642999172210693,-10.35260009765625,-6.839200019836426
1702219121784682800,40.55668286132813,-2.0404000282287598,-0.007999999448657036,4.010200023651123
1702219121844682800,40.61668286132812,-2.993799924850464,-2.457200050354004,-1.650399923324585
1702219121904682800,40.676682861328125,0.4453999996185303,0.41099998354911804,0.7195000052452087
1702219121964682800,40.73668286132813,1.4193999767303467,-2.018199920654297,2.3387999534606934
1702219122024682800,40.79668286132812,0.4018999934196472,0.5454999804496765,1.4808999300003052
1702219122084682800,40.856682861328125,1.94569993019104,0.6162999868392944,-0.6441999673843384
1702219122144682800,40.91668286132813,-1.3395999670028687,0.5218999981880188,1.6137999296188354
1702219122204682800,40.97668286132812,-1.1002999544143677,1.4002999067306519,-0.809499979019165
1702219122264682800,41.036682861328124,-0.16339999437332153,0.5083000063896179,-3.227099895477295
1702219122324682800,41.09668286132813,3.5058000087738037,-0.5360000133514404,-2.3028998374938965
1702219122384682800,41.15668286132812,2.0889999866485596,-3.477099895477295,-6.996299743652344
1702219122444682800,41.216682861328124,1.779099941253662,-0.15779998898506165,-2.9415998458862305
1702219122504682800,41.276682861328126,-0.9251999855041504,-6.8003997802734375,-2.408399820327759
1702219122564682800,41.33668286132813,1.108799934387207,-2.419600009918213,2.0715999603271484
1702219122624682800,41.396682861328124,-1.2807999849319458,-2.7147998809814453,3.565199851989746
1702219122684682800,41.456682861328126,-3.1240999698638916,1.1380000114440918,1.086400032043457
1702219122744682800,41.51668286132813,-3.482800006866455,0.7525999546051025,4.56119966506958
1702219122804682800,41.57668286132812,-3.210099935531616,2.7089998722076416,8.202799797058105
1702219122864682800,41.636682861328126,0.25679999589920044,0.12209999561309814,1.0770000219345093
1702219122924682800,41.69668286132813,2.4430999755859375,-3.312700033187866,-6.65369987487793
1702219122984682800,41.75668286132812,4.351799964904785,1.132200002670288,-0.3561999797821045
1702219123044682800,41.816682861328125,-11.793899536132812,-9.474599838256836,-7.154799938201904
1702219123104682800,41.87668286132813,-5.986599922180176,3.844399929046631,5.5548996925354
1702219123164682800,41.93668286132812,-3.000200033187866,-3.979099988937378,1.1220999956130981
1702219123224682800,41.996682861328125,-0.5823000073432922,-1.2066999673843384,2.412400007247925
1702219123284682800,42.05668286132813,2.0044000148773193,-1.3228999376296997,0.5934999585151672
1702219123344682800,42.11668286132812,-1.6796000003814697,0.2003999948501587,-1.3945000171661377
1702219123404682800,42.176682861328125,-0.6571999788284302,2.751499891281128,-0.5383999943733215
1702219123464682800,42.23668286132813,-1.2695000171661377,2.7379000186920166,0.08839999884366989
1702219123524682800,42.29668286132812,2.4034998416900635,-1.1936999559402466,-1.7502999305725098
1702219123584682800,42.356682861328125,1.6013000011444092,-0.4398999810218811,-1.4412000179290771
1702219123644681200,42.41668115234375,1.3280999660491943,-0.513700008392334,-2.0169999599456787
1702219123704681200,42.47668115234375,5.523599624633789,-0.28189998865127563,0.1979999989271164
1702219123764681200,42.53668115234375,-0.06319999694824219,-2.9338998794555664,-8.792499542236328
1702219123824682800,42.59668286132813,-1.6366000175476074,-1.3222999572753906,0.42399999499320984
1702219123884682800,42.65668286132812,0.1964999884366989,-7.13129997253418,1.652999997138977
1702219123944682800,42.716682861328124,-2.9868998527526855,-0.041200000792741776,2.8782999515533447
1702219124004682800,42.776682861328126,-3.6273000240325928,0.8226999640464783,0.840499997138977
1702219124064682800,42.83668286132813,-3.5067999362945557,3.2816998958587646,5.184899806976318
1702219124124682800,42.896682861328124,-1.573199987411499,2.662099838256836,8.804299354553223
1702219124184682800,42.956682861328126,4.809799671173096,-2.5322999954223633,-10.046099662780762
1702219124244682800,43.01668286132813,-0.34049999713897705,4.737599849700928,-2.0146000385284424
1702219124304682800,43.07668286132812,1.4614999294281006,-8.869999885559082,-4.013799667358398
1702219124364682800,43.136682861328126,-4.750699996948242,-0.28939998149871826,5.634199619293213
1702219124424682800,43.19668286132813,-5.085899829864502,-5.461899757385254,-0.44269999861717224
1702219124484682800,43.25668286132812,-3.91159987449646,-0.7120999693870544,0.8702999949455261
1702219124544682800,43.316682861328125,3.561699867248535,-1.0332999229431152,0.8422999978065491
1702219124604682800,43.37668286132813,-2.7993998527526855,1.5714999437332153,-0.01860000006854534
1702219124664682800,43.43668286132812,-0.663599967956543,1.4666999578475952,-1.8533999919891357
1702219124724682800,43.496682861328125,1.2999999523162842,0.7644999623298645,-1.7619999647140503
1702219124784682800,43.55668286132813,2.453699827194214,-1.7838999032974243,-1.416599988937378
1702219124844682800,43.61668286132812,3.1064999103546143,-0.6980999708175659,0.30559998750686646
1702219124904682800,43.676682861328125,-1.3909999132156372,-0.17430000007152557,-3.7166998386383057
1702219124964682800,43.73668286132813,4.093599796295166,1.3339999914169312,-5.2453999519348145
1702219125024682800,43.79668286132812,-0.8960999846458435,-5.431600093841553,0.060999996960163116
1702219125084682800,43.856682861328125,-2.020599842071533,-3.830699920654297,1.347000002861023
1702219125144682800,43.91668286132813,-1.0637999773025513,-0.7193999886512756,2.2244999408721924
1702219125204682800,43.97668286132812,-2.0855000019073486,1.5098999738693237,4.119199752807617
1702219125264682800,44.036682861328124,-2.3869998455047607,2.409299850463867,2.473099946975708
1702219125324682800,44.09668286132813,-0.6197999715805054,0.7073999643325806,-1.0504000186920166
1702219125384682800,44.15668286132812,2.5532000064849854,0.5069000124931335,-2.0409998893737793
1702219125444682800,44.216682861328124,1.0647000074386597,0.35199999809265137,0.9945999979972839
1702219125504682800,44.276682861328126,1.3537999391555786,0.029600000008940697,1.9115999937057495
1702219125564682800,44.33668286132813,-4.2291998863220215,-7.819799900054932,-5.2079997062683105
1702219125624682800,44.396682861328124,-4.212800025939941,3.2821998596191406,3.1697998046875
1702219125684682800,44.456682861328126,-3.0505998134613037,-3.833400011062622,-2.2948999404907227
1702219125744682800,44.51668286132813,0.5042999982833862,1.382200002670288,1.548699975013733
1702219125804682800,44.57668286132812,0.2037999927997589,-1.5173999071121216,2.0267999172210693
1702219125864682800,44.636682861328126,-0.3066999912261963,0.5727999806404114,0.03759999945759773
1702219125924682800,44.69668286132813,0.3773999810218811,1.045199990272522,-0.6086999773979187
1702219125984682800,44.75668286132812,1.2714999914169312,-0.6426999568939209,-1.2681000232696533
1702219126044682800,44.816682861328125,4.593499660491943,-0.6988999843597412,-1.594499945640564
1702219126104682800,44.87668286132813,0.25529998540878296,-0.842799961566925,-1.4168999195098877
1702219126164682800,44.93668286132812,7.5218000411987305,-2.686199903488159,-7.201699733734131
1702219126224682800,44.996682861328125,-3.5446999073028564,-0.8107999563217163,-1.2408000230789185
1702219126284682800,45.05668286132813,-0.5726999640464783,-3.991499900817871,-1.9581999778747559
1702219126344682800,45.11668286132812,-2.696499824523926,-1.497499942779541,3.130199909210205
1702219126404681200,45.17668115234375,-2.1419999599456787,1.1083999872207642,1.9006999731063843
1702219126464682800,45.23668286132813,-2.8743999004364014,0.8862999677658081,1.604699969291687
1702219126524682800,45.29668286132812,-1.461899995803833,1.7316999435424805,5.911799907684326
1702219126584682800,45.356682861328125,2.269199848175049,-0.7754999995231628,-3.8107998371124268
1702219126644682800,45.41668286132813,0.6381999850273132,4.190700054168701,-2.9926998615264893
1702219126704682800,45.47668286132812,0.8319999575614929,-5.977200031280518,-2.2727999687194824
1702219126764682800,45.536682861328124,-1.9636999368667603,0.3024999797344208,2.7709999084472656
1702219126824682800,45.59668286132813,-5.131899833679199,-1.1069999933242798,3.4998998641967773
1702219126884682800,45.65668286132812,-2.9007999897003174,-3.8666999340057373,-1.7900999784469604
1702219126944682800,45.716682861328124,-1.1209999322891235,0.9975999593734741,0.7285000085830688
1702219127004682800,45.776682861328126,0.9629999995231628,-0.10759999603033066,-0.5349999666213989
1702219127064682800,45.83668286132813,-0.04099999740719795,0.9336999654769897,-0.6036999821662903
1702219127124682800,45.896682861328124,-0.36159998178482056,0.5155999660491943,-1.7271000146865845
1702219127184682800,45.956682861328126,1.5649999380111694,0.5292999744415283,-1.186900019645691
1702219127244682800,46.01668286132813,5.868199825286865,-1.2914999723434448,-2.0653998851776123
1702219127304682800,46.07668286132812,1.7989999055862427,-0.8294000029563904,0.4211999773979187
1702219127364682800,46.136682861328126,5.360300064086914,-3.809799909591675,-8.704099655151367
1702219127424682800,46.19668286132813,-9.109700202941895,-0.05900000035762787,-0.13089999556541443
1702219127484682800,46.25668286132812,-0.7549999952316284,-2.7527999877929688,-4.589699745178223
1702219127544682800,46.316682861328125,-2.643199920654297,-1.3930000066757202,2.392199993133545
1702219127604682800,46.37668286132813,-1.7732999324798584,0.48510000109672546,3.3864998817443848
1702219127664682800,46.43668286132812,-2.591599941253662,0.9472000002861023,3.490299940109253
1702219127724682800,46.496682861328125,-1.747999906539917,1.5413999557495117,5.015199661254883
1702219127784682800,46.55668286132813,2.936300039291382,0.5054999589920044,-2.9979000091552734
1702219127844682800,46.61668286132812,1.688099980354309,3.656099796295166,-3.214399814605713
1702219127904682800,46.676682861328125,-3.104099988937378,-0.9052000045776367,-2.088899850845337
1702219127964682800,46.73668286132813,-1.0917999744415283,-6.433499813079834,-1.7448999881744385
1702219128024682800,46.79668286132812,-5.34559965133667,1.1283999681472778,3.0546998977661133
1702219128084682800,46.856682861328125,-2.9203999042510986,-3.5607998371124268,-2.0035998821258545
1702219128144682800,46.91668286132813,0.058799996972084045,1.3823999166488647,1.9264999628067017
1702219128204682800,46.97668286132812,0.9018999934196472,-0.7116999626159668,0.661899983882904
1702219128264682800,47.036682861328124,0.35760000348091125,1.5205999612808228,-1.564099907875061
1702219128324682800,47.09668286132813,0.056299999356269836,0.2750000059604645,-1.4800999164581299
1702219128384682800,47.15668286132812,0.6736999750137329,-0.25859999656677246,0.6794999837875366
1702219128444682800,47.216682861328124,7.497099876403809,-1.191499948501587,-1.761199951171875
1702219128504682800,47.276682861328126,-0.607699990272522,-0.4348999857902527,-2.9893999099731445
1702219128564682800,47.33668286132813,3.709399938583374,-0.41439998149871826,-5.760200023651123
1702219128624682800,47.396682861328124,-3.5504000186920166,-0.6723999977111816,-2.1589999198913574
1702219128684682800,47.456682861328126,-1.2358999252319336,-5.766599655151367,-1.3794000148773193
1702219128744681200,47.51668115234375,-2.5078999996185303,0.38329997658729553,2.4298999309539795
1702219128804682800,47.57668286132812,-1.6837999820709229,0.27469998598098755,1.5259000062942505
1702219128864682800,47.636682861328126,-2.7014000415802,1.0851999521255493,2.128000020980835
1702219128924682800,47.69668286132813,-2.210599899291992,0.7884999513626099,5.074599742889404
1702219128984682800,47.75668286132812,2.0369999408721924,1.1480000019073486,2.2893998622894287
1702219129044682800,47.816682861328125,1.6387999057769775,2.131199836730957,-9.141799926757812
1702219129104682800,47.87668286132813,-0.11639999598264694,2.717399835586548,-0.6976000070571899
1702219129164682800,47.93668286132812,8.237099647521973,-12.518199920654297,-2.871799945831299
1702219129224682800,47.996682861328125,-0.7507999539375305,2.6205999851226807,6.3404998779296875
1702219129284682800,48.05668286132813,-4.777899742126465,-2.2446999549865723,-0.6705999970436096
1702219129344682800,48.11668286132812,-3.158599853515625,-0.1882999986410141,-1.3079999685287476
1702219129404682800,48.176682861328125,4.491300106048584,-0.4311999976634979,4.537399768829346
1702219129464682800,48.23668286132813,-0.49949997663497925,0.8210999965667725,0.85589998960495
1702219129524682800,48.29668286132812,-1.049299955368042,2.5566999912261963,-0.5015000104904175
1702219129584682800,48.356682861328125,1.083299994468689,-0.5823000073432922,-2.6912999153137207
1702219129644682800,48.41668286132813,5.149499893188477,-2.581899881362915,-1.4990999698638916
1702219129704682800,48.47668286132812,0.5827000141143799,-3.616799831390381,-3.257999897003174
1702219129764682800,48.536682861328124,1.702199935913086,-0.25769999623298645,-2.824899911880493
1702219129824682800,48.59668286132813,-5.443399906158447,-0.731499969959259,-1.0300999879837036
1702219129884682800,48.65668286132812,-0.12309999763965607,-3.3550000190734863,-0.1371999979019165
1702219129944682800,48.716682861328124,-2.5348000526428223,0.8398999571800232,2.033599853515625
1702219130004682800,48.776682861328126,-2.812700033187866,1.035499930381775,2.194700002670288
1702219130064682800,48.83668286132813,-1.983699917793274,1.4970999956130981,4.643699645996094
1702219130124682800,48.896682861328124,-0.5722999572753906,2.555999994277954,5.437399864196777
1702219130184682800,48.956682861328126,6.300999641418457,-0.567799985408783,-11.484099388122559
1702219130244682800,49.01668286132813,-0.6773999929428101,2.7614998817443848,-1.5572999715805054
1702219130304682800,49.07668286132812,7.194299697875977,-13.295799255371094,-7.463299751281738
1702219130364682800,49.136682861328126,-4.945899963378906,3.4697999954223633,7.516499996185303
1702219130424682800,49.19668286132813,-5.577699661254883,-6.617199897766113,-1.3668999671936035
1702219130484682800,49.25668286132812,-2.8873000144958496,-0.8012999892234802,-0.9688999652862549
1702219130544682800,49.316682861328125,2.523200035095215,-1.364300012588501,1.3279999494552612
1702219130604682800,49.37668286132813,-0.6502999663352966,0.8613999485969543,0.36879998445510864
1702219130664682800,49.43668286132812,0.37049999833106995,3.2064998149871826,0.5055999755859375
1702219130724682800,49.496682861328125,1.8161998987197876,0.1451999992132187,-3.196499824523926
1702219130784682800,49.55668286132813,2.541299819946289,-1.3375999927520752,-2.2916998863220215
1702219130844682800,49.61668286132812,5.773799896240234,-0.022599998861551285,-4.021999835968018
1702219130904682800,49.676682861328125,1.9567999839782715,-2.437000036239624,-8.383699417114258
1702219130964682800,49.73668286132813,-3.7986998558044434,-3.1559998989105225,0.7124999761581421
1702219131024682800,49.79668286132812,0.23429998755455017,-5.839799880981445,-0.18609999120235443
1702219131084682800,49.856682861328125,-4.603499889373779,1.4090999364852905,2.8603999614715576
1702219131144682800,49.91668286132813,-2.988799810409546,1.0942000150680542,3.172299861907959
1702219131204682800,49.97668286132812,-2.579200029373169,1.5722999572753906,6.356599807739258
1702219131264682800,50.036682861328124,0.2037999927997589,1.2827999591827393,3.5212998390197754
1702219131324682800,50.09668286132813,2.159600019454956,0.023399999365210533,-8.777599334716797
1702219131384682800,50.15668286132812,-0.06469999998807907,5.351500034332275,2.9707999229431152
1702219131444682800,50.216682861328124,-6.727799892425537,-10.208600044250488,-2.721599817276001
1702219131504682800,50.276682861328126,-6.539899826049805,-0.2061999887228012,2.196500062942505
1702219131564682800,50.33668286132813,-5.203499794006348,-2.8269999027252197,-0.4675999879837036
1702219131624682800,50.396682861328124,13.242899894714355,0.6550999879837036,7.322000026702881
1702219131684682800,50.456682861328126,-3.6915998458862305,1.1281999349594116,1.1597999334335327
1702219131744682800,50.51668286132813,-2.5239999294281006,2.542099952697754,-0.40119999647140503
1702219131804682800,50.57668286132812,2.1796000003814697,0.1394999921321869,-3.904399871826172
1702219131864682800,50.636682861328126,3.28629994392395,-1.263800024986267,-2.5321998596191406
1702219131924682800,50.69668286132813,-0.25509998202323914,-0.6624999642372131,-4.969599723815918
1702219131984682800,50.75668286132812,6.607199668884277,-1.01010000705719,-2.6083998680114746
1702219132044682800,50.816682861328125,-6.917599678039551,-1.7555999755859375,-1.7233999967575073
1702219132104682800,50.87668286132813,1.4503999948501587,-5.163300037384033,-2.3229000568389893
1702219132164682800,50.93668286132812,-4.15369987487793,-0.05689999833703041,2.441999912261963
1702219132224682800,50.996682861328125,-3.0897998809814453,1.0757999420166016,2.0565998554229736
1702219132284682800,51.05668286132813,-2.8097000122070312,1.4294999837875366,3.622999906539917
1702219132344682800,51.11668286132812,-0.9249999523162842,1.3417999744415283,6.5548996925354
1702219132404682800,51.176682861328125,6.653199672698975,-2.48580002784729,-6.233299732208252
1702219132464682800,51.23668286132813,-0.6899999976158142,3.5852999687194824,-3.268399953842163
1702219132524682800,51.29668286132812,-1.646799921989441,-2.375999927520752,-0.7232999801635742
1702219132584682800,51.356682861328125,5.090799808502197,0.24529999494552612,0.824400007724762
1702219132644682800,51.41668286132813,-3.437199831008911,-2.268199920654297,3.0688998699188232
1702219132704682800,51.47668286132812,-5.516200065612793,-3.061699867248535,-0.8726999759674072
1702219132764682800,51.536682861328124,-3.169299840927124,-0.4934999942779541,1.0784000158309937
1702219132824682800,51.59668286132813,8.122599601745605,-0.10359999537467957,1.0600999593734741
1702219132884682800,51.65668286132812,-1.2460999488830566,2.2486000061035156,-0.3561999797821045
1702219132944682800,51.716682861328124,-1.129699945449829,2.3396999835968018,-1.1875
1702219133004682800,51.776682861328126,5.547699928283691,-0.12629999220371246,-5.427700042724609
1702219133064682800,51.83668286132813,1.9869999885559082,-0.4838999807834625,-2.6791000366210938
1702219133124682800,51.896682861328124,1.0734000205993652,-0.5364999771118164,-4.815099716186523
1702219133184682800,51.956682861328126,-8.14050006866455,-3.676499843597412,-3.5463998317718506
1702219133244682800,52.01668286132813,3.6763999462127686,-9.123000144958496,-2.1938998699188232
1702219133304682800,52.07668286132812,-3.943199872970581,-0.31630000472068787,4.555599689483643
1702219133364682800,52.136682861328126,-1.1960999965667725,1.7103999853134155,1.9756999015808105
1702219133424682800,52.19668286132813,-2.468899965286255,2.7854998111724854,6.521199703216553
1702219133484682800,52.25668286132812,-1.2608000040054321,2.0353000164031982,5.793099880218506
1702219133544682800,52.316682861328125,9.639800071716309,-3.4134998321533203,-11.08799934387207
1702219133604682800,52.37668286132813,-2.6422998905181885,3.938999891281128,-2.4168999195098877
1702219133664682800,52.43668286132812,-2.1693999767303467,-4.993199825286865,-0.6137999892234802
1702219133724682800,52.496682861328125,-4.24429988861084,-1.6028000116348267,3.780099868774414
1702219133784682800,52.55668286132813,-4.6468000411987305,-2.02620005607605,0.3084000051021576
1702219133844682800,52.61668286132812,-3.3932998180389404,-1.8106999397277832,-2.3691999912261963
1702219133904682800,52.676682861328125,2.6977999210357666,0.275299996137619,3.5901999473571777
1702219133964682800,52.73668286132813,1.187600016593933,-0.2628999948501587,0.41110000014305115
1702219134024682800,52.79668286132812,3.333099842071533,2.5439999103546143,-0.38659998774528503
1702219134084682800,52.856682861328125,-4.522799968719482,1.5967999696731567,-3.517400026321411
1702219134144682800,52.91668286132813,-1.5031999349594116,0.4132999777793884,-4.981499671936035
1702219134204682800,52.97668286132812,2.245300054550171,-2.640899896621704,-3.062700033187866
1702219134264711000,53.0367109375,4.140699863433838,-1.9960999488830566,-2.3132998943328857
1702219134324682800,53.09668286132813,-4.5406999588012695,-1.782099962234497,0.17639999091625214
1702219134384682800,53.15668286132812,4.038000106811523,-4.969399929046631,-4.850599765777588
1702219134444682800,53.216682861328124,-2.7012999057769775,-2.1403000354766846,1.5140999555587769
1702219134504682800,53.276682861328126,-1.006500005722046,0.13319998979568481,3.3406999111175537
1702219134564709400,53.33670947265625,-0.9881999492645264,1.368499994277954,3.03629994392395
1702219134624682800,53.396682861328124,-2.5025999546051025,2.2932000160217285,5.501399993896484
1702219134684682800,53.456682861328126,-0.7960999608039856,3.143699884414673,3.4707000255584717
1702219134744682800,53.51668286132813,6.578199863433838,-1.8335999250411987,-14.468499183654785
1702219134804682800,53.57668286132812,-1.00409996509552,4.240299701690674,1.8772999048233032
1702219134864682800,53.636682861328126,9.281299591064453,-12.387799263000488,0.6268999576568604
1702219134924682800,53.69668286132813,-5.329799652099609,2.613499879837036,3.7366998195648193
1702219134984682800,53.75668286132812,-2.1466000080108643,-6.809700012207031,-6.746699810028076
1702219135044682800,53.816682861328125,-3.845899820327759,1.0339000225067139,1.5952999591827393
1702219135104682800,53.87668286132813,1.0059999227523804,-0.1444000005722046,3.41159987449646
1702219135164682800,53.93668286132812,-0.5967000126838684,1.0061999559402466,0.7981999516487122
1702219135224682800,53.996682861328125,0.8176999688148499,0.3804999887943268,-1.4055999517440796
1702219135284682800,54.05668286132813,5.845099925994873,0.7479000091552734,-4.630399703979492
1702219135344682800,54.11668286132812,0.40619999170303345,0.7875999808311462,-2.4749999046325684
1702219135404682800,54.176682861328125,2.409299850463867,-0.6309999823570251,-1.9571999311447144
1702219135464682800,54.23668286132813,1.3644999265670776,-3.287799835205078,-7.040599822998047
1702219135524682800,54.29668286132812,-0.6987000107765198,1.6341999769210815,-2.7239999771118164
1702219135584682800,54.356682861328125,-2.4651999473571777,-4.2083001136779785,1.2421000003814697
1702219135644682800,54.41668286132813,-0.5372999906539917,-1.9127999544143677,1.2467999458312988
1702219135704682800,54.47668286132812,-4.643499851226807,1.1855000257492065,2.3588998317718506
1702219135764682800,54.536682861328124,-2.5271999835968018,0.3296999931335449,-0.14169999957084656
1702219135824682800,54.59668286132813,-3.5451998710632324,1.966399908065796,6.039999961853027
1702219135884682800,54.65668286132812,-1.0464999675750732,2.8671998977661133,6.165299892425537
1702219135944682800,54.716682861328124,3.552999973297119,-3.253199815750122,-17.330900192260742
1702219136004682800,54.776682861328126,1.5139999389648438,4.564799785614014,1.4844999313354492
1702219136064682800,54.83668286132813,-14.466499328613281,-10.825399398803711,-1.980299949645996
1702219136124682800,54.896682861328124,-6.373799800872803,2.9788999557495117,1.0188000202178955
1702219136184682800,54.956682861328126,-4.784299850463867,-3.893199920654297,-4.876699924468994
1702219136244682800,55.01668286132813,-2.6327998638153076,0.462799996137619,3.449199914932251
1702219136304682800,55.07668286132812,3.0809998512268066,-1.7530999183654785,1.1969000101089478
1702219136364682800,55.136682861328126,-0.4728999733924866,1.302899956703186,-0.3612000048160553
1702219136424682800,55.19668286132813,0.9820999503135681,0.5432000160217285,-1.6313999891281128
1702219136484682800,55.25668286132812,12.700599670410156,-1.691499948501587,-6.114799976348877
1702219136544682800,55.316682861328125,-1.5580999851226807,-1.3799999952316284,-3.408799886703491
1702219136604682800,55.37668286132813,6.653299808502197,-0.7566999793052673,-3.718400001525879
1702219136664682800,55.43668286132812,-7.6819000244140625,-2.943699836730957,-2.5685999393463135
1702219136724682800,55.496682861328125,2.1389999389648438,-3.461699962615967,-1.1444000005722046
1702219136784682800,55.55668286132813,-3.3967998027801514,0.1445000022649765,3.381699800491333
1702219136844682800,55.61668286132812,-4.05109977722168,1.5202999114990234,3.2075998783111572
1702219136904682800,55.676682861328125,-3.109799861907959,2.5673999786376953,2.7246999740600586
1702219136964682800,55.73668286132813,0.44769999384880066,2.837599992752075,5.384699821472168
1702219137024682800,55.79668286132812,5.279999732971191,-3.914299964904785,-14.0649995803833
1702219137084682800,55.856682861328125,7.697099685668945,3.7677998542785645,4.5467000007629395
1702219137144682800,55.91668286132813,-7.134799957275391,-5.761399745941162,-3.718599796295166
1702219137204682800,55.97668286132812,-8.30459976196289,1.56059992313385,4.742099761962891
1702219137264682800,56.036682861328124,-1.6822999715805054,-5.685400009155273,-3.874699831008911
1702219137324682800,56.09668286132813,-3.4647998809814453,0.9256999492645264,-0.435699999332428
1702219137384682800,56.15668286132812,-0.5928999781608582,0.5482999682426453,1.7425999641418457
1702219137444682800,56.216682861328124,0.47849997878074646,0.5516999959945679,-0.9939000010490417
1702219137504682800,56.276682861328126,-0.9296000003814697,0.40049999952316284,-2.0952999591827393
1702219137564682800,56.33668286132813,0.41040000319480896,-0.1987999975681305,-0.5299999713897705
1702219137624682800,56.396682861328124,3.3833999633789062,-0.03590000048279762,-0.38839998841285706
1702219137684682800,56.456682861328126,-1.1962000131607056,0.14989998936653137,-0.9565999507904053
1702219137744682800,56.51668286132813,-1.205899953842163,-1.886699914932251,-3.4542999267578125
1702219137804682800,56.57668286132812,9.769499778747559,-2.905099868774414,-3.319999933242798
1702219137864682800,56.636682861328126,-6.14579963684082,-1.8654999732971191,-1.4333999156951904
1702219137924682800,56.69668286132813,1.914599895477295,-6.3078999519348145,0.20759999752044678
1702219137984682800,56.75668286132812,-4.555999755859375,-0.40359997749328613,4.82319974899292
1702219138044682800,56.816682861328125,-3.0676000118255615,2.3611998558044434,1.1486999988555908
1702219138104682800,56.87668286132813,-2.8653998374938965,3.2440998554229736,2.1514999866485596
1702219138164682800,56.93668286132812,-1.8710999488830566,2.462100028991699,6.367300033569336
1702219138224682800,56.996682861328125,9.252999305725098,-3.9169998168945312,-11.681499481201172
1702219138284682800,57.05668286132813,0.32839998602867126,5.807399749755859,-0.6451999545097351
1702219138344682800,57.11668286132812,1.0335999727249146,-7.5680999755859375,-1.090499997138977
1702219138404682800,57.176682861328125,-2.0237998962402344,-2.6534998416900635,3.4661998748779297
1702219138464682800,57.23668286132813,-5.225499629974365,-0.8965999484062195,0.11759999394416809
1702219138524682800,57.29668286132812,-2.9923999309539795,-1.698599934577942,-2.079699993133545
1702219138584682800,57.356682861328125,0.8567000031471252,0.499099999666214,2.2600998878479004
1702219138644682800,57.41668286132813,0.37469998002052307,0.10339999943971634,-0.00559999980032444
1702219138704682800,57.47668286132812,-0.5044000148773193,1.222000002861023,-0.7752000093460083
1702219138764682800,57.536682861328124,-0.9531999826431274,0.9485999941825867,-0.29589998722076416
1702219138824682800,57.59668286132813,2.2121999263763428,-0.5317999720573425,-0.9332999587059021
1702219138884682800,57.65668286132812,2.827199935913086,-1.2725999355316162,-1.5929999351501465
1702219138944682800,57.716682861328124,1.3970999717712402,0.7531999945640564,-1.5048999786376953
1702219139004681200,57.77668115234375,12.902499198913574,-3.6926000118255615,-4.107199668884277
1702219139064681200,57.83668115234375,-10.926400184631348,-3.347100019454956,-5.400199890136719
1702219139124682800,57.896682861328124,6.312900066375732,-7.432799816131592,-6.408199787139893
1702219139184682800,57.956682861328126,-4.047399997711182,-3.6989998817443848,0.9246999621391296
1702219139244682800,58.01668286132813,0.2586999833583832,-0.5861999988555908,6.2204999923706055
1702219139304682800,58.07668286132812,-5.2444000244140625,3.296099901199341,6.234399795532227
1702219139364682800,58.136682861328126,-2.477599859237671,2.424099922180176,2.4515998363494873
1702219139424682800,58.19668286132813,-3.6676998138427734,2.164900064468384,0.6890999674797058
1702219139484682800,58.25668286132812,0.8501999974250793,2.3457999229431152,-0.9269999861717224
1702219139544682800,58.316682861328125,6.078000068664551,-0.4713999927043915,-2.913800001144409
1702219139604682800,58.37668286132813,-5.796199798583984,-3.28659987449646,-1.0196000337600708
1702219139664682800,58.43668286132812,-2.4203999042510986,-1.278499960899353,-1.1848000288009644
1702219139724682800,58.496682861328125,-2.930500030517578,-4.66379976272583,-0.8761000037193298
1702219139784682800,58.55668286132813,-0.25859999656677246,-1.1197999715805054,0.3326999843120575
1702219139844682800,58.61668286132812,-2.07889986038208,-0.01850000023841858,2.7261998653411865
1702219139904682800,58.676682861328125,-3.5913000106811523,0.8472999930381775,-2.898599863052368
1702219139964682800,58.73668286132813,1.6068999767303467,3.0680999755859375,-0.10749999433755875
1702219140024682800,58.79668286132812,1.0224000215530396,0.7780999541282654,1.1345000267028809
1702219140084682800,58.856682861328125,2.904899835586548,1.0773999691009521,-0.4837999939918518
1702219140144682800,58.91668286132813,1.9230999946594238,-0.9875999689102173,-1.704699993133545
1702219140204682800,58.97668286132812,14.408099174499512,-5.851199626922607,2.687700033187866
1702219140264682800,59.036682861328124,-5.43619966506958,-4.53309965133667,-10.035099983215332
1702219140324682800,59.09668286132813,-0.26159998774528503,0.7958999872207642,-8.596099853515625
1702219140384682800,59.15668286132812,-0.4423999786376953,-5.2500996589660645,-1.771799921989441
1702219140444682800,59.216682861328124,-2.0120999813079834,0.8971999883651733,3.4955999851226807
1702219140504682800,59.276682861328126,-2.9445998668670654,2.009500026702881,2.5493998527526855
1702219140564682800,59.33668286132813,-5.146899700164795,-0.8901000022888184,2.936499834060669
1702219140624682800,59.396682861328124,-3.2388999462127686,1.3066999912261963,6.994799613952637
1702219140684682800,59.456682861328126,-1.0022000074386597,2.896199941635132,3.908799886703491
1702219140744682800,59.51668286132813,5.924499988555908,-8.035200119018555,-13.723599433898926
1702219140804682800,59.57668286132812,1.6547999382019043,-0.9860999584197998,-4.888700008392334
1702219140864682800,59.636682861328126,-5.204699993133545,3.600799798965454,8.690400123596191
1702219140924682800,59.69668286132813,9.241799354553223,-8.766599655151367,-7.392999649047852
1702219140984682800,59.75668286132812,-6.082200050354004,-0.23639999330043793,2.7784998416900635
1702219141044682800,59.816682861328125,-1.5245999097824097,-2.523599863052368,-0.17339999973773956
1702219141104682800,59.87668286132813,1.080199956893921,1.4332000017166138,0.39409998059272766
1702219141164682800,59.93668286132812,-0.011899999342858791,1.1779999732971191,0.00279999990016222
1702219141224682800,59.996682861328125,0.07599999755620956,1.3509999513626099,-1.7253999710083008
1702219141284682800,60.05668286132813,1.5226999521255493,2.0020999908447266,-1.6287000179290771
1702219141344682800,60.11668286132812,2.8056998252868652,-0.3895999789237976,-2.3396999835968018
1702219141404682800,60.176682861328125,4.1728997230529785,-0.028999999165534973,-2.583199977874756
1702219141464682800,60.23668286132813,0.22919999063014984,-1.2684999704360962,-8.733200073242188
1702219141524682800,60.29668286132812,-0.48569998145103455,-1.6523000001907349,-1.646299958229065
1702219141584682800,60.356682861328125,-2.797600030899048,-5.5569000244140625,-1.6875
1702219141644682800,60.41668286132813,3.8610999584198,-3.6750998497009277,2.620699882507324
1702219141704682800,60.47668286132812,-3.304499864578247,0.2206999957561493,3.6965999603271484
1702219141764682800,60.536682861328124,-1.9924999475479126,1.3227999210357666,1.6728999614715576
1702219141824682800,60.59668286132813,-3.3239998817443848,0.41259998083114624,5.232399940490723
1702219141884682800,60.65668286132812,-1.7601999044418335,2.930999994277954,7.458899974822998
1702219141944682800,60.716682861328124,1.611299991607666,1.9030998945236206,-6.90910005569458
1702219142004682800,60.776682861328126,0.8064000010490417,2.665599822998047,-4.225599765777588
1702219142064682800,60.83668286132813,-5.753699779510498,-11.679499626159668,-3.3152999877929688
1702219142124682800,60.896682861328124,-7.5351996421813965,3.648099899291992,5.5794997215271
1702219142184682800,60.956682861328126,-3.412599802017212,-6.257400035858154,-4.540299892425537
1702219142244682800,61.01668286132813,-0.7930999994277954,1.8602999448776245,1.3119999170303345
1702219142304682800,61.07668286132812,-0.37119999527931213,-0.4448999762535095,1.1332999467849731
1702219142364682800,61.136682861328126,-0.9837999939918518,1.167199969291687,-2.4147000312805176
1702219142424682800,61.19668286132813,0.8966999650001526,1.8315999507904053,-1.8136999607086182
1702219142484682800,61.25668286132812,1.5578999519348145,0.359499990940094,-1.5865999460220337
1702219142544682800,61.316682861328125,2.9250998497009277,-1.4883999824523926,-2.158799886703491
1702219142604682800,61.37668286132813,0.8197000026702881,-0.8460999727249146,-2.763399839401245
1702219142664682800,61.43668286132812,7.165599822998047,-2.1095998287200928,-3.4077999591827393
1702219142724682800,61.496682861328125,-2.6828999519348145,0.32729998230934143,-5.859899997711182
1702219142784682800,61.55668286132813,-3.197199821472168,-5.519399642944336,1.028999924659729
1702219142844682800,61.61668286132812,2.1433000564575195,-2.8526999950408936,1.885599970817566
1702219142904682800,61.676682861328125,-4.012099742889404,2.0388998985290527,1.1679999828338623
1702219142964682800,61.73668286132813,-3.4858999252319336,2.700199842453003,0.05889999866485596
1702219143024682800,61.79668286132812,-2.2079999446868896,2.901899814605713,6.97689962387085
1702219143084682800,61.856682861328125,1.7828999757766724,2.955199956893921,4.811399936676025
1702219143144682800,61.91668286132813,0.4887999892234802,-2.225800037384033,-10.571999549865723
1702219143204682800,61.97668286132812,-2.272199869155884,6.434499740600586,2.7585999965667725
1702219143264682800,62.036682861328124,-1.595099925994873,-16.448400497436523,-11.363100051879883
1702219143324682800,62.09668286132813,-6.672199726104736,0.3822000026702881,6.2816996574401855
1702219143384682800,62.15668286132812,-4.8480000495910645,-1.431999921798706,2.376499891281128
1702219143444682800,62.216682861328124,-3.2891998291015625,-2.0358998775482178,0.008599999360740185
1702219143504682800,62.276682861328126,11.999300003051758,1.7237999439239502,3.706899881362915
1702219143564682800,62.33668286132813,-2.1986000537872314,1.4438999891281128,-1.0703999996185303
1702219143624682800,62.396682861328124,-1.8786998987197876,2.6747000217437744,-0.4875999987125397
1702219143684682800,62.456682861328126,2.0576000213623047,-0.049799997359514236,-4.892999649047852
1702219143744682800,62.51668286132813,2.8357999324798584,-1.7300999164581299,-2.2874999046325684
1702219143804682800,62.57668286132812,0.3075000047683716,-3.2177000045776367,-6.675600051879883
1702219143864682800,62.636682861328126,-0.2971999943256378,0.1606999933719635,-1.3312000036239624
1702219143924682800,62.69668286132813,-3.429499864578247,-5.065899848937988,-3.4707000255584717
1702219143984682800,62.75668286132812,-1.4951000213623047,-2.310499906539917,0.055299997329711914
1702219144044682800,62.816682861328125,-3.0934998989105225,-0.33980000019073486,3.684499979019165
1702219144104682800,62.87668286132813,-3.337100028991699,1.7711999416351318,4.251100063323975
1702219144164682800,62.93668286132812,-3.062199831008911,3.159099817276001,5.463099956512451
1702219144224682800,62.996682861328125,1.7984999418258667,1.1283999681472778,-0.06610000133514404
1702219144284682800,63.05668286132813,3.973099946975708,1.833899974822998,-4.43619966506958
1702219144344682800,63.11668286132812,5.341899871826172,-5.442999839782715,-3.3576998710632324
1702219144404682800,63.176682861328125,-9.338799476623535,3.3929998874664307,8.312600135803223
1702219144464682800,63.23668286132813,-2.2040998935699463,-8.369799613952637,-4.047699928283691
1702219144524682800,63.29668286132812,-2.971099853515625,-0.6668999791145325,1.885599970817566
1702219144584682800,63.356682861328125,-0.6420999765396118,-0.6934999823570251,1.6535999774932861
1702219144644682800,63.41668286132813,0.5302000045776367,1.8252999782562256,-0.0949999988079071
1702219144704682800,63.47668286132812,-0.5906999707221985,2.2342000007629395,-2.4045000076293945
1702219144764682800,63.536682861328124,-0.7172999978065491,1.7856999635696411,-2.194499969482422
1702219144824682800,63.59668286132813,3.23829984664917,0.13759998977184296,-2.948699951171875
1702219144884682800,63.65668286132812,4.008699893951416,-1.4737999439239502,-3.4210000038146973
1702219144944682800,63.716682861328124,-0.13529999554157257,-1.2380999326705933,-2.4407999515533447
1702219145004682800,63.776682861328126,5.731199741363525,-0.729699969291687,-3.668599843978882
1702219145064682800,63.83668286132813,-3.756699800491333,-0.8011999726295471,-5.230400085449219
1702219145124682800,63.896682861328124,-1.5016999244689941,-4.857500076293945,-2.447700023651123
1702219145184682800,63.956682861328126,-3.27239990234375,-1.6267999410629272,3.657599925994873
1702219145244682800,64.01668286132812,-2.676800012588501,1.5889999866485596,1.1892999410629272
1702219145304682800,64.07668286132812,-2.7119998931884766,1.9782999753952026,1.8152999877929688
1702219145364682800,64.13668286132813,-2.1723999977111816,1.7184998989105225,5.848499774932861
1702219145424682800,64.19668286132813,3.2440998554229736,0.5722999572753906,0.25360000133514404
1702219145484682800,64.25668286132813,0.23639999330043793,2.2383999824523926,-8.562999725341797
1702219145544682800,64.31668286132812,0.398499995470047,0.16439999639987946,-0.43879997730255127
1702219145604682800,64.37668286132812,0.20719999074935913,-7.425899982452393,3.094099998474121
1702219145664682800,64.43668286132812,-6.066400051116943,2.0697999000549316,2.9598000049591064
1702219145724682800,64.49668286132813,-4.84119987487793,-5.222899913787842,-5.484499931335449
1702219145784682800,64.55668286132813,-1.9530999660491943,1.0825999975204468,-0.08229999989271164
1702219145844682800,64.61668286132813,0.5604000091552734,-0.6466999650001526,0.9517999887466431
1702219145904682800,64.67668286132813,0.10130000114440918,0.7849999666213989,-0.32099997997283936
1702219145964682800,64.73668286132812,-0.5349999666213989,1.5267000198364258,-2.69350004196167
1702219146024682800,64.79668286132812,-0.016699999570846558,2.0406999588012695,-2.19599986076355
1702219146084682800,64.85668286132812,0.915399968624115,-1.2445999383926392,-3.6596999168395996
1702219146144682800,64.91668286132813,1.7706999778747559,-1.2979999780654907,-1.8029999732971191
1702219146204682800,64.97668286132813,7.655999660491943,-3.4907000064849854,2.3294999599456787
1702219146264682800,65.03668286132813,-1.2311999797821045,-1.1407999992370605,-4.898099899291992
1702219146324682800,65.09668286132812,1.1116999387741089,-0.5722000002861023,-2.4624998569488525
1702219146384682800,65.15668286132812,-0.7827000021934509,-5.446000099182129,3.553799867630005
1702219146444682800,65.21668286132812,-2.075899839401245,1.7666999101638794,3.434199810028076
1702219146504682800,65.27668286132813,-4.778299808502197,3.2669999599456787,1.2324999570846558
1702219146564682800,65.33668286132813,-2.634199857711792,3.9739999771118164,5.577899932861328
1702219146624682800,65.39668286132813,5.303599834442139,0.5753999948501587,-8.348400115966797
1702219146684682800,65.45668286132812,1.69760000705719,3.3420000076293945,1.2206000089645386
1702219146744682800,65.51668286132812,-0.9810999631881714,-7.224599838256836,2.210099935531616
1702219146804682800,65.57668286132812,-8.962599754333496,-1.3698999881744385,0.17109999060630798
1702219146864682800,65.63668286132813,-2.666299819946289,-2.9445998668670654,-5.19379997253418
1702219146924682800,65.69668286132813,-0.5496999621391296,-0.49059998989105225,3.653899908065796
1702219146984682800,65.75668286132813,-0.40389999747276306,-1.1624000072479248,1.834999918937683
1702219147044682800,65.81668286132812,0.06610000133514404,1.9875999689102173,-0.7394999861717224
1702219147104682800,65.87668286132812,-0.7448999881744385,1.6381999254226685,-1.6776999235153198
1702219147164682800,65.93668286132812,-0.4899999797344208,1.4049999713897705,-1.3848999738693237
1702219147224682800,65.99668286132813,1.0302000045776367,0.005499999970197678,-2.6345999240875244
1702219147284682800,66.05668286132813,1.8888999223709106,-0.543999969959259,-1.2079999446868896
1702219147344682800,66.11668286132813,1.920699954032898,0.09239999949932098,-1.32069993019104
1702219147404682800,66.17668286132813,-0.25669997930526733,-0.8994999527931213,-7.039700031280518
1702219147464682800,66.23668286132812,3.8681998252868652,1.2656999826431274,-2.6768999099731445
1702219147524682800,66.29668286132812,-4.005300045013428,-4.259799957275391,-1.9562000036239624
1702219147584682800,66.35668286132812,0.5615999698638916,-2.9236998558044434,-1.1384999752044678
1702219147644682800,66.41668286132813,-3.36329984664917,-0.9070000052452087,1.6799999475479126
1702219147704682800,66.47668286132813,-2.1875,0.8211999535560608,2.050999879837036
1702219147764682800,66.53668286132813,-1.7096999883651733,1.4808999300003052,2.3536999225616455
1702219147824682800,66.59668286132812,-1.6669999361038208,1.6062999963760376,6.129799842834473
1702219147884682800,66.65668286132812,1.3717999458312988,0.08669999986886978,1.4311999082565308
1702219147944682800,66.71668286132812,3.1360998153686523,2.9047999382019043,-7.265399932861328
1702219148004682800,66.77668286132813,2.1562998294830322,-6.960599899291992,-9.405799865722656
1702219148064682800,66.83668286132813,-3.24399995803833,2.7523000240325928,10.148200035095215
1702219148124682800,66.89668286132813,-5.816799640655518,-2.6357998847961426,1.7091999053955078
1702219148184682800,66.95668286132812,-0.09789999574422836,-1.7653999328613281,-4.040599822998047
1702219148244682800,67.01668286132812,-1.4129999876022339,0.26100000739097595,1.3747999668121338
1702219148304682800,67.07668286132812,-0.44259998202323914,-0.1824999898672104,1.4326000213623047
1702219148364682800,67.13668286132813,0.7601000070571899,1.5781999826431274,0.5504999756813049
1702219148424682800,67.19668286132813,-0.3958999812602997,1.169700026512146,-2.0177998542785645
1702219148484682800,67.25668286132813,0.3407000005245209,0.5570999979972839,-1.5937999486923218
1702219148544682800,67.31668286132812,5.028899669647217,-1.167199969291687,-0.9372999668121338
1702219148604682800,67.37668286132812,0.349700003862381,-1.051200032234192,-1.545300006866455
1702219148664682800,67.43668286132812,-0.0414000004529953,-1.1943999528884888,-5.250400066375732
1702219148724682800,67.49668286132813,7.189499855041504,0.6926000118255615,-2.400599956512451
1702219148784682800,67.55668286132813,-6.175899982452393,-2.495699882507324,1.6597999334335327
1702219148844682800,67.61668286132813,-0.5727999806404114,-2.6454999446868896,-4.334000110626221
1702219148904682800,67.67668286132813,-3.949699878692627,0.3497999906539917,0.20009998977184296
1702219148964682800,67.73668286132812,-0.8258999586105347,0.40939998626708984,1.7727999687194824
1702219149024682800,67.79668286132812,-1.9052999019622803,1.3291000127792358,4.480899810791016
1702219149084682800,67.85668286132812,0.10929999500513077,2.0543999671936035,4.768899917602539
1702219149144682800,67.91668286132813,1.2172999382019043,1.0957999229431152,-6.041499614715576
1702219149204682800,67.97668286132813,-1.7243999242782593,4.627500057220459,-4.3048996925354
1702219149264682800,68.03668286132813,-2.0348000526428223,-3.3185999393463135,-1.159999966621399
1702219149324682800,68.09668286132812,-1.8032000064849854,-3.55679988861084,1.9619998931884766
1702219149384682800,68.15668286132812,-3.2286999225616455,-2.9373998641967773,0.8770999908447266
1702219149444682800,68.21668286132812,-3.4484000205993652,-1.0674999952316284,-0.4657999873161316
1702219149504682800,68.27668286132813,-2.0625,-0.5216000080108643,-0.7738999724388123
1702219149564709400,68.33670947265625,3.296299934387207,0.14010000228881836,2.023200035095215
1702219149624711000,68.3967109375,0.6676999926567078,1.087999939918518,0.7746999859809875
1702219149684682800,68.45668286132812,-1.7275999784469604,2.165299892425537,-2.429499864578247
1702219149744682800,68.51668286132812,0.7820000052452087,1.6351999044418335,-2.884699821472168
1702219149804682800,68.57668286132812,5.201900005340576,-1.930799961090088,-1.7812999486923218
1702219149864682800,68.63668286132813,1.8188999891281128,-3.2644999027252197,-2.5379998683929443
1702219149924682800,68.69668286132813,5.967099666595459,-0.7917999625205994,-2.44599986076355
1702219149984682800,68.75668286132813,-7.359799861907959,0.007400000002235174,-1.515299916267395
1702219150044682800,68.81668286132812,1.8920999765396118,-4.012099742889404,-5.997799873352051
1702219150104682800,68.87668286132812,-2.794299840927124,-1.396299958229065,2.9746999740600586
1702219150164682800,68.93668286132812,-2.777099847793579,0.10529999434947968,1.6412999629974365
1702219150224682800,68.99668286132813,-2.822499990463257,1.4549999237060547,2.868499994277954
1702219150284682800,69.05668286132813,-0.7170000076293945,2.5535998344421387,3.0488998889923096
1702219150344682800,69.11668286132813,1.9469999074935913,1.8574999570846558,-2.4535000324249268
1702219150404682800,69.17668286132813,-2.6023998260498047,3.76419997215271,-4.044300079345703
1702219150464682800,69.23668286132812,1.927299976348877,-4.538700103759766,-2.811699867248535
1702219150524682800,69.29668286132812,1.8257999420166016,-0.5798999667167664,7.8065996170043945
1702219150584682800,69.35668286132812,-4.954699993133545,-2.588099956512451,3.450199842453003
1702219150644682800,69.41668286132813,-1.6495000123977661,-3.982100009918213,-4.0081000328063965
1702219150704682800,69.47668286132813,1.4155999422073364,3.2451999187469482,0.8276000022888184
1702219150764682800,69.53668286132813,-0.6092999577522278,0.2361999899148941,0.29319998621940613
1702219150824682800,69.59668286132812,0.49379998445510864,1.3192999362945557,-2.539599895477295
1702219150884682800,69.65668286132812,-1.0367000102996826,1.3737000226974487,-3.1352999210357666
1702219150944682800,69.71668286132812,1.312399983406067,1.862899899482727,-2.0795998573303223
1702219151004682800,69.77668286132813,7.06879997253418,-2.523699998855591,-2.853799819946289
1702219151064682800,69.83668286132813,4.559000015258789,-0.8328999876976013,-0.4788999855518341
1702219151124682800,69.89668286132813,-4.219699859619141,-1.19159996509552,-6.223999977111816
1702219151184682800,69.95668286132812,-4.040499687194824,0.19460000097751617,-1.927899956703186
1702219151244682800,70.01668286132812,-0.58160001039505,-4.39739990234375,-2.048799991607666
1702219151304682800,70.07668286132812,-0.5381999611854553,-0.7313999533653259,2.4282000064849854
1702219151364682800,70.13668286132813,-3.715099811553955,0.3547999858856201,3.261899948120117
1702219151424682800,70.19668286132813,-1.5751999616622925,0.9017999768257141,2.751999855041504
1702219151484682800,70.25668286132813,-2.7156999111175537,1.3772000074386597,3.803799867630005
1702219151544682800,70.31668286132812,1.07069993019104,0.22699999809265137,-0.7555999755859375
1702219151604682800,70.37668286132812,1.0063999891281128,2.78439998626709,-4.9567999839782715
1702219151664682800,70.43668286132812,0.5381999611854553,-1.12309992313385,-3.382699966430664
1702219151724682800,70.49668286132813,1.315500020980835,-3.847399950027466,0.6938999891281128
1702219151784682800,70.55668286132813,-4.444399833679199,1.7109999656677246,3.218600034713745
1702219151844682800,70.61668286132813,-3.0257999897003174,-5.113399982452393,-4.216399669647217
1702219151904682800,70.67668286132813,-2.5648999214172363,0.8597999811172485,-0.21649999916553497
1702219151964682800,70.73668286132812,-0.43949997425079346,-0.26729997992515564,1.104599952697754
1702219152024682800,70.79668286132812,0.1306999921798706,0.9924999475479126,0.8376999497413635
1702219152084682800,70.85668286132812,-0.1923999935388565,1.5836999416351318,-1.3666999340057373
1702219152144682800,70.91668286132813,1.6283999681472778,0.5916000008583069,-2.0109000205993652
1702219152204682800,70.97668286132813,1.4499999284744263,0.13689999282360077,-0.6426999568939209
1702219152264682800,71.03668286132813,-0.8641999959945679,-1.9391999244689941,-4.161999702453613
1702219152324682800,71.09668286132812,7.313699722290039,-0.039000000804662704,-5.380099773406982
1702219152384682800,71.15668286132812,-1.5464999675750732,-0.9010999798774719,-2.0641000270843506
1702219152444682800,71.21668286132812,-1.8793998956680298,-4.277400016784668,-1.2538999319076538
1702219152504682800,71.27668286132813,-2.2762999534606934,-2.400099992752075,1.8274999856948853
1702219152564682800,71.33668286132813,-1.987399935722351,1.4254000186920166,1.2342000007629395
1702219152624682800,71.39668286132813,-2.5652999877929688,1.7324999570846558,1.5751999616622925
1702219152684682800,71.45668286132812,-3.2098000049591064,1.6137999296188354,4.7565999031066895
1702219152744682800,71.51668286132812,0.21459999680519104,1.4506999254226685,2.8307998180389404
1702219152804682800,71.57668286132812,3.490000009536743,0.6793000102043152,-8.65839958190918
1702219152864682800,71.63668286132813,-1.2351999282836914,0.9750999808311462,-3.4010000228881836
1702219152924682800,71.69668286132813,-0.5396000146865845,-4.183399677276611,1.1330000162124634
1702219152984682800,71.75668286132813,-5.531199932098389,-1.2829999923706055,1.3289999961853027
1702219153044682800,71.81668286132812,-2.8207998275756836,-2.069499969482422,-1.086300015449524
1702219153104682800,71.87668286132812,-2.7939999103546143,-0.4748999774456024,-0.4576999843120575
1702219153164682800,71.93668286132812,1.440500020980835,0.1103999987244606,2.854099988937378
1702219153224682800,71.99668286132813,0.7555999755859375,1.1606999635696411,-0.08549999445676804
1702219153284682800,72.05668286132813,-1.0303999185562134,1.5881999731063843,-2.4388999938964844
1702219153344682800,72.11668286132813,-0.4551999866962433,0.9836999773979187,-1.4041999578475952
1702219153404682800,72.17668286132813,4.817800045013428,-1.313499927520752,-3.4001998901367188
1702219153464682800,72.23668286132812,1.3025000095367432,-1.0485999584197998,-2.3001999855041504
1702219153524682800,72.29668286132812,5.65809965133667,-1.0647000074386597,-3.1098999977111816
1702219153584682800,72.35668286132812,-2.7388999462127686,0.7615000009536743,-4.679599761962891
1702219153644682800,72.41668286132813,-1.5368999242782593,-0.7127999663352966,-3.4886999130249023
1702219153704682800,72.47668286132813,-1.2095999717712402,-6.776099681854248,2.974400043487549
1702219153764682800,72.53668286132813,-2.963099956512451,1.0225999355316162,2.0585999488830566
1702219153824682800,72.59668286132812,-3.312999963760376,1.2638999223709106,0.4424999952316284
1702219153884682800,72.65668286132812,-3.355599880218506,1.6461999416351318,4.4263997077941895
1702219153944682800,72.71668286132812,-1.3323999643325806,2.595399856567383,2.721400022506714
1702219154004682800,72.77668286132813,3.1572999954223633,-0.210099995136261,-9.82509994506836
1702219154064682800,72.83668286132813,0.7364999651908875,3.1470999717712402,-1.1481000185012817
1702219154124682800,72.89668286132813,-3.1618998050689697,-1.1419999599456787,3.3581998348236084
1702219154184682800,72.95668286132812,-7.416800022125244,-7.3379998207092285,-3.6885998249053955
1702219154244682800,73.01668286132812,0.9789999723434448,1.4470999240875244,-0.49229997396469116
1702219154304682800,73.07668286132812,-2.7014999389648438,1.0953999757766724,2.7082998752593994
1702219154364682800,73.13668286132813,-2.4177000522613525,-0.9035999774932861,0.1282999962568283
1702219154424682800,73.19668286132813,5.0889997482299805,1.6058999300003052,-1.9358999729156494
1702219154484682800,73.25668286132813,-2.1661999225616455,2.3594000339508057,-0.47669997811317444
1702219154544682800,73.31668286132812,-0.49779999256134033,0.15060000121593475,-1.6900999546051025
1702219154604682800,73.37668286132812,6.024899959564209,-1.3813999891281128,-1.7495999336242676
1702219154664682800,73.43668286132812,0.0803999975323677,-2.7692999839782715,-4.32319974899292
1702219154724682800,73.49668286132813,5.190299987792969,1.9994999170303345,-3.964599847793579
1702219154784682800,73.55668286132813,-5.047699928283691,-3.246500015258789,-4.8217997550964355
1702219154844682800,73.61668286132813,0.9271999597549438,-5.480400085449219,0.925599992275238
1702219154904682800,73.67668286132813,-1.5859999656677246,-0.6403999924659729,3.3611998558044434
1702219154964682800,73.73668286132812,-2.0597000122070312,1.3344999551773071,1.7009999752044678
1702219155024682800,73.79668286132812,-2.631899833679199,1.6150000095367432,1.8051999807357788
1702219155084682800,73.85668286132812,-2.7707998752593994,2.006199836730957,5.295799732208252
1702219155144682800,73.91668286132813,3.142899990081787,1.8244999647140503,-3.330399990081787
1702219155204682800,73.97668286132813,-1.1167999505996704,4.700999736785889,-4.009399890899658
1702219155264682800,74.03668286132813,6.042500019073486,-6.500899791717529,-8.566900253295898
1702219155324682800,74.09668286132812,0.14569999277591705,-1.331399917602539,6.112499713897705
1702219155384682800,74.15668286132812,-3.7027997970581055,-2.7523000240325928,1.44760000705719
1702219155444682800,74.21668286132812,-3.6900999546051025,-1.8007999658584595,-0.6469999551773071
1702219155504682800,74.27668286132813,4.088900089263916,1.2215999364852905,2.715100049972534
1702219155564682800,74.33668286132813,0.37469998002052307,-0.12079999595880508,-1.52239990234375
1702219155624682800,74.39668286132813,-0.9652999639511108,1.7759000062942505,-1.2648999691009521
1702219155684682800,74.45668286132812,0.9929999709129333,0.7649999856948853,-2.4212000370025635
1702219155744682800,74.51668286132812,6.351199626922607,-1.7634999752044678,-1.4464999437332153
1702219155804682800,74.57668286132812,-0.779699981212616,-1.9253000020980835,-2.680500030517578
1702219155864682800,74.63668286132813,8.20580005645752,0.5238000154495239,-3.0247998237609863
1702219155924682800,74.69668286132813,-8.60669994354248,0.251800000667572,0.0510999970138073
1702219155984682800,74.75668286132813,0.9291999936103821,-2.6511998176574707,-3.492799997329712
1702219156044682800,74.81668286132812,-2.597599983215332,-1.914099931716919,3.8464999198913574
1702219156104682800,74.87668286132812,-1.3547999858856201,0.734499990940094,2.609299898147583
