time,seconds_elapsed,z,y,x
1702691609887155700,0.05415576171875,0.2644999921321869,-0.05570000037550926,-0.3346000015735626
1702691609947154200,0.114154296875,-0.022199999541044235,0.05999999865889549,-0.05139999836683273
1702691610007154200,0.174154296875,0.00009999999747378752,0.013499999418854713,0.034699998795986176
1702691610067154200,0.234154296875,-0.06839999556541443,-0.08859999477863312,0.1225999966263771
1702691610127154200,0.294154296875,-0.17149999737739563,-0.10300000011920929,0.04580000042915344
1702691610187154200,0.354154296875,-0.09349999576807022,-0.218299999833107,0.03889999911189079
1702691610247154200,0.414154296875,-0.16339999437332153,-0.0754999965429306,-0.13689999282360077
1702691610307154200,0.474154296875,0.38850000500679016,0.07840000092983246,-0.06879999488592148
1702691610367154200,0.534154296875,0.10849999636411667,-0.032899998128414154,0.11389999836683273
1702691610427154200,0.594154296875,-0.11079999804496765,0.02449999935925007,-0.04490000009536743
1702691610487154200,0.654154296875,0.10679999738931656,-0.00930000003427267,0.17559999227523804
1702691610547154200,0.714154296875,-0.04209999740123749,-0.15379999577999115,0.023099999874830246
1702691610607154200,0.774154296875,-0.2166999876499176,-0.14919999241828918,-0.02589999884366989
1702691610667154200,0.834154296875,-0.37610000371932983,-0.2547000050544739,-0.30649998784065247
1702691610727154200,0.894154296875,0.3675999939441681,0.03309999778866768,-0.25999999046325684
1702691610787154200,0.954154296875,0.4138999879360199,0.4113999903202057,-0.03439999744296074
1702691610847154200,1.014154296875,-0.11009999364614487,0.0011999999405816197,0.06399999558925629
1702691610907154200,1.074154296875,-0.383899986743927,-0.17729999125003815,-0.7163999676704407
1702691610967154200,1.134154296875,-0.014499999582767487,0.06769999861717224,0.2838999927043915
1702691611027154200,1.194154296875,0.4875999987125397,0.34939998388290405,0.795199990272522
1702691611087154200,1.254154296875,-1.8853999376296997,0.431799978017807,-0.8370999693870544
1702691611147154200,1.314154296875,-0.031099999323487282,-0.05209999904036522,-0.32659998536109924
1702691611207154200,1.374154296875,0.7060999870300293,0.1119999960064888,0.8628000020980835
1702691611267154200,1.434154296875,-0.20250000059604645,-1.2199000120162964,-1.8294999599456787
1702691611327177500,1.494177490234375,0.3831999897956848,-0.6545000076293945,1.0310999155044556
1702691611387154200,1.554154296875,-0.1014999970793724,-0.036399997770786285,-0.33969998359680176
1702691611447154200,1.614154296875,0.4569000005722046,0.3790999948978424,0.4675999879837036
1702691611507154200,1.674154296875,0.4325999915599823,0.11899999529123306,0.28919997811317444
1702691611567154200,1.734154296875,-0.3240000009536743,0.16910000145435333,0.29409998655319214
1702691611627154200,1.794154296875,-0.6283000111579895,0.1396999955177307,0.24619999527931213
1702691611687154200,1.854154296875,-0.13019999861717224,0.2883000075817108,0.10579999536275864
1702691611747154200,1.914154296875,-0.06849999725818634,0.14549998939037323,0.11329999566078186
1702691611807154200,1.974154296875,-0.16419999301433563,0.12549999356269836,0.03790000081062317
1702691611867154200,2.034154296875,-0.13650000095367432,0.15539999306201935,-0.21059998869895935
1702691611927154200,2.094154296875,-0.10249999910593033,0.06469999998807907,-0.18389999866485596
1702691611987154200,2.154154296875,0.0689999982714653,-0.12629999220371246,-0.010599999688565731
1702691612047154200,2.214154296875,-0.31129997968673706,-0.409199982881546,-0.1290999948978424
1702691612107154200,2.274154296875,0.11999999731779099,-0.4642999768257141,0.12060000002384186
1702691612167154200,2.334154296875,0.20759999752044678,-0.296999990940094,-0.20099999010562897
1702691612227154200,2.394154296875,1.0714999437332153,-0.43789997696876526,-0.2532999813556671
1702691612287154200,2.454154296875,0.882599949836731,-0.029099998995661736,-0.09919999539852142
1702691612347154200,2.514154296875,-0.29670000076293945,0.1615999937057495,0.24369999766349792
1702691612407154200,2.574154296875,-0.4991999864578247,0.5792999863624573,0.4389999806880951
1702691612467154200,2.634154296875,-0.45729997754096985,0.39100000262260437,0.1370999962091446
1702691612527154200,2.694154296875,-0.3384000062942505,0.35169997811317444,-0.3276999890804291
1702691612587154200,2.754154296875,0.023399999365210533,0.2636999785900116,0.1454000025987625
1702691612647154200,2.814154296875,-0.34689998626708984,0.025599999353289604,0.16619999706745148
1702691612707154200,2.874154296875,-0.40959998965263367,0.08009999990463257,-0.16339999437332153
1702691612767154200,2.934154296875,-0.3105999827384949,0.08959999680519104,-0.0989999994635582
1702691612827154200,2.994154296875,0.8116999864578247,0.12399999797344208,0.03139999881386757
1702691612887154200,3.054154296875,-0.5771999955177307,-0.7087999582290649,0.07569999992847443
1702691612947154200,3.114154296875,-0.019600000232458115,-0.29019999504089355,-0.2556000053882599
1702691613007154200,3.174154296875,0.20899999141693115,-0.2597000002861023,-0.3075999915599823
1702691613067154200,3.234154296875,0.5309999585151672,-0.05199999734759331,-0.03269999846816063
1702691613127154200,3.294154296875,0.8353999853134155,0.25609999895095825,-0.2807999849319458
1702691613187154200,3.354154296875,0.09950000047683716,-0.006899999920278788,0.3621000051498413
1702691613247154200,3.414154296875,0.022699998691678047,-0.01640000008046627,0.7529000043869019
1702691613307154200,3.474154296875,-0.2992999851703644,0.015799999237060547,0.3319999873638153
1702691613367154200,3.534154296875,-0.259799987077713,0.10869999974966049,-0.14970000088214874
1702691613427177500,3.594177490234375,-0.3019999861717224,0.0908999964594841,-0.34630000591278076
1702691613487154200,3.654154296875,-0.07440000027418137,0.17229999601840973,0.4325999915599823
1702691613547154200,3.714154296875,-0.5769999623298645,0.08540000021457672,0.17339999973773956
1702691613607154200,3.774154296875,-0.09059999883174896,0.250900000333786,-0.13220000267028809
1702691613667154200,3.834154296875,-0.2029999941587448,0.13819999992847443,-0.7529000043869019
1702691613727154200,3.894154296875,-0.19029998779296875,-0.16849999129772186,-0.3249000012874603
1702691613787154200,3.954154296875,-0.15919999778270721,-0.08609999716281891,0.1639999896287918
1702691613847154200,4.014154296875,0.7020999789237976,-0.22909998893737793,-0.13269999623298645
1702691613907154200,4.074154296875,0.12729999423027039,-0.18029999732971191,-0.058399997651576996
1702691613967154200,4.134154296875,0.26899999380111694,-0.33169999718666077,-0.08249999582767487
1702691614027154200,4.194154296875,-0.09889999777078629,-0.0835999995470047,-0.11679999530315399
1702691614087154200,4.254154296875,-0.011799999512732029,0.15279999375343323,0.3707999885082245
1702691614147154200,4.314154296875,-0.09290000051259995,0.10859999805688858,0.5012999773025513
1702691614207154200,4.374154296875,-0.09139999747276306,0.203699991106987,0.218299999833107
1702691614267154200,4.434154296875,-0.07800000160932541,0.2298000007867813,0.07979999482631683
1702691614327154200,4.494154296875,-0.4343999922275543,0.15230000019073486,0.15369999408721924
1702691614387154200,4.554154296875,-0.11180000007152557,0.23809999227523804,-0.18709999322891235
1702691614447154200,4.614154296875,-0.4221999943256378,-0.02539999969303608,-0.6071999669075012
1702691614507154200,4.674154296875,-0.12559999525547028,-0.3077999949455261,-0.19329999387264252
1702691614567154200,4.734154296875,0.056299999356269836,-0.38830000162124634,-0.07029999792575836
1702691614627154200,4.794154296875,-0.07019999623298645,-0.1899999976158142,0.008899999782443047
1702691614687154200,4.854154296875,0.2621999979019165,-0.039799999445676804,-0.11479999870061874
1702691614747154200,4.914154296875,0.2953999936580658,-0.0608999989926815,-0.1559000015258789
1702691614807154200,4.974154296875,-0.05169999971985817,0.1606999933719635,0.15029999613761902
1702691614867154200,5.034154296875,0.18050000071525574,-0.06109999865293503,0.019500000402331352
1702691614927154200,5.094154296875,-0.33139997720718384,-0.010300000198185444,0.6378999948501587
1702691614987154200,5.154154296875,-0.1784999966621399,0.02410000003874302,-0.08419999480247498
1702691615047154200,5.214154296875,-0.05609999969601631,0.10509999841451645,-0.10369999706745148
1702691615107154200,5.274154296875,0.12239999324083328,-0.065700002014637,0.07019999623298645
1702691615167154200,5.334154296875,0.0494999997317791,-0.03790000081062317,-0.06579999625682831
1702691615227154200,5.394154296875,-0.14729999005794525,0.0023999998811632395,-0.012999999336898327
1702691615287154200,5.454154296875,-0.03439999744296074,0.005200000014156103,0.03709999844431877
1702691615347154200,5.514154296875,-0.3409000039100647,0.06849999725818634,-0.10529999434947968
1702691615407154200,5.574154296875,-0.20829999446868896,0.10109999775886536,0.09119999408721924
1702691615467154200,5.634154296875,0.08339999616146088,0.014299999922513962,-0.1995999962091446
1702691615527177500,5.694177490234375,0.21050000190734863,-0.1753000020980835,-0.21469999849796295
1702691615587154200,5.754154296875,-0.08699999749660492,-0.40799999237060547,-0.02969999983906746
1702691615647154200,5.814154296875,-0.12289999425411224,-0.06889999657869339,-0.023000000044703484
1702691615707154200,5.874154296875,0.04360000044107437,0.11549999564886093,0.09389999508857727
1702691615767154200,5.934154296875,-0.07440000027418137,-0.017999999225139618,-0.25699999928474426
1702691615827154200,5.994154296875,0.13849999010562897,-0.16529999673366547,0.11719999462366104
1702691615887154200,6.054154296875,-0.07669999450445175,-0.03909999877214432,0.1881999969482422
1702691615947154200,6.114154296875,0.010099999606609344,0.00989999994635582,0.31689998507499695
1702691616007154200,6.174154296875,-0.17099998891353607,0.2759999930858612,0.08709999918937683
1702691616067154200,6.234154296875,0.053999997675418854,0.35830000042915344,0.17159999907016754
1702691616127154200,6.294154296875,-0.4626999795436859,0.12919999659061432,-0.27969998121261597
1702691616187154200,6.354154296875,-0.0471000000834465,0.12780000269412994,-0.2701999843120575
1702691616247154200,6.414154296875,-0.23249998688697815,-0.09019999951124191,-0.20960000157356262
1702691616307154200,6.474154296875,-0.01730000041425228,-0.1103999987244606,-0.07479999959468842
1702691616367154200,6.534154296875,0.1793999969959259,-0.17889998853206635,0.09099999815225601
1702691616427154200,6.594154296875,-0.1436000019311905,-0.3919999897480011,-0.15330000221729279
1702691616487154200,6.654154296875,0.16929998993873596,-0.1777999997138977,-0.3131999969482422
1702691616547154200,6.714154296875,0.19749999046325684,-0.07519999891519547,0.07329999655485153
1702691616607154200,6.774154296875,0.19029998779296875,0.1232999935746193,0.0575999990105629
1702691616667154200,6.834154296875,-0.03759999945759773,0.041200000792741776,-0.05069999769330025
1702691616727154200,6.894154296875,-0.00930000003427267,-0.023799998685717583,-0.053199999034404755
1702691616787154200,6.954154296875,-0.008599999360740185,-0.002199999988079071,0.054099999368190765
1702691616847154200,7.014154296875,0.03909999877214432,0.09200000017881393,-0.1915999948978424
1702691616907154200,7.074154296875,0.0771000012755394,0.12409999966621399,-0.23680000007152557
1702691616967154200,7.134154296875,-0.11800000071525574,0.025999998673796654,-0.18959999084472656
1702691617027154200,7.194154296875,0.09860000014305115,-0.006199999712407589,0.012000000104308128
1702691617087154200,7.254154296875,-0.025699999183416367,-0.10969999432563782,0.15459999442100525
1702691617147154200,7.314154296875,-0.08419999480247498,-0.259799987077713,0.14669999480247498
1702691617207154200,7.374154296875,0.020999999716877937,-0.27070000767707825,0.018799999728798866
1702691617267154200,7.434154296875,0.01529999915510416,-0.23119999468326569,-0.4462999999523163
1702691617327154200,7.494154296875,0.15889999270439148,-0.14959999918937683,-0.13339999318122864
1702691617387154200,7.554154296875,0.06480000168085098,-0.0851999968290329,-0.033399999141693115
1702691617447154200,7.614154296875,-0.027699999511241913,-0.027499999850988388,0.07930000126361847
1702691617507154200,7.674154296875,-0.08299999684095383,0.04910000041127205,0.14100000262260437
1702691617567154200,7.734154296875,-0.2084999978542328,0.09939999878406525,0.014499999582767487
1702691617627177500,7.794177490234375,-0.15600000321865082,0.06359999626874924,0.062199998646974564
1702691617687154200,7.854154296875,-0.04739999771118164,-0.05929999798536301,0.08639999479055405
1702691617747154200,7.914154296875,-0.12759999930858612,-0.03969999775290489,-0.0010999999940395355
1702691617807154200,7.974154296875,-0.1680999994277954,-0.07229999452829361,-0.03280000016093254
1702691617867154200,8.034154296875,-0.07719999551773071,-0.001999999862164259,-0.02669999934732914
1702691617927154200,8.094154296875,-0.011699999682605267,-0.013899999670684338,0.05179999768733978
1702691617987154200,8.154154296875,0.06889999657869339,-0.014999999664723873,0.018799999728798866
1702691618047154200,8.214154296875,-0.2457999885082245,0.07519999891519547,0.15719999372959137
