time,seconds_elapsed,z,y,x
1705061787066238700,0.06923876953125,-0.03648283556337701,0.03929208658111747,0.04217450101647992
1705061787195084500,0.19808447265625,-0.17546200004182755,0.06002826547923032,-0.08631281291921622
1705061787245500700,0.248500732421875,-0.22432194733871147,0.20736186204636467,-0.13738389692693018
1705061787295928800,0.2989287109375,0.10105840963302179,0.09735481500788591,-0.12424003632133826
1705061787346364700,0.34936474609375,0.05887479372832458,0.09352951196553184,-0.17845858804192394
1705061787396792600,0.39979248046875,-0.10603106521274894,0.09133561865044758,-0.14825767544237897
1705061787447207700,0.450207763671875,-0.25660109098441897,0.10580373186343349,-0.32939109045043585
1705061787497621500,0.50062158203125,-0.26832906604325396,-0.027885292600933462,-0.187001594655402
1705061787548066600,0.551066650390625,-0.8064647050701081,0.16875081196539102,0.15202217907505108
1705061787598487600,0.601487548828125,-0.7847581924356519,0.4745946207528934,0.5513389473352581
1705061787648912600,0.65191259765625,-3.401315632690489,1.296223321478814,0.6080821038963273
1705061787699343600,0.702343505859375,-1.9776865591347217,1.3607983772419392,-0.014417167335393605
1705061787749757400,0.75275732421875,0.9593835955228656,2.3012175253801046,1.0872981739047913
1705061787800172500,0.803172607421875,1.2988356959342955,2.1674887077614664,1.3755482026062904
1705061787850587600,0.853587646484375,-0.1773342601871118,-1.1363799655251203,0.1725019811924547
1705061787901016800,0.904016845703125,3.5977974052116273,2.3618065802469848,-0.22450364231485873
1705061787951463700,0.954463623046875,0.4416586023673415,0.05639661271229852,-0.5691233180899172
1705061788001878800,1.004878662109375,-0.9704360276740044,1.2216316794183104,-0.5798199956059455
1705061788052304400,1.055304443359375,4.8853921606853605,-1.3807416795961558,0.4037561937460676
1705061788102724600,1.105724609375,0.8915621782496571,-2.912900832106173,1.153412787260115
1705061788153138700,1.156138671875,-4.455852742917836,0.017298562282382045,-0.5572383806373924
1705061788203567600,1.206567626953125,1.3650675789937377,0.07677379927202127,-2.126276991929114
1705061788253999600,1.25699951171875,-1.7086415085755287,-0.7502380831964314,1.9816222911484538
1705061788304415700,1.307415771484375,5.649765882870555,0.5458126947270706,0.45581433429606255
1705061788354829600,1.35782958984375,2.196067882644385,-0.13702721071005797,-1.0816245121825485
1705061788405275600,1.408275634765625,-1.0279063659984617,1.1239272381220011,-1.2404238389760256
1705061788455691500,1.45869140625,-0.6715634096059948,-2.463950611425936,0.9471439994137734
1705061788506119700,1.50911962890625,-1.3291599609188736,-1.6877182552732526,1.3958967247605323
1705061788556551700,1.5595517578125,-0.784748840085417,-0.3119802291832864,1.121657831885293
1705061788606965500,1.609965576171875,1.3205711424022912,-0.5876840069793164,1.0652402905493974
1705061788657388800,1.660388916015625,-0.8357974017340689,1.2699793115451932,1.3253612992882728
1705061788707810600,1.710810546875,-0.7435950649853795,0.7430333394493908,1.4025966607905924
1705061788758224600,1.761224609375,-0.22781570773860438,0.5997367752794176,0.4836497781395912
1705061788808665600,1.81166552734375,-0.7688601468842476,-0.17790336531195788,-0.6208746942456811
1705061788859089700,1.862089599609375,0.6923554377440363,0.455268975372985,-0.8099193025033921
1705061788909518600,1.9125185546875,0.33286775358505544,-0.19854173725824803,-0.5703407675882801
1705061788959933400,1.962933349609375,-0.06507621478487272,-1.093534218750149,-0.5071431741908192
1705061789010376700,2.013376708984375,-2.090943812741339,-0.02236651091314852,-0.08075198218799196
1705061789060788700,2.063788818359375,-0.19385922373151407,-0.418110991910845,0.03287598616085015
1705061789111208700,2.114208740234375,-0.19331854098355397,-1.6796137131422757,-1.039329092766717
1705061789161622500,2.16462255859375,-2.3480209237396714,-0.828147909894213,-1.4639005859285592
1705061789212068600,2.215068603515625,-2.3907817687101662,1.0043199579015374,-2.093360080102831
1705061789262484500,2.265484375,0.22153142157103864,-0.19955411090487613,-3.3483749006196852
1705061789312898600,2.315898681640625,-0.15715744133796541,-3.4933193781271576,-1.5965969917595386
1705061789363343600,2.366343505859375,0.36248920406252144,-1.6709215803816913,1.2974838429339228
1705061789413766700,2.4167666015625,0.8179062826693058,-0.7756733340304345,5.666898803979158
1705061789464189400,2.467189453125,-1.7045843421392142,-1.5833743759624659,7.499151056262851
1705061789514603500,2.517603515625,1.498417626427859,-0.5839300978058949,3.4771883275374766
1705061789565018600,2.5680185546875,2.775136329230666,-0.7678148756150156,1.481081437832117
1705061789615450600,2.61845068359375,-2.0518482122801243,-2.6675892699643966,1.1177608244467525
1705061789665879800,2.6688798828125,-1.6229969229072332,-1.869012980056554,-0.1665970314649865
1705061789716311800,2.719311767578125,0.26615740282628686,-1.117442186951637,-0.6233991712220013
1705061789766725600,2.7697255859375,-1.0247105656318365,-1.8636985070355236,-0.01878925978115294
1705061789817141500,2.8201416015625,-0.9890011735428124,-0.6840322844263166,0.1625854029371403
1705061789867586600,2.870586669921875,-5.077320799946785,-0.7298053168248385,0.32747575834840537
1705061789918002700,2.921002685546875,-1.2170784730933606,-0.570854014340043,0.41050552187580613
1705061789968415700,2.971415771484375,-2.4106866387501356,0.03299965363971423,-0.06571316554811783
1705061790018862800,3.02186279296875,1.6060726761132478,-0.496654805663228,-1.3848849168807267
1705061790069260500,3.072260498046875,3.891071911011636,-0.07669267859351821,-1.84916276281327
1705061790119691500,3.12269140625,1.466660990552604,-0.05775978625770658,-1.1715768049821258
1705061790170124500,3.17312451171875,0.7229704293034971,-0.17749359720097854,-0.465205884030275
1705061790220568800,3.22356884765625,0.27286272741751744,-0.10935036409487947,1.0176750409718602
1705061790271016000,3.274015869140625,-2.0360966625273225,2.46693722602129,2.1924996687687934
1705061790321431000,3.32443115234375,7.7189318713068955,4.862030574320256,1.822799072022736
1705061790371861000,3.374861083984375,7.433663561829924,3.6858348773658274,1.0497282486408948
1705061790422276900,3.42527685546875,2.7399741226956245,-1.3159601414754987,1.2004391807205974
1705061790472691000,3.47569091796875,-0.8721753407344222,-2.748549351078272,1.4296509641937911
1705061790523137000,3.526136962890625,1.3100504790402947,-1.9203258186645804,0.6076586177872494
1705061790573551900,3.5765517578125,0.8444852236457169,1.2573195903278886,-0.4108711403178051
1705061790623967000,3.626967041015625,-2.924374412278831,-2.433354543762654,1.656872158371657
1705061790674413800,3.677413818359375,-2.0733846290446816,-4.474096547877788,2.121599501637369
1705061790724828000,3.727827880859375,-6.28973259640336,-3.96495606238991,-1.7708859294340014
1705061790775244000,3.778244140625,-5.296004467403888,-4.851134501774609,-3.020888328616321
1705061790825687800,3.828687744140625,-0.6991872565254569,-1.0089823236893862,-1.8252213307335972
1705061790876095000,3.879094970703125,0.41552820887602865,-0.9699686293579638,4.131887038516998
1705061790926518000,3.92951806640625,0.8569423349630088,2.6128146004647017,8.831609035813807
1705061790976934000,3.979933837890625,2.8779169047474857,1.0168787760276348,2.365901740606129
1705061791027379000,4.03037890625,-0.15828242677990345,-1.401403651613742,-2.526835229884088
1705061791077807900,4.080807861328125,-2.391665565807372,-1.3852365067973733,-1.4498977795392274
1705061791128223000,4.131222900390625,0.8969098228879272,0.6420698232918978,0.9449763730511068
1705061791178648000,4.18164794921875,0.7702383764348923,1.7726180139236152,3.1526649892538785
1705061791229060900,4.232060791015625,-2.487334409622848,-1.4324445404350756,0.856061460475251
1705061791279499000,4.2824990234375,0.5202306193009019,0.2929787194575183,-0.6587839344665408
1705061791329931000,4.332930908203125,0.3146427263908088,-0.2915093227583915,-1.2997981112256645
1705061791380345000,4.383344970703125,1.065269297448173,-2.434178281235695,-1.1693433468416332
1705061791430761200,4.43376123046875,-1.0552345179069786,-1.7873245846681296,0.42442415711302306
1705061791481188000,4.48418798828125,0.5518199723178521,-0.16018541085701435,4.788842880773544
1705061791531620900,4.534620849609375,1.1559248431462794,0.6292427826836705,0.5782115374960005
1705061791582037000,4.585037109375,1.2509056316323577,1.7171758204258978,-0.08326341701964847
1705061791632452000,4.6354521484375,0.5464975351860747,1.6105262945212422,-0.08246318828635849
1705061791682898000,4.68589794921875,-0.11188686943571083,-0.6171567697010933,-0.4774822684857994
1705061791733312000,4.73631201171875,-1.6622987134650349,-1.9412422038346528,-1.9173318975456057
1705061791783742000,4.786741943359375,-0.25232355979569254,-1.0877022246610373,-0.46640097556635735
1705061791834175200,4.83717529296875,-0.06992520288573578,-0.785193149786815,0.40946467105336487
1705061791884572000,4.887572021484375,-0.5232708272470161,-0.0958708600604441,0.808787741190195
1705061791935014000,4.938013916015625,0.7043960041496903,1.3731246287211776,2.0152388756766912
1705061791985431800,4.988431884765625,0.1680579343304038,1.040187901553139,0.4135789745043963
1705061792035863000,5.038863037109375,0.5811688529316336,1.687251222283393,-0.917273907937482
1705061792086289000,5.089288818359375,-0.23570580340130254,0.6670568189017474,0.1913146355489269
1705061792136694000,5.139694091796875,0.06219020188662689,-0.6859247471094131,-0.46162261871602384
1705061792187133200,5.19013330078125,0.03513212192403153,0.08387254362762905,0.15993110730238258
1705061792237554200,5.24055419921875,0.14809099537227302,-0.3895520926309749,0.9688180710833519
1705061792287969000,5.290968994140625,-0.3164354550264776,0.3167144546309486,0.058974198982189405
1705061792338414000,5.3414140625,0.3215284307839349,-0.09698749779914505,-0.694477398334071
1705061792388829000,5.391828857421875,0.22912700953288004,-0.9161976570080965,0.9486997774884104
1705061792439245000,5.4422451171875,-2.5099039688274263,-0.27505139656821265,0.008346358380082528
1705061792489690000,5.492690185546875,0.38066999025624243,-1.37555843173936,-0.45944059850182384
1705061792540106000,5.54310595703125,0.47035512001961466,-1.1230708404883742,-0.563386454938352
1705061792590526200,5.593526123046875,-0.5834465155400336,0.7104189177010208,0.25425268296105785
1705061792640949000,5.643948974609375,-0.46332226224076,-0.6422538015566766,1.9860159960627555
1705061792691388000,5.694387939453125,-1.9085925646424293,-2.26504979506433,-4.212925445564091
1705061792741810200,5.74481005859375,-1.0772898439791052,0.6009144772892817,1.4886778843104838
1705061792792212000,5.7952119140625,-1.7202452909991144,-2.326648026973754,-0.6608658553071319
1705061792842647000,5.84564697265625,0.48514564272053534,-1.272645754275471,1.6830388652853667
1705061792893085000,5.8960849609375,-0.027009747308841904,-1.9449683847509323,2.672462136697769
1705061792943500000,5.9465,0.09968008875083177,-0.38528844383712857,0.9420237337905913
1705061792993916200,5.996916259765625,-0.029211689216352532,1.2388314552180468,1.547495253329724
1705061793044337200,6.047337158203125,-1.7342432750828563,2.8193215079158542,1.4084015476770697
1705061793094762000,6.097761962890625,-2.277522469276935,5.398047376295924,2.8817908235713836
1705061793145202000,6.148201904296875,0.7596976931981742,3.40847544131726,1.0219054450832308
1705061793195622000,6.198621826171875,-2.429657004418969,-1.5041747286498546,-4.680825573647022
1705061793246051000,6.249051025390625,-0.8464511168912052,-4.254287675783038,-4.014662634845077
1705061793296483000,6.299483154296875,0.0870289618319366,-3.4793615799233315,-1.27098264336884
1705061793346890000,6.349889892578125,-0.913252689597383,-1.1672100611399858,-1.8466732840850948
1705061793397326800,6.400326904296875,-2.482429394185543,3.353860638554394,2.0857048891745507
1705061793447742000,6.450741943359375,-0.8661668210346252,1.2571611848957835,3.0740120160385964
1705061793498165000,6.5011650390625,-1.7756784244075416,4.306164578014612,1.153868860464543
1705061793548583000,6.5515830078125,-2.278667986050248,1.9787103492245077,-0.41439898565039035
1705061793599005000,6.6020048828125,-2.3592823224663735,-0.2291754517844878,-1.0388749923236666
1705061793649432800,6.652432861328125,-1.124159366377443,-0.3112759899040684,-1.6100484478764234
1705061793699865000,6.702864990234375,-0.22555572691736742,0.5373811491314321,-1.7316472672402858
1705061793750280000,6.753280029296875,0.37665531125478446,-2.408102029084414,0.04484842836689204
1705061793800726000,6.80372607421875,0.0026406213045542244,-2.752681336316466,-1.7852701363563537
1705061793851135000,6.854135009765625,-0.24867831689482553,-0.8430300564013421,-0.2436492366864346
1705061793901555000,6.904554931640625,0.6024898003146052,-0.6321472719535232,0.23776748517146332
1705061793952002000,6.955001953125,-1.6593427862688899,2.0372277123838662,4.184535217382013
1705061794002415900,7.005415771484375,-1.2413764635257423,0.9989350499927997,3.62802361664921
1705061794052832000,7.05583203125,-2.165072294269502,-1.0929708127137272,1.7458249918051063
1705061794103263000,7.106262939453125,-1.1151766531724483,0.6091088531281799,0.7603287576433271
1705061794153693000,7.15669287109375,0.679978259795159,-0.5247398038210347,0.247625245911628
1705061794204122000,7.2071220703125,-3.3375822884485125,1.0547372359093279,-1.9068863452464342
1705061794254535000,7.257534912109375,-3.1954408856630323,-0.5512647130552679,-1.300821316793561
1705061794304967000,7.307966796875,4.6411824223056435,2.7511721007972954,-0.9682195206683128
1705061794355383000,7.358383056640625,5.866649222907424,-1.7262205660164356,-2.5635300528138876
1705061794405798000,7.4087978515625,2.100031228429824,1.5341550025023518,-3.774376499649882
1705061794456220000,7.459219970703125,1.8123809922523795,-1.310840752635151,1.687810609731823
1705061794506658000,7.509657958984375,0.5380049070529639,2.880157377150655,1.3563351142227649
1705061794557074200,7.56007421875,1.6765734686635434,9.645559274333715,0.11021393125480972
1705061794607519000,7.61051904296875,-0.6937769949797541,4.152635812035203,-0.892685702386871
1705061794657933800,7.660933837890625,-0.5143114218523726,-0.7087185435239225,-0.2000018729386851
1705061794708349000,7.711348876953125,0.655706792043522,-3.8226922022685406,-2.971316488456726
1705061794758768000,7.76176806640625,-0.5168669880867004,-3.5077784038513897,-3.0782395706057546
1705061794809192000,7.81219189453125,-3.2869787671536206,-0.03142939266528701,-4.055968750962615
1705061794859614000,7.862614013671875,2.50759364605844,3.7770600396454332,-4.362457835383713
1705061794910053000,7.91305322265625,11.859452298134565,0.6435116195980459,1.7002775848560034
1705061794960468000,7.963468017578125,7.229281975969672,-2.7643945704638955,1.8444651065163313
1705061795010915000,8.0139150390625,-7.165674303933978,-6.882464096030593,3.516297518132627
1705061795061320200,8.0643203125,2.0803877858050166,3.454844978304207,-0.5229954078391194
1705061795111752000,8.114751953125,-0.011464209556113929,7.245536945199966,-0.29658954863213
1705061795162176000,8.165176025390625,0.16222436933871356,2.861183796611428,-2.354917112994194
1705061795212656000,8.21565625,-0.09094535895753651,0.019198242440843023,2.3068729207932948
1705061795263102000,8.26610205078125,0.5318326846914365,0.4084570283807814,1.7337715659178792
1705061795313517000,8.31651708984375,-1.3132745556533336,-2.999606178873777,-0.07015031687850132
1705061795363934000,8.366933837890626,-1.9449024799078702,-3.852617969454825,-1.4820250022925436
1705061795414347300,8.41734716796875,0.8358087268456816,-5.30961622864902,-1.9550472956947982
1705061795464792000,8.4677919921875,4.434562702129781,1.725804532561451,0.17953608108032493
1705061795515206100,8.5182060546875,3.8021290144503115,-2.9810426404401658,-1.8069377782851457
1705061795565622000,8.5686220703125,5.043585119083524,0.9269177884649484,-0.19437557575581593
1705061795616050000,8.6190498046875,4.763245790441334,2.237655153790861,1.8500775395706295
1705061795666497300,8.669497314453125,0.5929371417345479,3.270647810077667,0.9145622378259897
1705061795716912000,8.719912109375,1.9149968787267804,2.050387345947325,-1.0810422553151846
1705061795767326200,8.770326171875,0.5537399805950001,2.677139480859041,-2.2541931777462363
1705061795817758200,8.82075830078125,-2.94817322101742,0.4406897938678041,-1.5099001205593348
1705061795868173000,8.871173095703124,-0.24718848019586875,-5.10856758660376,-2.213182975835353
1705061795918589200,8.921589111328124,-3.3476191138163207,-3.188521900054812,0.6998157636873423
1705061795969017000,8.97201708984375,-0.039408758063614366,1.2226372031990438,-0.9723123429398983
1705061796019449300,9.022449462890625,7.514309462428092,-2.9347984833985565,-1.2742669257365167
1705061796069863200,9.07286328125,2.8131860739007593,-4.589194168654084,0.8853175117064267
1705061796120310000,9.12331005859375,1.034764342134446,-5.47662757653594,0.6171371882177888
1705061796170725000,9.17372509765625,2.2519513901688155,0.22414657250549644,-1.7034091608799993
1705061796221139200,9.22413916015625,3.2680116163551807,4.903150227954983,-1.9626921113595366
1705061796271569000,9.27456884765625,0.7586332788370549,5.008217453104257,-0.6621914778877049
1705061796322001200,9.325001220703125,-0.4077090960903093,2.0209965624205766,-0.10845219141244887
1705061796372415000,9.3754150390625,-3.333860637576878,0.9414001950647681,1.5296831177853047
1705061796422856200,9.425856201171875,-1.1395990006368606,-3.357583166208863,0.7870019527744502
1705061796473259300,9.47625927734375,-0.47155598370935764,-0.7493454452056437,0.5201180623045191
1705061796523705000,9.526705078125,2.9728908981665967,-3.870826995362341,0.34807288496885447
1705061796574112300,9.5771123046875,3.3520410219117998,-3.8311291912242766,-2.835655972123146
1705061796624540200,9.6275400390625,5.140301864516735,-2.981805149245262,-4.004681631317735
1705061796674970000,9.67797021484375,3.557924244506657,1.549975379707664,-0.285202240237128
1705061796725388000,9.728387939453125,-0.45947665619589384,0.4422427954634651,-0.028552250343374906
1705061796775811000,9.77881103515625,-1.5363004900984465,0.9481075106836855,-0.9741006145961582
1705061796826242300,9.8292421875,-1.349368343950063,1.7212503763884306,-1.1029705209415406
1705061796876676000,9.879676025390625,-3.3362206447064873,3.000940057826042,-1.062550101617351
1705061796927103000,9.93010302734375,1.5531801670983434,1.9758318711787461,-0.4714595375975594
1705061796977517000,9.98051708984375,-1.0028588723730296,-4.026782696227729,-2.1035962274350224
1705061797027933200,10.03093310546875,7.021462232354283,-2.8712258826762436,-1.0837982029598205
1705061797078347300,10.08134716796875,4.014204077422619,-4.055741956469417,0.3993495197523385
1705061797128794000,10.131794189453124,0.6944071095768362,-4.4166763323053715,-0.2676568658701144
1705061797179193000,10.182193115234375,3.0832784415557977,-0.35146650946252045,0.1954282996791415
1705061797229637000,10.23263720703125,0.7614470941487699,2.1548925532996654,0.8560282157927751
1705061797280053200,10.28305322265625,0.8243729944653808,4.958339615735412,-0.6650283087488263
1705061797330485000,10.333485107421875,0.6327473567385226,3.6575364191204307,0.782919286570698
1705061797380900000,10.383900146484375,0.12330155902798287,0.9275617854569107,-0.5680494783133268
1705061797431345200,10.43434521484375,0.27089756482439115,-1.9287083009541033,-1.7045445946507154
1705061797481758200,10.48475830078125,-0.618416779699549,-0.7022089424341916,-1.1838314525298774
1705061797532187100,10.535187255859375,-4.4850802987068885,1.4928063624173402,-1.5498022150978445
1705061797582620200,10.5856201171875,4.172593142914772,-5.410975831452012,3.626986382555961
1705061797633036000,10.6360361328125,3.2879043575659392,-0.8148802128463983,-0.9600436668667942
1705061797683451100,10.686451171875,4.136346356013417,-2.234133263275027,-3.029840281356871
1705061797733866200,10.7368662109375,1.9371751005262134,-1.4748568642288447,-0.7890745212648064
1705061797784309200,10.787309326171876,-1.388323366896808,4.0498961530506605,0.8281474715027958
1705061797834726100,10.83772607421875,-0.04892645036156754,2.467671093253791,-0.7686281647592782
1705061797885142000,10.88814208984375,-0.10752649140227585,4.777515138812363,-0.9243640123289077
1705061797935589000,10.938589111328126,-3.0178657659247516,0.29948039296912027,0.19442253843639046
1705061797985985000,10.988985107421875,0.9266127411037683,-3.4665596737563606,-0.3951585343359038
1705061798036431000,11.03943115234375,-1.3924465843066571,-2.5529151352971793,0.2546271240303293
1705061798086846200,11.08984619140625,-1.672617862905562,0.5428857378970832,-0.8609191296394914
1705061798137261000,11.140260986328125,9.27642610221207,-3.297269567282498,-1.5882196240365505
1705061798187692300,11.1906923828125,1.7625658448562025,-7.602911290466785,-0.11306876356350257
1705061798238133200,11.24113330078125,-0.3122069140786305,-2.054249135942012,1.4692922158390282
1705061798288552000,11.291552001953125,3.738107500916719,0.18457241301340982,-1.299972591009736
1705061798338968000,11.341968017578125,2.6155209368139505,4.595319665797055,-1.8591802989587187
1705061798389400000,11.392400146484375,1.0747565261092036,5.989241583353281,-2.2571159333251414
1705061798439829000,11.4428291015625,-1.3682691515140235,1.861077218621224,-0.7779848989084363
1705061798490243000,11.4932431640625,-1.6171593027949331,0.7819530718870461,1.138142445152998
1705061798540658200,11.543658203125,-1.7191515044130383,-4.786442833894491,0.602582958490774
1705061798591105300,11.594105224609375,-2.093189107450098,1.1527166947547345,-0.5038868027433753
1705061798641519000,11.64451904296875,-0.7893143944352865,-8.21199595900178,-1.935751935855299
1705061798691937300,11.694937255859376,4.574425054067373,-1.2907422597192226,0.19358060771953314
1705061798742364200,11.7453642578125,4.882774087141454,-4.588541549964249,-1.7809645481169223
1705061798792778000,11.795778076171874,1.553060778502375,-2.0929064911164343,-1.5604146483965218
1705061798843209000,11.846208984375,0.38486645556539295,3.196519036288559,0.12927393883531912
1705061798893624000,11.8966240234375,-0.007692487877255189,4.887781686170399,-0.48494233870077874
1705061798944070100,11.947070068359375,0.014667125791759461,4.128926142884791,-2.5610601555690167
1705061798994477000,11.99747705078125,-0.9205549754347652,3.9269966263517735,-1.9632475532852112
1705061799044900000,12.047900146484375,-1.42178271503672,2.4487642943404615,0.11570420836731792
1705061799095346200,12.09834619140625,1.7756472986169158,-8.703676483383774,-0.3345104062255472
1705061799145762300,12.14876220703125,-2.2581892616450787,-4.531498058749735,-1.3717718989379704
1705061799196177000,12.199177001953124,7.184822656518221,-2.211636477045715,-1.519389395046979
1705061799246622200,12.249622314453125,4.389800892600417,0.5840918277062476,1.3724388384141026
1705061799297040100,12.3000400390625,3.3867601608544584,-5.052722949784994,-1.2615410074152051
1705061799347452200,12.3504521484375,2.1109017281427978,-2.8636691836863752,0.8807258730672299
1705061799397866000,12.400865966796875,2.747231838738918,3.703571609586477,-1.576302245619148
1705061799448307000,12.451306884765625,2.158436071125418,6.081269294187426,-0.5062903567537665
1705061799498741200,12.5017412109375,-0.24392478395849465,3.926816301348805,0.0753500226797536
1705061799549156000,12.552156005859375,-0.840255038730055,1.8667163935519753,0.023216216227796394
1705061799599571200,12.6025712890625,-1.4900124939151107,-3.428307976773381,0.6413881977032869
1705061799650003200,12.653003173828125,-2.3344394115023315,-3.4726132747069,1.2915497767098247
1705061799700418300,12.703418212890625,0.39814492973554877,-2.53737795894742,1.3069950369924306
1705061799750864100,12.753864013671874,3.635855333188176,1.0982532831612974,-2.159147580395639
1705061799801279000,12.804279052734374,7.809073330003023,-3.639355158002674,-0.7211213673707098
1705061799851693000,12.854693115234374,4.236682168726623,-2.690134863771498,-1.1385038258112967
1705061799902122000,12.9051220703125,0.952885538740456,0.5804577820528298,-1.4719341086499391
1705061799952554200,12.95555419921875,0.9488859477102756,3.0715555627971884,-1.7443329996816812
1705061800002969000,13.005968994140625,-0.4596587712971493,3.7800460697188973,-0.16031188678089528
1705061800053384200,13.05638427734375,0.5071363425912335,3.3009882955446836,-1.4774348980233072
1705061800103830000,13.106830078125,-0.3737405563192442,-0.4889290702493861,-0.9575696779686957
1705061800154246100,13.15724609375,-0.3041843694089912,-3.5610695567950605,-0.7464702550955117
1705061800204680000,13.207679931640625,-0.7362102884963154,-3.1376231952056286,-0.5551304120400921
1705061800255106000,13.25810595703125,4.5427994972258805,-3.5052988619953394,-1.3718364886067806
1705061800305522000,13.30852197265625,6.092040279048681,0.37115222032647577,-0.07200219182288274
1705061800355953000,13.358952880859375,3.5643624608606097,-2.603869369725883,-1.444732359600067
1705061800406367700,13.40936767578125,3.056877049103379,-4.047329517433047,0.9467655945554375
1705061800456812800,13.459812744140624,2.160071124981344,-0.2719388905708678,0.19262325219577178
1705061800507229000,13.51022900390625,3.4247876936927435,3.9022646284162996,-1.6618983159705996
1705061800557643800,13.560643798828124,2.201086587589234,5.07264871648252,-1.350220284604281
1705061800608089000,13.611089111328125,-0.9134950469858943,1.7207742833092807,-0.24673752155797554
1705061800658503700,13.661503662109375,0.6663647449843585,1.453228239136189,-0.7285222912769764
1705061800708918800,13.711918701171875,0.05064375284058042,-2.0650860256463286,1.594173564004898
1705061800759363800,13.76236376953125,-2.393580897909403,-1.7071671982392669,-0.8434748044941573
1705061800809763800,13.812763916015625,-1.3241824647672473,2.1469418865561485,-1.2837108997777105
1705061800860194800,13.86319482421875,-0.08589100731057114,-2.858576244461536,0.44216512711737305
1705061800910609000,13.91360888671875,8.043707430785894,-2.5277239954173565,0.9617187604721635
1705061800961052000,13.964052001953124,3.958693202602863,-2.286305349060893,-2.1575435061998665
1705061801011484000,14.01448388671875,2.0910319294162094,-2.1736846397921443,-0.9688679015744477
1705061801061899000,14.06489892578125,-0.43673221534844486,4.207652765858173,0.07658096641392913
1705061801112314000,14.115314208984374,1.0153199292130768,2.858509316705167,-0.9497719367645681
1705061801162745900,14.165745849609374,-0.029479190179274882,1.986838272231072,-2.660130186130106
1705061801213173800,14.216173828125,-0.7542059639140963,1.753450518247485,-1.9887407448515295
1705061801263588900,14.2665888671875,-0.4472041807305068,-0.49662393560092893,-0.6561140576701611
1705061801314005000,14.3170048828125,-1.4744564667344093,-4.542219943772256,-0.9853803526971489
1705061801364450800,14.367450927734374,-0.47346594551652665,-0.7610445046972483,-0.9850915258184075
1705061801414854700,14.417854736328126,10.711088903218506,-1.4773919356644152,-0.6205744691900908
1705061801465279000,14.468279052734376,1.746724570993334,-4.495686156134307,0.6376868589673191
1705061801515725800,14.518725830078125,3.985008085815608,-2.8347534703254698,2.454976446853578
1705061801566127900,14.5691279296875,1.8928657109394669,0.010948821079614571,-0.7633626454465091
1705061801616573000,14.619572998046875,2.5087542142704127,4.29787751892358,-2.2698308918610213
1705061801666987000,14.669987060546875,1.7246103543408213,5.8923003815144295,0.18282379751410335
1705061801717398000,14.72039794921875,-1.1232334106389432,0.6293145327456295,-0.22826973511641843
1705061801767830800,14.770830810546874,1.0804467005748302,0.6506174330152571,-0.11634347438523546
1705061801818246000,14.821245849609374,-1.2325064899802207,-4.685520745725929,-1.151924229202792
1705061801868679000,14.871678955078124,-1.6122681697525083,0.4343812317755073,2.202320805559307
1705061801919093000,14.922093017578124,0.27367155958237127,-1.9212623688623307,-1.452887901265919
1705061801969539800,14.972539794921875,6.248246155282855,-0.6220645616173743,3.5548683640673753
1705061802019946800,15.02294677734375,6.933907867541909,-3.007659429208934,-2.3360627749204634
1705061802070368800,15.07336865234375,3.6377950690791008,-3.7022254556745287,-2.271906675221771
1705061802120798700,15.123798828125,0.8855461328305304,1.5076837596841155,-0.7990770059715956
1705061802171230000,15.17422998046875,1.1331273204047232,5.5142205173492425,-1.173416514564678
1705061802221644800,15.224644775390624,-0.44368817196618765,3.975694898547232,-0.12808419932778925
1705061802272091000,15.2750908203125,-0.930934038368985,1.982529322990775,-0.028416949508932882
1705061802322509800,15.325509765625,-1.1994861177794636,-2.860094832330942,-1.2510961857683955
1705061802372919800,15.375919921875,1.4647916895493864,-4.049276267586648,-1.8003487552836537
1705061802423366000,15.426365966796874,-2.1089777743428946,-2.0867865469314157,-0.6398023898165672
1705061802473781800,15.47678173828125,8.013306447303295,-1.99492235609591,-1.0829896630559115
1705061802524196900,15.52719677734375,1.4184874728836119,-0.19661279675597323,1.4688281054586172
1705061802574611000,15.57761083984375,2.374212765094638,-1.8576780777022242,0.5257123386476189
1705061802625040000,15.628039794921875,3.391246074096858,-1.7604627350971103,0.4323401909345761
1705061802675485000,15.67848486328125,1.897585725198686,3.8340480012804266,-2.7152725198984147
1705061802725900800,15.72890087890625,1.9372452431529759,5.910747892352938,-0.1993217269211076
1705061802776313900,15.77931396484375,-0.9405549033470452,2.476843703007698,0.37885209064669906
1705061802826747000,15.829746826171874,0.5146421516440809,1.2095168056674301,0.0004905822223072391
1705061802877163000,15.8801630859375,-0.6348448404744267,-3.3021731214150782,-0.12295227979943156
1705061802927586800,15.9305869140625,-1.9108439968310296,-2.1818848973825573,1.080635501145199
1705061802978023700,15.981023681640625,-2.9042811800599098,0.41320462476667014,-0.0863855493618641
1705061803028437800,16.031437744140625,7.701338346949219,-7.555227748271823,1.2471240672670305
1705061803078852900,16.081852783203125,3.715616267645359,-0.01917369937134208,-0.7251471888206898
1705061803129298000,16.1322978515625,4.439385592241585,-1.682115320699662,-1.1980709902845323
1705061803179714000,16.182714111328124,1.7786875430956481,-1.7047519537910818,-2.518748077279329
1705061803230128600,16.233128662109376,0.8856121107388287,3.989078111733496,-1.063189130173251
1705061803280574000,16.283573974609375,0.19899921696847303,3.6397333436653017,1.2281390885509549
1705061803330989800,16.33398974609375,0.2602236653957516,2.410924100767821,-2.8732871991202233
1705061803381418000,16.38441796875,0.08106698468760587,1.5593078561984002,-1.5031149904638528
1705061803431833900,16.434833740234374,-1.455486101065576,-3.4439857306376096,0.021105162907554768
1705061803482248000,16.485248046875,-0.45370468519832935,-4.01539416399002,-1.5518601705409585
1705061803532693800,16.53569384765625,-2.4432944846272466,-1.0698289335139095,-1.2606670010596512
1705061803583108900,16.58610888671875,7.892504477405548,1.922177437880635,-2.0978274347752333
1705061803633539800,16.636539794921877,4.421393423955142,-7.234277300038934,0.9878175167161971
1705061803683956000,16.6869560546875,0.634137934314087,-3.2743393580719826,1.0435052094075827
1705061803734371000,16.73737109375,3.985083196878433,-0.7064264139987528,0.2325867945979349
1705061803784815900,16.78781591796875,3.1132477556228637,2.971254529136419,-1.8411407843992114
1705061803835231700,16.838231689453124,2.1280647521287204,6.633034577175975,-1.679376397255063
1705061803885646800,16.888646728515624,-0.4879838983537629,3.237094207783043,0.4955737689608708
1705061803936091000,16.9390908203125,0.188716782809142,0.754403751508519,1.4481199562117457
1705061803986507000,16.989507080078123,-0.35830183537527915,-2.2667072068825362,1.731634115497768
1705061804036921900,17.039921875,-1.466534441563487,-3.6393189176455136,-0.8548818953018635
1705061804087336000,17.0903359375,-2.029622351946682,0.07979594183848239,-1.2155735484231263
1705061804137775900,17.14077587890625,1.0524003173943608,-0.3688008714273572,-4.639167867612838
1705061804188212000,17.1912119140625,10.621731872898339,-2.716323197995126,5.553430245709419
1705061804238625800,17.241625732421873,3.0207492124065753,-2.343188389016688,-2.4115623986713586
1705061804289037000,17.292037109375,2.0659856048345566,-2.7841744989499446,-2.2361251677446066
1705061804339474000,17.342473876953125,0.5580218956978992,3.171878808289766,-1.2132837569855153
1705061804389888800,17.392888671875,0.8580583333808928,4.38713693408817,-0.47720732400193805
1705061804440332800,17.443332763671876,0.499204526678659,2.6468898885458705,-2.2543732104882594
1705061804490740700,17.49374072265625,-2.050805279098451,1.1402782150726765,0.7565472663432359
1705061804541163000,17.5441630859375,0.696874668734148,-1.9608684030637145,0.5859251806132495
1705061804591577900,17.594577880859376,-1.9499572790794073,-2.709665493671596,-0.9093454530257731
1705061804642023700,17.645023681640627,3.4493832057669755,-0.6593629033982753,-1.5431477256447075
1705061804692438800,17.695438720703127,8.324865966856478,-4.082942682605982,1.3565300522729753
1705061804742855000,17.74585498046875,1.9523715006142854,-3.3714766670048233,0.36601007166504856
1705061804793300000,17.796300048828126,3.6927038863524793,-2.5635014112412926,2.1623376086086035
1705061804843715800,17.8467158203125,1.698250316812098,2.1761429927296936,-2.053892139197886
1705061804894143700,17.897143798828125,2.5384794904485344,5.920867135307192,-0.8780991047602147
1705061804944559900,17.947559814453125,0.8035516671676188,3.3390953233599663,0.021285366896225604
1705061804994998000,17.997998046875,-0.7325299925483763,1.0446350171551109,-0.2080637084390968
1705061805045420000,18.048419921875,-0.24863166474150492,-1.2606747459746896,1.0939693952970206
1705061805095827700,18.09882763671875,-0.3291325491121039,-2.1306411784879864,-0.29722351742042225
1705061805146249700,18.149249755859376,0.6250280145328492,-2.2530467841900883,1.3637602957874535
1705061805196753400,18.19975341796875,3.005627046598494,-1.7151166959390043,-0.14009956736010498
1705061805247148500,18.2501484375,7.0755860367298125,-3.8187946103081103,-1.4971402999684214
1705061805297599500,18.300599609375,3.5545381091997026,-1.968058899089694,-1.3209360301919282
1705061805348015600,18.351015625,1.7901956100597975,-0.23714279566816984,-0.3626037338202819
1705061805398437400,18.401437255859374,0.5569055684864521,2.635849731354415,-0.8595129161033779
1705061805448875500,18.45187548828125,-0.33488347732163964,3.017591040636599,-0.43354602306038137
1705061805499290400,18.502290283203124,0.28475312649644907,2.9382746350765228,-1.288121263565868
1705061805549705500,18.55270556640625,-0.5536061250822618,3.3201603212654587,-2.336873214520514
1705061805600120600,18.60312060546875,-0.4841393152222037,1.4462341424651444,-0.6872942818969487
1705061805650541600,18.65354150390625,0.6515015954386443,-6.702317956760525,0.6015520810730755
1705061805700988400,18.703988525390624,-0.960955082623288,-1.181020632892847,-1.5346645594596862
1705061805751409400,18.754409423828125,6.044620356225967,-0.608261515583843,-0.09666784652387722
1705061805801824500,18.804824462890625,3.3620559277087447,-2.8924726688444613,1.5077913117118178
1705061805852257500,18.855257568359374,1.8017977850481868,-3.02116100807786,-0.5098328516662121
1705061805902672600,18.905672607421874,2.643090788523853,-2.0784658778317273,0.7166803892485797
1705061805953116400,18.956116455078124,3.1680621726110574,4.17943117224127,-1.6311127170845865
1705061806003516400,19.006516357421877,2.4758959007635712,6.071978318750858,-1.329934014031291
1705061806053947400,19.056947509765624,0.26601180207682773,2.6925173749938605,0.039486663871724156
1705061806104361500,19.107361572265624,0.267320893647708,-0.009722606036195066,0.1062793682848569
1705061806154808600,19.15780859375,-0.7395015851266682,-4.93730442649126,0.4924308312926441
1705061806205223700,19.2082236328125,-2.332402060455829,0.5268755006754771,0.5585197622174397
1705061806255637500,19.258637451171875,-0.8359201513309031,-0.16516972034191713,-0.6761036103188991
1705061806306079500,19.30907958984375,5.267350035327673,-6.874857128158212,1.526993440309912
1705061806356498400,19.35949853515625,3.1933272545099256,-0.8091055749677121,-1.3977983205981552
1705061806406927600,19.409927734375,3.8696456766232847,-3.4672684065476056,-3.4876015850022433
1705061806457342500,19.460342529296874,1.1514146722454577,-0.2576914617707021,-0.9833539614360779
1705061806507757300,19.51075732421875,1.0027578962165862,4.331696494156122,-0.07869129593167454
1705061806558202600,19.56120263671875,0.2869927769157104,2.869505634754896,0.2699065810256637
1705061806608622600,19.61162255859375,0.716020244839415,3.6606630267083644,-2.132595527426153
1705061806659032600,19.662032470703124,-1.4704263344354926,1.336483874066174,-0.2926181059841998
1705061806709478400,19.712478515625,-0.1670555158222094,-4.034091265675425,-0.32952596887648106
1705061806759879700,19.762879638671876,1.1624835440747439,-5.112414325159788,-1.9526764749102292
1705061806810325500,19.813325439453124,2.4212694075629115,-5.373914805558323,-2.632122819785774
1705061806860739600,19.863739501953123,2.5510031641960143,4.734556871573627,1.1522571874842047
1705061806911168500,19.91416845703125,2.723162104104459,-3.3854487859949467,0.1990478236168623
1705061806961571300,19.9645712890625,2.8547020333766935,-4.801585457968711,1.6654912258960306
1705061807012016600,20.0150166015625,2.5185174833938477,-0.052367868652869944,-1.186515138655901
1705061807062431500,20.065431396484374,2.600694831342995,5.110736747336388,-1.0708886716999113
1705061807112846600,20.1158466796875,1.508270619661361,4.486636003716289,-1.7782104271031915
1705061807163281400,20.166281494140627,1.0792323563490063,2.6485271343588828,-0.2740177244052291
1705061807213704700,20.21670458984375,-0.27844536812175064,1.0786335867382586,-0.9213060129977763
1705061807264136400,20.267136474609377,-1.8217293969646096,-0.8321925821751356,0.46402416343241926
1705061807314548500,20.317548583984376,-2.132852863188088,-2.2953490717381237,1.6590103394441305
1705061807364981500,20.3679814453125,5.2854953483492135,-9.756012284174561,5.958401623931527
1705061807415397400,20.4183974609375,4.739081655521691,-0.5526356360822916,-1.646186659836769
1705061807465812500,20.4688125,3.245722627657652,-6.157421975019574,-1.016149658035487
1705061807516240600,20.51924072265625,2.207101463964581,-0.2772062913134694,-0.3113579690990969
1705061807566673400,20.56967333984375,2.4723385005429384,1.6986781868353484,-1.7820635954000055
1705061807617088500,20.620088623046875,0.013423279193526831,2.754447761467099,-0.710050230519101
1705061807667534600,20.67053466796875,-0.0023652261565992373,4.655682656823099,0.28192897245381027
1705061807717948400,20.720948486328126,1.1120571329124271,3.8128041377216575,-2.191000662382692
1705061807768364500,20.771364501953126,-0.5399447525417432,0.4739993217408657,-0.47583676630109545
1705061807818792700,20.821792724609374,0.7427117793448269,-4.139019082354009,-0.31773302055634556
1705061807869224400,20.872224365234374,-1.6749382686771452,-2.1312235084205864,-1.1238752156738192
1705061807919628300,20.922628173828127,6.8137062016248695,-7.210442250943183,-0.04197980956144165
1705061807970068500,20.973068359375,3.0871850936055183,3.0241531756311653,1.1602900526184587
1705061808020482600,21.023482666015624,2.9719331590503453,-4.03486575717926,0.37144053574856367
1705061808070929400,21.073929443359376,2.1468064236082136,-2.5571988039657474,1.2472644986510275
1705061808121323500,21.124323486328127,2.4301029946207997,5.617668616864085,-0.8620460147775709
1705061808171758300,21.17475830078125,3.577335047419369,4.3481762120530005,-1.1450612115655094
1705061808222191600,21.225191650390624,1.7142668011114,3.24315190038681,-0.017787791121029295
1705061808272605400,21.27560546875,0.24312355057820675,1.0184016747459768,-0.018825779841170877
1705061808323050500,21.326050537109374,1.2025231473878026,-2.3348512071736156,1.105469132824242
1705061808373465600,21.376465576171874,-1.676203174046427,-1.8914331939183175,1.9106972818367183
1705061808423880700,21.426880615234374,-2.3852735266827048,1.7738215444944798,-0.5025052487244829
1705061808474296600,21.477296630859374,5.057048996290564,-9.8057714635998,2.70275761397928
1705061808524742700,21.52774267578125,5.8452305873036385,0.1628803307631053,-2.316754847860336
1705061808575157500,21.578157470703125,3.64147054272145,-0.8884227111801505,-3.3467136894091962
1705061808625572400,21.628572265625,3.038125002360344,-3.2716070104986428,-1.9117939910322426
1705061808676021500,21.679021484375,0.7962641405079514,4.424290898962319,-0.7249635028168558
1705061808726416600,21.729416748046877,-0.22084884613435715,2.328034951287508,1.1292254175953567
1705061808776861400,21.779861328125,0.29735883423788473,3.237546043203771,-1.522495690499246
1705061808827273700,21.830273681640627,-1.1826428272671996,3.911708748587966,-1.5034654113367198
1705061808877708500,21.88070849609375,-0.9625392830748111,-0.38184425820000467,0.36510987142231316
1705061808928123400,21.931123291015624,-0.34812406716682015,-4.996880651053786,0.486523470412381
1705061808978538500,21.98153857421875,1.9560848220489917,-3.942484410601854,-0.8802383087459951
1705061809028986400,22.031986328125,6.324001945751905,-2.3563480225801468,0.5945090672263875
1705061809079399700,22.082399658203126,3.6587487175196407,-0.5096604907739907,-2.1382506305783986
1705061809129814300,22.132814208984374,3.5383392540708183,-4.0220112440422175,-0.8845385632231831
1705061809180259600,22.183259521484374,3.355355845548212,0.3310784590154886,-0.13983547306382096
1705061809230675500,22.233675537109374,3.0175951322898267,5.779407577306032,-1.527325887134671
1705061809281089500,22.284089599609374,1.206431553003192,5.320566077208519,-1.0007492598079144
1705061809331527400,22.33452734375,-0.5573226613873615,1.960438194952905,1.3998850637443363
1705061809381949400,22.384949462890624,0.46253410753775387,0.8360572217140346,1.7035836406640708
1705061809432379400,22.43537939453125,-1.0733396450486032,-3.4403903364941475,1.0274464934017509
1705061809482793500,22.48579345703125,-0.6056616718163713,-1.680654162105918,-0.3804042154595256
1705061809533208600,22.53620849609375,-0.6835110370311885,-4.9302492472827435,-0.22719673559004439
1705061809583653400,22.5866533203125,7.508003640282154,0.36039592157769945,2.273683621766418
1705061809634069500,22.637069580078126,7.2598010328739875,-5.055273218789696,-2.555524733273685
1705061809684485400,22.6874853515625,2.819272115816176,-1.4972291472956538,-1.3543636680193245
1705061809734900500,22.737900390625,1.09538591103144,2.327050031903386,-1.0883872112505137
1705061809785344500,22.788344482421873,1.1589097772412,4.113856291785836,-0.7034142265707254
1705061809835777500,22.838777587890625,0.17571365498164668,3.8257749707147477,-0.05495803127654362
1705061809886192600,22.889192626953125,-0.03560444072707323,1.19181594847776,-0.23111042016874997
1705061809936612600,22.939612548828126,-1.361952369582653,-0.466806341496855,-1.0944366474825888
1705061809987021600,22.990021484375,0.7491003113381565,-3.4471620225861668,-2.0538111829161645
1705061810037468400,23.040468505859376,-3.3448978721588847,-2.492989658905566,-0.46859008310846983
1705061810087883500,23.090883544921876,5.061964240860939,-2.7000626758068798,-0.4498241539705544
1705061810138298600,23.141298583984376,4.482238937801123,0.44363362876735624,0.30282805942920965
1705061810188764400,23.191764404296876,2.608807410649955,-4.811703239618241,0.3180750754596665
1705061810239203300,23.242203369140626,1.5179654997237026,-2.365978897495568,0.38938075465206057
1705061810289623300,23.292623291015627,3.9343303302407264,4.783512333400547,-0.2427194632893428
1705061810340055300,23.34305517578125,3.5295153116241096,6.744989223751426,-0.6872774038273841
1705061810390454300,23.393454345703127,1.256029112125933,3.0567364715889096,-0.1424907002803404
1705061810440886300,23.44388623046875,1.0126797169025987,0.40272334356699135,1.0235280778490006
1705061810491300400,23.49430029296875,-0.7833362698737532,-2.5772715779185296,2.2162957010284066
1705061810541730000,23.54472998046875,-1.2993218720160424,-3.4856504509344695,1.9004909451209007
1705061810592160300,23.59516015625,-2.6531471953749657,0.6521823442444205,-1.0572130514383316
1705061810642590200,23.645590087890625,3.700882808893919,-3.6576708591550586,0.36533878480736165
1705061810693022200,23.696022216796877,5.129633755508065,-0.3390228056160733,-0.24747116959476842
1705061810743436300,23.746436279296876,6.195113700032234,-3.195478587324917,-1.7759660091772675
1705061810793852400,23.796852294921877,1.5597747430577873,-2.0421930797062813,-2.026639098352194
1705061810844284400,23.847284423828125,0.42562655517272646,3.534200839091837,-0.5494231037765741
1705061810894713000,23.897713134765624,0.6794229639999568,3.8102655591547485,0.8220954779874533
1705061810945141200,23.948141357421875,0.9274461962532251,3.5684044297277926,-0.9978594566505402
1705061810995557400,23.998557373046875,0.15622711995160207,1.152453148447722,-2.0308178453415633
1705061811045971200,24.04897119140625,-0.34044133064448834,-1.8398501600667834,-1.255556380047649
1705061811096418000,24.09941796875,-1.8287296311154961,-4.941675481182337,-0.19736872968981042
1705061811146842400,24.14984228515625,2.8384505712777375,-1.7715759575247763,-1.0462312003053724
1705061811197244200,24.200244140625,5.601335906222462,-0.8244014899075031,-0.9639870707303285
1705061811247679200,24.25067919921875,5.796968952959776,-2.117285876221955,0.9752185127101838
1705061811298108400,24.3011083984375,1.8620796736620366,-4.41098951884061,0.16893124656621367
1705061811348509200,24.35150927734375,3.808901577325165,-0.7737719573885202,1.1047875072356312
1705061811398954200,24.401954345703125,2.6726521063119173,3.657484104411304,-0.7620385572358965
1705061811449380000,24.452380126953123,2.4879110404670235,5.830795234715938,-1.2864692585751414
1705061811499785200,24.50278515625,-0.11027546131685376,3.7159687343448398,0.005137401704362127
1705061811550231300,24.553231201171876,-0.22624659525835886,1.1529947810437529,2.1527172550871967
1705061811600646100,24.603646240234376,1.3152600303821265,-2.6027500103071333,0.6472126660730689
1705061811651060200,24.654060302734376,-1.1568293907705693,-2.4260541576214134,-1.471987738533318
1705061811701489200,24.7044892578125,-2.1555082009799778,-7.481772635960579,-1.4530702720955013
1705061811751904300,24.754904296875,4.913720721808075,-0.08581219732016325,1.6251197602801024
1705061811802349300,24.805349365234374,7.3324600263714785,-4.324189187265932,-1.095937699695304
1705061811852765400,24.855765380859374,2.5796947134122252,-2.3744109180152413,-1.7480151953257619
1705061811903197200,24.906197265625,1.9118711479216812,2.0889168369583784,-1.9354735573053359
1705061811953612300,24.9566123046875,0.9432642353709787,3.3972029366746543,-0.35410803694725035
1705061812004026000,25.007026123046874,0.980732526891306,3.8829438418745994,-0.3014164207993075
1705061812054473200,25.05747314453125,-0.20498086692765355,3.6953941483497617,-1.5580077333852649
1705061812104887300,25.10788720703125,-0.01611622177166282,-0.4688678406039253,-0.9691138391595333
1705061812155303200,25.15830322265625,0.9195456522617489,-4.442773773375153,-1.1092788273055105
1705061812205747500,25.20874755859375,-0.9044406567841767,-3.703112467642128,-1.092966574930027
1705061812256163300,25.259163330078124,4.664207031801343,-1.654757358174771,0.18805187089331446
1705061812306577200,25.3095771484375,4.384651254752278,1.008192415420711,-0.2967464744932018
1705061812357006300,25.36000634765625,3.3213173823460935,-1.9054311780020594,-1.4538767661727965
1705061812407438300,25.410438232421875,3.026911826689541,-4.304445791397988,1.2709534172743557
1705061812457867300,25.4608671875,2.8684888589277864,1.7683555341735482,-1.0655896154437214
1705061812508282000,25.5112822265625,2.9804414596766233,5.3535675985783335,-1.1100661052256822
1705061812558697200,25.561697265625,1.0243323799692095,4.687159452843666,-1.1707754985366017
1705061812609142300,25.612142333984377,-0.5672027983561158,2.4887898691281674,0.31387393397539853
1705061812659567400,25.6625673828125,0.06633032019892707,-3.211296041920781,1.439880974046141
1705061812709962200,25.712962158203126,-2.6200252624958753,-1.8722142603158949,0.06522903072640765
1705061812760388000,25.76338818359375,0.31163207333274184,-3.6109932791322468,-0.0037967097042317616
1705061812810819000,25.813819091796876,2.4295550053492185,-1.860943070847541,0.11412890360830351
1705061812861234200,25.864234130859376,6.562045562717318,0.44664406262971457,1.368351130709052
1705061812911680300,25.91468017578125,5.261121370071172,-3.6268966584458946,-0.7056854594383388
1705061812962109400,25.965109375,2.3632683233626186,-3.423768579778075,-1.4338926934167742
1705061813012511200,26.01551123046875,0.7943531923200935,3.2828722086176274,-1.7589805337153375
1705061813062955300,26.065955322265626,-0.3395411304017529,5.169813205683231,0.31562377331741154
1705061813113370000,26.1163701171875,1.3661873768039048,3.591967968405783,-1.581291870599985
1705061813163785200,26.16678515625,0.3668277447234839,0.26793012985354286,-1.6547453754760324
1705061813214213000,26.217213134765625,0.4204183190051466,-3.51410000808835,-0.18702742321640253
1705061813264645400,26.267645263671874,-1.4735978040784596,-3.367584628002345,0.16230936247473582
1705061813315075000,26.318074951171877,1.0763867576595396,0.16140890650367362,-1.2542356528379022
1705061813365490200,26.368490234375,7.519183205944299,-2.5870643653973935,0.015666812345106154
1705061813415922200,26.418922119140625,3.7492780064895745,-1.6049180992506444,-0.8561439511269331
1705061813466338000,26.469338134765625,4.782806230957806,-3.82962141700983,0.5588635706864297
1705061813516753200,26.519753173828125,2.905170530115068,0.9155062406778335,0.2099275660822168
1705061813567197400,26.570197509765624,3.0432126808881756,5.582333099588752,-0.8239169943261891
1705061813617611300,26.620611328125,1.500104410471022,5.727706616163253,-0.8999691373933106
1705061813668041200,26.671041259765627,0.5228695895023644,1.45935315175727,0.17271012578411027
1705061813718473200,26.72147314453125,1.567449077077955,-1.720466970925778,1.5067977706298232
1705061813768888300,26.771888427734375,-1.425848357040435,-1.9634834078676997,0.524827262908779
1705061813819304200,26.82230419921875,-1.5819785376898943,-3.479536059707403,-0.5288878268785775
1705061813869732000,26.872732177734374,1.2693224550716578,-2.8907582661420106,0.7258113518178463
1705061813920164400,26.923164306640626,3.0908176048889753,-2.326292783795297,0.6587079466208815
1705061813970595300,26.97359521484375,6.139716222459078,-6.269485927188396,-0.1708263761304319
1705061814021008100,27.024008056640625,3.6550782123133536,-0.8882334722183645,-2.5869763948529956
1705061814071423200,27.07442333984375,0.796231115021184,0.8098438261143863,-1.7059990312427282
1705061814121839400,27.12483935546875,0.46593328498937187,4.696325340595841,-0.0866936197971925
1705061814172283100,27.175283203125,0.43691104251407087,5.444768210938572,-0.2223600178822875
1705061814222698200,27.2256982421875,0.08484578170711174,3.3985637036338447,-0.762413674158603
1705061814273130200,27.276130126953124,-0.4991443209240213,-1.2779245714612304,-0.966905734656006
1705061814323546000,27.326546142578124,1.0364678581167013,-4.032725822541117,-0.7845921151537447
1705061814373961200,27.376961181640624,-2.707705007253587,-4.121022822414338,-0.22467013972187413
1705061814424407300,27.4274072265625,2.6063185164436695,2.090886675726622,-2.045966753026098
1705061814474834200,27.477834228515626,9.450274018120766,-2.584663441735506,0.659705871617049
1705061814525236200,27.528236328125,2.9135058122619983,-3.654100307191908,-1.4887674622900784
1705061814575682000,27.57868212890625,4.740113921178877,-2.3721675230026245,1.6797553135700523
1705061814626096000,27.62909619140625,2.4319975761957466,0.9291256007075309,0.2248468114630319
1705061814676512300,27.67951220703125,4.110153053353726,4.477528275892138,-1.4374145839326082
1705061814726927400,27.72992724609375,1.8461432688616215,4.839596331933141,-2.0164549734681843
1705061814777357300,27.780357421875,0.3013630466442555,1.2695648855254054,0.4726106438614428
1705061814827802000,27.830802001953124,-0.05154648753369692,-1.898828564866632,0.97715591051355
1705061814878212000,27.881212158203127,-1.3246014208316803,-3.060584671449661,-0.1778025900849141
1705061814928648200,27.931648193359376,-1.4203196567468344,-0.08080382197308354,-0.41371637368109077
1705061814979064300,27.982064208984376,3.3496079495459794,-5.676019683545827,-1.8678698013707995
1705061815029478400,28.032478515625,6.316749782666563,1.8189993874788284,1.898470837470144
1705061815079924200,28.08292431640625,4.987003400161862,-5.549084909981489,-2.4054871704109013
1705061815130322200,28.133322265625,2.217516182734072,-1.094656427713111,-1.4663224062480031
1705061815180754200,28.183754150390627,1.1959455225631594,4.522270211677253,-0.6613766543734818
1705061815231211800,28.234211669921876,-0.9497304357104003,4.047410473714769,-0.2153742871807888
1705061815281657900,28.284657958984376,0.8733226841386407,3.9511169221296902,-0.9064916710298507
1705061815332072000,28.335072021484375,-0.8377582534782588,1.941938515535742,-1.410799256468564
1705061815382500900,28.3855009765625,1.7123966233253478,-2.8469550725117325,-1.015623296073824
1705061815432931800,28.435931884765626,-2.2054718169361354,-5.16815550160408,-0.6564277997944503
1705061815483348000,28.486347900390626,-0.5145972895890474,-1.0036338753335177,-1.0325971541631966
1705061815533768000,28.536767822265624,4.67501074988842,0.2559580438405275,1.2456247686199844
1705061815584192000,28.58719189453125,3.5168738567158577,-1.7963342589452862,-3.249131559318304
1705061815634625000,28.637625,2.8750734980151056,-3.922294147749245,-0.008733039018063573
1705061815685052000,28.688052001953125,1.774591359823197,-0.031108330317644865,0.35611660029068587
1705061815735465000,28.73846484375,2.134308614954352,4.467485313044488,-1.5167781896352768
1705061815785899000,28.78889892578125,1.9267428461000322,4.994870480275154,-1.1723436246361583
1705061815836313900,28.83931396484375,-0.38425815094131976,2.9470328188106416,-0.7098327883761376
1705061815886730000,28.88972998046875,-0.8131277431558818,-1.0589868561778217,1.1875560990761964
1705061815937175000,28.940175048828124,-1.2896199776910244,-2.9501661484003066,1.9304858320206402
1705061815987580200,28.990580078125,-1.8782332283444703,-1.4573346515417098,-0.32314225918874145
1705061816038004000,29.04100390625,-0.3092066728167236,-2.5522879433095453,-1.2112277012385426
1705061816088450000,29.091449951171874,3.8256574818149205,-3.0961294475615024,-1.0637907493282108
1705061816138866000,29.141865966796875,5.445006695869565,-4.157222555303574,0.038644701188826
1705061816189281000,29.192281005859375,3.488025947894156,-3.4663384322211144,-1.4728439169712364
1705061816239695000,29.242695068359374,1.3510853770010172,0.5270384726848453,-1.4436130001813172
1705061816290139000,29.293138916015625,0.6774626967776566,4.142603662842512,-0.4104976673629135
1705061816340571000,29.34357080078125,1.3778316373683512,3.577581715656817,-0.8250101233251392
1705061816390985000,29.39398486328125,-0.4607118605466559,4.242171413792669,-1.31131801475808
1705061816441400000,29.444400146484377,-0.09678212055331095,0.4594353012721985,-1.3703126400403678
1705061816491831000,29.4948310546875,1.7179546958439051,-5.091492533162236,-0.7036944317515939
1705061816542246100,29.54524609375,-3.5130630662560463,-4.283443043118715,-0.745268112764135
1705061816592663000,29.5956630859375,1.177250612834841,0.8434619450125843,-1.9115056756101547
1705061816643107800,29.64610791015625,5.890907465851306,-0.32687165497541426,0.41632012643869964
1705061816693523000,29.69652294921875,3.8157694172680374,-1.8393562390699982,-1.5021132660754024
1705061816743937000,29.74693701171875,2.490774905465543,-3.7219144910067317,0.3381322499845177
1705061816794384100,29.797384033203127,2.0753044911913574,-0.7562550053983926,0.5932912889344617
1705061816844799000,29.847799072265627,2.752319809527695,3.790363465593755,-2.11766274671033
1705061816895211000,29.8982109375,1.9782528147153555,5.792430140486359,-2.14791774585098
1705061816945657900,29.948657958984374,0.1627523022029549,3.3833076823130246,-0.21166978837335482
1705061816996073000,29.999072998046874,-1.2197905085310339,-0.6236958160810172,1.2417615173205732
1705061817046503200,30.049503173828125,-1.555350643005222,-4.168198707348108,1.0461233560167253
1705061817096917000,30.0999169921875,-3.19502558286041,-0.4947161292182281,-1.8126241533584893
1705061817147331800,30.150331787109376,2.702075184673071,-4.673988421103358,-1.5491490118861198
1705061817197779000,30.200779052734376,4.08408366933465,-0.5691736965702846,2.8914053318738935
1705061817248194000,30.251194091796876,6.465597112831473,-5.437255351090431,-0.05372590023227967
1705061817298625000,30.301625,2.638771171759069,-2.0164581883385777,-2.637088917760551
1705061817349035000,30.352034912109374,1.413951290758699,1.572067530658841,-1.753480621124804
1705061817399456000,30.4024560546875,0.6112852107865736,5.215720385855436,0.6944808324001729
1705061817449874000,30.4528740234375,-0.3050416803580709,4.102089281624555,-0.33728151490669694
1705061817500318000,30.50331787109375,-0.1924421417415142,3.2891520195394754,-2.1670340958617627
1705061817550745000,30.5537451171875,0.6345683616206049,-1.449595435591787,-1.5355179614186285
1705061817601159200,30.6041591796875,0.6811931885428726,-4.752452886009216,-1.1522339527390897
1705061817651587800,30.654587890625,-2.107906053458154,-3.1469825597032903,-0.6092796065852045
1705061817702006000,30.705006103515625,3.5116081912726163,0.6388267497174441,-0.3904520006127655
1705061817752420900,30.7554208984375,4.7894423079714175,-1.687178741569072,-0.6966300463233143
1705061817802850000,30.80585009765625,5.298067245152592,-2.5889015176966783,0.18076423463579266
1705061817853297000,30.856296875,3.3286724212840197,-1.8988158515155313,1.5771427880965172
1705061817903704800,30.906704833984374,2.142702495420724,2.584874161876738,-0.7732268907263875
1705061817954125800,30.957125732421876,2.255308299381286,4.879787180285155,-1.7738829192928969
1705061818004558000,31.00755810546875,0.32800851351823657,4.297151250475645,-1.100847245177254
1705061818054973000,31.057972900390624,-0.4351925481583923,0.606315167289041,0.5845020890075713
1705061818105401000,31.108401123046875,-0.9668615301880985,-2.8888617848709224,0.8485184977497905
1705061818155816200,31.158816162109375,-1.3052338725388049,-1.5494601236619054,0.08719344994495622
1705061818206263000,31.209262939453126,-2.405627455664426,-2.3752971993304786,-0.9423762735553085
1705061818256663000,31.2596630859375,3.6502258038461206,-2.2106654400564727,-1.6740309445738792
1705061818307108900,31.31010888671875,3.5733050612509247,-1.9671289247632024,1.3309382226377724
1705061818357524000,31.36052392578125,4.639922193111479,-3.6860543653354045,-0.7253986062984913
1705061818407950800,31.410950927734376,1.862668287204951,0.7487718831013888,-2.3029478563040495
1705061818458385000,31.461385009765625,1.2066623660843818,3.9974920120745896,-1.3421404385231435
1705061818508799000,31.511799072265624,-0.42317974654249846,4.526444867013395,0.07190511552342213
1705061818559223000,31.56222314453125,-0.6948607716284692,2.7928809524968266,-0.8913111260980368
1705061818609644000,31.61264404296875,-0.7026887618403881,0.13007742810477502,-1.346036423048377
1705061818660058000,31.66305810546875,-0.4416146170951426,-2.656344530111551,-1.1488332774501293
1705061818710500000,31.7135,-2.100573957004398,-3.8290216975510116,-1.4720274860218165
1705061818760910000,31.76391015625,2.109442323114723,-2.25411616698727,-0.78117185838148
1705061818811353900,31.814353759765623,5.600599993163347,1.1637819133222103,0.43911114637423304
1705061818861772000,31.86477197265625,4.717311137740314,-5.759427450072765,-1.7972285774365067
1705061818912182000,31.91518212890625,1.8040758129827676,-3.060954089283943,1.3155831248566507
1705061818962615000,31.965614990234375,2.873241021890938,1.7357932810038328,-0.9254719735708087
1705061819013042000,32.0160419921875,2.4797782951548695,5.446808776855469,-1.9693331568092107
1705061819063457000,32.06645703125,0.8812162138674408,6.125951316478848,-1.6681475856237113
1705061819113871000,32.11687109375,-0.6255997500061988,2.5555238564908502,-0.017893543917289933
1705061819164318200,32.16731811523437,-0.40501908982135354,-2.241590739674121,0.7715887681305408
1705061819214732000,32.21773193359375,-1.6308343385346233,-5.219439698639512,0.5005154996793717
1705061819265148000,32.26814794921875,-2.988220569245517,-0.736982295782119,-0.9971603684704751
1705061819315576000,32.318576171875,1.101162302475795,-10.187319880658388,-0.35396833621561524
1705061819366022100,32.36902221679688,4.226920360907912,4.891346977436542,0.6198734813138842
1705061819416436000,32.41943603515625,4.802045476695895,-5.613128635346889,-1.535146205496788
1705061819466851000,32.46985107421875,2.903881367087364,-0.8249076127987355,-1.6250979868397115
1705061819517283800,32.52028393554688,0.5215898518901319,3.0688793293252585,-1.659457937081158
1705061819567699000,32.57069897460938,0.3146703815827146,4.001018140374124,-1.0271309246465563
1705061819618114000,32.62111401367188,-0.6503698149297386,2.402185352386534,-0.4223558994716033
1705061819668559000,32.67155908203125,-0.2958551334103569,2.6651702261239287,-1.9515685136683285
1705061819718974200,32.72197412109375,-0.12192853537541813,1.1947866348516196,-0.6155016959704458
1705061819769390000,32.77239013671875,-0.13887060095388443,-4.722337441469729,-0.4677301418108865
1705061819819835000,32.8228349609375,-2.566996559880674,-4.4273827274978155,-0.5915296130241826
1705061819870250000,32.87325,3.929560047098994,-1.5558216215178369,-0.7629074490249157
1705061819920665000,32.9236650390625,3.7381554317116734,2.0607092718668283,-0.29571753330426287
1705061819971111200,32.974111083984376,3.3947482369989155,-5.560933168685436,1.2164571263246238
1705061820021525000,33.02452490234375,2.2662086097106338,-1.3681038779497146,0.6064898297362029
1705061820071955000,33.07495483398438,3.091635643273592,3.25934987873286,-1.2077193277914076
1705061820122370000,33.1253701171875,2.081444162990153,5.642179373264312,-1.592485464787483
1705061820172784000,33.1757841796875,0.5760968468969687,4.738305994974077,-0.772696144850552
1705061820223260400,33.22626049804688,-0.5480418054860084,2.4307747564025224,0.33524960722029207
1705061820273674500,33.27667456054687,0.028103492795722558,-1.762424975080788,0.699046971271932
1705061820324105500,33.32710546875,-2.706703721256554,-3.54402431396991,1.0722217469345778
1705061820374521600,33.377521484375,-3.060146864554286,-1.3739433977581559,-1.1435920888610183
1705061820424936200,33.42793627929687,2.031222188358754,-6.025244040104747,0.752631700334698
1705061820475381200,33.47838134765625,2.0191287227220833,-0.19661159117957577,2.169868150243908
1705061820525796400,33.52879638671875,4.243631549473107,-4.595665702755749,0.50980512340907
1705061820576212500,33.57921240234375,2.97510448256284,-0.9189361420612782,-1.3039258586801588
1705061820626627300,33.62962744140625,2.077343011281639,3.209198192858696,-1.3603797134384512
1705061820677073400,33.680073486328126,0.7373959911495447,4.009224243183434,-0.121622465100931
1705061820727487200,33.7304873046875,-0.12180269877235404,2.7171488351643083,0.13094392700730823
1705061820777903400,33.7809033203125,0.6901275325614958,3.1741143122568727,-1.5647254973329603
1705061820828325600,33.83132568359375,-0.6784735543206334,-0.055914126424980344,-0.9846193782620132
1705061820878746600,33.88174658203125,-0.574459016562067,-4.676920382902026,0.15621263476852326
1705061820929192200,33.93219213867187,-1.862793374889344,-3.1286291568890214,-0.8047652076758444
1705061820979607300,33.98260717773437,4.721528463174402,-5.273795558205246,0.7536861047584563
1705061821030039300,34.033039306640624,2.587826581941545,4.303336953373253,1.2624595835648476
1705061821080453400,34.08345336914063,3.8594717808723447,-3.8104692650333045,-0.055355296098976395
1705061821130894300,34.13389428710938,4.58506948993951,-2.821339569739997,2.5952973562136292
1705061821181309400,34.18430932617188,2.835480323295295,2.935327183447778,-0.8153644892320037
1705061821231744500,34.23474462890625,3.1696620090231296,5.100041750320792,-1.196048033089563
1705061821282144300,34.285144287109375,0.5329772516166791,3.636993105046451,-1.0692234419014304
1705061821332590300,34.33559033203125,-0.08116582368589007,2.6944682168006895,-0.5702597017087042
1705061821383005400,34.38600537109375,-0.9893770211178808,-0.3996426209473982,0.8284013001333922
1705061821433430500,34.43643041992188,-0.9069530049312859,-1.3668623534560203,2.4825144421204923
1705061821483834600,34.48683471679688,-3.215565389803052,-3.8992446960732337,0.14217230938039718
1705061821534280200,34.5372802734375,2.0034233501985668,-4.832707156941295,0.7319426211144775
1705061821584709400,34.58770947265625,4.961564423000812,-3.7932156401544805,-1.0338274996757506
1705061821635124500,34.63812451171875,4.484503667862713,-2.9754724390923974,-0.9926803004469722
1705061821685539600,34.68853955078125,2.616357095377147,0.45953540064580733,-0.6960366104748099
1705061821735974400,34.73897436523438,1.7931397006876766,2.041452344341576,-0.4011844070293009
1705061821786401500,34.789401611328124,-0.8705845644116401,3.117277157269418,0.11511073598619549
1705061821836818400,34.839818359375,1.1305732520077376,4.297586719283461,-0.813517034734413
1705061821887246300,34.89024633789062,0.875102772488445,2.829609677696228,-1.966209325700253
1705061821937661400,34.94066137695312,-0.9295998671557754,-0.6129945354551076,-0.37724407092817125
1705061821988102400,34.99110229492187,0.8435532765578478,-3.268841052916646,-1.5021249565131962
1705061822038505200,35.041505126953126,-2.958013939291239,-2.9892788461267945,-0.7949790691334754
1705061822088938500,35.0919384765625,3.750986563973129,-1.7891016773432493,-0.38802038955166934
1705061822139352300,35.14235229492188,6.866506063920259,1.0159546469200402,0.6822057996515184
1705061822189798400,35.19279833984375,4.277825495497882,-4.49268668205738,-0.6057380980534479
1705061822240212500,35.24321240234375,2.190651995075494,-2.990962561430037,2.078179169844836
1705061822290627600,35.29362768554687,2.6875568299770354,0.6375295495137572,-1.673088256896287
1705061822341051400,35.34405151367187,3.1761659840896725,4.516907807861268,-1.797665361418575
1705061822391472400,35.39447241210937,1.536204628508538,5.4450008506506675,-1.2064222006529568
1705061822441917400,35.44491748046875,-0.3996757560320198,2.110505276171118,1.421522456665337
1705061822492332500,35.49533251953125,-1.1090553207479417,-0.8647405876237898,2.0301012215048075
1705061822542764500,35.5457646484375,-0.4731853750094771,-3.7949487475574015,1.4034822114534675
1705061822593179400,35.596179443359375,-2.424496114524454,-0.03500671001265291,-0.5513656161464751
1705061822643602400,35.6466025390625,3.3484514729872346,-2.5373794202521442,-1.9227116908878086
1705061822694040300,35.69704028320312,9.255320185819267,-2.3797508177384734,3.3557691025242207
1705061822744454400,35.747454345703126,2.7311057565852996,-2.6621330503851173,-0.29479351379452273
1705061822794870300,35.79787036132812,4.266624010264874,-3.4542829605072733,-0.4280657284857705
1705061822845316400,35.84831640625,1.1436190499331802,1.980372583348304,-0.15269479937329888
1705061822895731500,35.8987314453125,0.3121435299862176,4.152591972893476,0.921174933964014
1705061822946160400,35.949160400390625,1.1848428215295075,3.710482996410131,-0.39190946941208094
1705061822996560400,35.99956030273437,0.7139511104151606,3.41806218483001,-1.8313490198336542
1705061823047007200,36.05000732421875,-0.7603040615934878,1.0141766043968499,-1.415568370566517
1705061823097435400,36.100435302734375,-0.6684711426790804,-5.695583631193638,0.024068024451273956
1705061823147850500,36.1508505859375,-3.376199311612546,-3.9989509787112474,0.2884674891107715
1705061823198266600,36.2012666015625,5.512431880366802,0.10033622370515949,1.4814607925385237
1705061823248680400,36.251680419921875,3.472368652296066,-5.18551813981533,-0.6237496651601045
1705061823299126300,36.30212622070312,4.813016660304367,-3.440314640909433,2.1106107823722065
1705061823349527300,36.35252734375,2.3700378174975514,0.265169725229498,1.2612846945665777
1705061823399967500,36.40296752929687,3.310374548049271,4.845412032474577,-0.8445107234131545
1705061823450387500,36.45338745117188,2.4815742386609316,6.374388901686668,-1.687971060990542
1705061823500818400,36.503818359375,0.3564929227897897,4.771660567565262,-0.6642325552612542
1705061823551248400,36.554248291015625,-1.0315190035376698,-0.3917316286271438,1.3099674769319594
1705061823601664300,36.60466430664062,-0.2990229680578224,-2.990962269169092,2.9565298382133243
1705061823652078300,36.655078369140625,-1.9457690336093305,-1.9189757192298769,0.42894090388510375
1705061823702524400,36.7055244140625,2.3115543566077945,-4.607017410114407,-0.27517432882813736
1705061823752938500,36.7559384765625,7.783107698619365,2.317113598170131,-1.2259174669787287
1705061823803360500,36.806360595703126,6.223638368248939,-3.8435581724256274,-0.1543098333545029
1705061823853778400,36.8567783203125,4.876193539707362,-4.1885529285907745,-0.05182665161537006
1705061823904197400,36.907197265625,1.9609509667806326,0.504323732855916,-1.6020530652083456
1705061823954643500,36.9576435546875,1.0821638066910206,3.280584682202339,-1.0121120000172406
1705061824005061400,37.008061279296875,0.5260538820942864,4.345175568932294,0.5395064341897144
1705061824055491300,37.0584912109375,0.1784550078453496,4.510567498923838,-1.1674896087337285
1705061824105908500,37.10890844726563,-0.44896410307511686,2.313697067724913,-2.1781426421143113
1705061824156320300,37.1593203125,1.7377723259918392,-4.142845947165787,1.2548711742624639
1705061824206765300,37.20976538085937,-2.096216200186312,-4.889792441470921,-0.17946719882888718
1705061824257181400,37.26018139648438,-0.14783214350668714,0.20361708602746947,-1.4620420985803007
1705061824307595500,37.31059545898437,5.730560836550593,1.5351998353801666,1.154652485122904
1705061824358010600,37.3610107421875,2.851286087453365,-2.087723389390111,-0.3208480838369578
1705061824408451300,37.41145141601562,3.240201526148617,-3.6901340358644723,0.6505648991104215
1705061824458872300,37.461872314453124,1.5446158985011278,-2.169386065815389,-0.4251466992339119
1705061824509287400,37.512287353515624,4.111924739201367,2.9994363752648234,-1.5067631377078592
1705061824559731500,37.5627314453125,2.519111942155659,4.933392221483588,-1.7286483776852488
1705061824610159400,37.61315942382812,0.4085636670930311,3.0804309431701897,0.6207585205201059
1705061824660576300,37.663576171875,0.03452962826952571,0.7718041644468903,2.2253737643666565
1705061824710991400,37.71399145507812,0.6710932348109782,-2.3698553005374965,1.4325734275117517
1705061824761406500,37.76440649414062,-1.9011241284579037,-1.359904789403081,0.44222818241622297
1705061824811852500,37.8148525390625,1.1097259865511209,-3.705188689394295,-0.015161438372544944
1705061824862253300,37.86525341796875,5.529358465248346,-0.8623838684298097,-0.4136983265677467
1705061824912699400,37.91569946289062,3.6904327265501022,-3.3228575975254175,1.4015375071264802
1705061824963113200,37.96611328125,3.332397871547937,-3.5010914734333753,-0.8154797131095081
1705061825013544400,38.01654443359375,1.2691869921237229,0.46995611076466737,-1.337789111445844
1705061825063974400,38.06697436523437,1.6302843034364283,3.5989512514218687,-0.31740762452688065
1705061825114388500,38.117388427734376,1.284039693340659,3.4199469756633043,-0.024888640668755395
1705061825164804400,38.16780444335937,0.007615102088131243,3.278394770942628,-1.107752275325358
1705061825215305200,38.21830517578125,-0.42358748709317295,1.8256657135002314,-1.234476474878937
1705061825265719300,38.26871923828125,2.019527658911794,-3.3665523623451588,-0.33920221730358896
1705061825316135200,38.31913525390625,-2.5775696840822695,-4.02968163253963,0.009769150874949992
1705061825366568400,38.369568359375,5.343384642738104,-1.6590873502030967,-0.2705346863287501
1705061825416978400,38.419978515625,7.64596541929543,-0.9350766911316662,1.6156545973204075
1705061825467425300,38.47042529296875,1.642523461154103,-3.4478970588624476,-0.8719814255975187
1705061825517824300,38.52082421875,3.324028687131405,-2.6613120893910525,3.250483558449149
1705061825568270000,38.57127001953125,1.7091610024049877,0.6443705014497041,0.49368883199710395
1705061825618685200,38.62168530273438,3.3558965282961726,5.3518204626500605,0.03136417965868022
1705061825669122300,38.67212231445313,1.2369411114268005,4.711057338042557,-0.8744204162474721
1705061825719535400,38.722535400390626,-0.5134467313144355,0.7345425014145672,0.4847958794347942
1705061825769946400,38.7729462890625,-1.076418102645874,-0.5940061226729303,2.662611481551826
1705061825820390100,38.82339013671875,-0.3699007954932749,-2.6025740692183374,-0.02019252559164306
1705061825870819300,38.8738193359375,-0.3028645189820789,0.8326130726095289,-1.1094758111823348
1705061825921220400,38.92422045898437,3.4096164280459282,-3.6211768194943663,-0.6873695390902459
1705061825971666400,38.97466650390625,4.3620667902395125,-1.0237366790983826,2.4709192813947793
1705061826022068200,39.025068115234376,6.12471680624783,-4.669473281766474,0.9619935588255524
1705061826072512300,39.07551220703125,3.444025770387053,-2.682429403960705,-0.4792100421264767
1705061826122912300,39.12591235351562,1.2761349115654825,2.7125369574546814,-0.5607660433068871
1705061826173357300,39.176357421875,0.6481408868338913,3.5302053397148847,0.046001685488666406
1705061826223771400,39.226771484375,1.4102483445875347,3.9534345514222977,-0.3138801079878583
1705061826274198300,39.2771982421875,0.8842793277651071,2.2750484803788362,-1.4861495348766445
1705061826324619300,39.327619384765626,0.043713218358461745,0.2244153247105889,-0.3149681224202737
1705061826375033000,39.378033203125,1.0239859046190976,-4.424740688556432,-0.5140774669660255
1705061826425479200,39.42847924804688,-1.4861676550552247,-2.1763316471695897,1.5438225561663508
1705061826475899100,39.478899169921874,3.177157040953636,-1.0634504114579408,-2.182432740523666
1705061826526323200,39.5293232421875,5.2069391135066745,-0.16823961104024202,2.9484038149029015
1705061826576755200,39.579755126953124,4.439711170934141,0.224957395698037,2.5333842131361366
1705061826627169000,39.6301689453125,2.049312702453136,-3.146486885140836,1.5455894197084008
1705061826677585400,39.68058544921875,3.4796038642466067,-1.774907440035045,1.251856356485933
1705061826728000300,39.731000244140624,3.2915406682416797,2.4938512441709637,0.1560204366646707
1705061826778428400,39.781428466796875,1.9244510819010436,3.727022335539758,-0.32107064054645595
1705061826828861200,39.83186108398438,0.28084369796775277,2.2115829932928084,0.1768125013353303
1705061826879293200,39.88229321289062,-0.36130123638696965,0.7489640446726232,0.0849964878899511
1705061826929705200,39.932705322265626,0.2632142985790968,-1.9365416249282656,0.7475976516902446
1705061826980119300,39.98311938476562,0.671810954626277,-0.09265767930075526,0.6580627075199037
1705061827030565400,40.0335654296875,-1.375956929537654,-0.002223254979831108,-0.18795297709610312
1705061827080996400,40.083996337890625,5.43653112846911,-5.386411299037933,3.472857604856789
1705061827131412200,40.134412109375,3.13971958296299,-2.189381829009205,0.23474346117516978
1705061827181827300,40.18482739257813,5.157918769749998,-3.567503096973896,-0.24263699090396984
1705061827232242400,40.23524243164063,1.7999708618819712,0.6338300374086946,0.11656614982574247
1705061827282687200,40.28568725585937,2.141920989654213,1.6795394788622855,-0.4019702601773664
1705061827333103000,40.33610302734375,0.095874467656482,2.329605269344151,-0.845472992574051
1705061827383517200,40.38651708984375,1.6119591038033365,1.402821847848594,-0.7326683781057596
1705061827433946000,40.436946044921875,1.1167374727483839,0.9618527621153742,-1.2666443219035863
1705061827484379400,40.48737939453125,0.31085732610058037,1.0248707246296107,-0.029943946730368768
1705061827534794200,40.53779418945312,0.9714012194443493,1.091191016624868,-1.9138047463327645
1705061827585209000,40.588208984375,-0.7144580370239914,-0.8575782947789877,0.2877821554614231
1705061827635638300,40.63863818359375,2.343688885884732,-1.4996293403051792,-2.3474136054962873
1705061827686082300,40.689082275390625,5.673928848746419,-2.6073180488750336,-1.3096968432970344
1705061827736497200,40.7394970703125,3.017074615547061,-0.025179376376792788,0.3685802874792367
1705061827786912300,40.789912353515625,4.011016679558158,-0.20287116303099317,0.7968341954808682
1705061827837344300,40.84034423828125,4.094774282436073,-1.874490242423862,1.1472210199479014
1705061827887760100,40.89076000976563,4.622215856029093,-0.0197844767970033,-0.23847824552301317
1705061827938205200,40.941205078125,0.8202752037577331,1.9662240848779677,-1.322896955001354
1705061827988620300,40.991620361328124,2.8123335487246512,1.3076077620632947,1.9315973003938793
1705061828039050200,41.04205029296875,1.320102501977235,0.9833638252429664,0.37847134770080443
1705061828089465000,41.09246508789062,-0.4322555448584258,0.5966582080842927,-0.5740748030174523
1705061828139896000,41.14289599609375,0.9700691671229899,1.0400528039313852,-0.11515955269713886
1705061828190310100,41.19331005859375,-0.2858259250934236,-4.162812338134646,-1.5728218561574816
1705061828240726300,41.24372631835938,1.3446011295482516,-3.1755443450599907,0.1638730133285746
1705061828291171300,41.29417138671875,1.8470567304447292,1.046743606806919,0.8589956872962414
1705061828341591300,41.34459130859375,4.180061579099298,-4.614674939130246,-0.46016661122143265
1705061828392023300,41.39502319335938,3.4712171441733837,0.2914241834918968,-1.1229653342872858
1705061828442430200,41.44543017578125,3.3007334440007803,-2.2502995313085616,-2.1653740536950528
1705061828492845300,41.49584521484375,1.215180092126131,-0.9184607796344906,-1.521409502697736
1705061828543291400,41.54629150390625,1.2905023134835063,1.225566826910153,-1.5190876356214285
1705061828593692400,41.5966923828125,0.4264057593842968,2.083078778454661,-1.6546293478809295
1705061828644121000,41.64712109375,-0.24678028298746793,2.6093095149531957,-1.8963212582208215
1705061828694553000,41.697552978515624,-0.8381796937607229,2.6745816130697726,-2.074182939815521
1705061828744968200,41.74796826171875,-0.1380930224438198,1.9538056250706315,-2.343032906194031
1705061828795413200,41.79841333007813,0.522886431039311,-1.70928725913316,-1.0309814625948668
1705061828845828400,41.84882836914063,-1.9659189644515513,-2.2426912482619286,-1.7857530975677072
1705061828896243500,41.89924340820313,-2.1269756417177614,0.3065811466187239,-2.5655796788200735
1705061828946681300,41.94968139648437,4.5017079006418586,1.1464375414200128,-3.6653584910482166
1705061828997104000,42.000104248046874,8.28318195733726,-10.376777453631162,4.672795996448397
1705061829047519200,42.050519287109374,0.6466060054168105,0.289306351087708,2.526826462055743
1705061829097933300,42.10093334960938,1.9684736173704265,-3.2118431544095274,-0.9039699705325066
1705061829148362200,42.1513623046875,2.42248345952779,0.9745109489627182,-0.5357008678942918
1705061829198808300,42.20180834960937,1.9791183455035088,4.629278049500286,-2.2187556614011523
1705061829249217300,42.25221728515625,0.015094406726543092,2.939606760463118,-0.9765374132890253
1705061829299638300,42.30263818359375,0.11818120207325555,2.0305660625375808,-1.096898361421004
1705061829350054100,42.35305419921875,-1.1405967064373195,-0.4521674291610718,-1.324756611393392
1705061829400486100,42.403486083984376,-0.499600321063213,-2.255576887189597,-0.5271435770271345
1705061829450921200,42.453921142578125,-1.4401833179935812,-0.7659378296967595,-1.5123818543724714
1705061829501329200,42.5043291015625,7.233423313558101,-2.959882071250677,2.889011714735627
1705061829551755300,42.55475537109375,3.131102853526175,-2.436415392637998,-4.668424064974486
1705061829602175200,42.60517529296875,6.425632766711711,-6.3818941627502435,1.5255686682038008
1705061829652622300,42.655622314453126,3.1359961785256862,-3.058459057597816,-0.8709469679832458
1705061829703036400,42.70603637695312,1.052075980810821,1.1024316648244856,-1.113319334867969
1705061829753452300,42.756452392578126,0.19982963991062713,0.4681174606280401,1.6874822545602917
1705061829803897000,42.80689697265625,1.4686827056385576,2.983435088534653,-0.9683420510694384
1705061829854294300,42.85729418945313,0.8769145711507648,5.010794025593996,-2.296174270515889
1705061829904742100,42.9077421875,-1.4345897357702255,5.410458529579639,-2.292179063399881
1705061829955156200,42.95815625,1.1719923269804566,-3.910579452297091,-0.5644686241518706
1705061830005571300,43.0085712890625,-3.3993265046998857,-0.8601719645339995,-0.6804420779146254
1705061830056016100,43.05901611328125,8.03107006753087,2.2705006078161296,1.6923226803287863
1705061830106418200,43.109418212890624,8.448017714750767,-8.817613243687152,1.7968018764570355
1705061830156848000,43.15984814453125,1.5362665878288446,-2.8081217762485147,1.906844698061794
1705061830207308500,43.21030859375,1.0613065312970429,-3.5728564407005905,-0.5066066926939413
1705061830257723400,43.26072338867188,2.412732173103094,1.0891853028256446,-0.2791368392509408
1705061830308138500,43.31113842773438,1.1153508406955748,5.000657831504941,-0.6295793942268938
1705061830358584300,43.361584228515625,0.606038944163546,4.024698875690996,-0.2329131222091615
1705061830408999400,43.41199951171875,-0.7742044305216521,2.6292358661726114,0.403001174127683
1705061830459436500,43.4624365234375,-0.3596840835139155,-0.21382406206410376,3.15683906006813
1705061830509859300,43.512859375,-0.8989166326656937,-3.0040763100251553,0.5200099988201633
1705061830560274400,43.5632744140625,-3.450497304488718,2.580778124734759,-2.2963138251170516
1705061830610689300,43.613689208984376,5.469504592788219,-8.863957061710954,1.8447993069067596
1705061830661113600,43.664113525390626,5.750375544089079,-1.769971883329004,0.2606624952044338
1705061830711533300,43.714533203125,4.420053407523036,-4.798486907431483,-1.2836335967577994
1705061830761978400,43.764978271484374,2.424164544482529,1.5979681339822709,-0.9859923471156508
1705061830812402400,43.81540234375,1.6091563213422893,4.187106821435689,1.2017481444273144
1705061830862807600,43.8658076171875,2.016289846034348,2.97760272911936,0.5331451920621096
1705061830913240300,43.916240234375,1.7227157727658748,4.0684447861760855,-1.898988577733934
1705061830963656400,43.96665649414062,0.4802797902498394,3.0058140936031936,-2.3478579882629216
1705061831014100200,44.017100341796876,1.4900618860147892,-1.1035765970759093,0.22777144847176967
1705061831064523500,44.0675234375,-0.9438551870014518,-5.313052048316598,-0.8006072842787951
1705061831114944500,44.117944580078124,3.430738126529753,-3.875595817199349,-0.7437594617668539
1705061831165376500,44.16837646484375,5.854324578863382,-0.6481861872803419,3.282820770691335
1705061831215792400,44.21879248046875,4.026317124542594,-1.955776486752182,2.165514046687633
1705061831266207500,44.26920751953125,2.9687814170211553,-1.6687367836885154,1.5679622872970997
1705061831316622600,44.31962255859375,0.6025752135757356,-1.7568218943767249,0.8789812213569879
1705061831367062300,44.370062255859374,2.9947581543207167,4.978081258037686,-0.4257652695236727
1705061831417497300,44.42049731445312,1.9195410980276761,5.389781067731977,-0.5704934739319607
1705061831467899400,44.4708994140625,0.4639359736923128,1.2897319136328995,1.0154942628666759
1705061831518327600,44.52132763671875,1.180294510575384,1.0110716241188347,0.19359335760325191
1705061831568742400,44.57174243164062,-1.3243142744533716,-2.1276703459836543,1.7404884530827403
1705061831619173600,44.62217358398438,-0.2263154044445604,-2.1582703591696917,2.768068582801521
1705061831669598500,44.67259838867187,2.9611797098457813,-0.9520761220537125,-0.6606910832621157
1705061831720016400,44.723016357421876,9.046225599962472,-2.8347189835339783,1.7508819829337299
1705061831770462500,44.77346240234375,7.192393968555331,-4.583123032046855,-0.14257709992215967
1705061831820863500,44.82386352539063,5.018424374341964,-4.868989307416975,-0.5030139288989827
1705061831871309600,44.8743095703125,2.027125128303468,0.38303945933394135,-1.3505632528230547
1705061831921724400,44.924724365234376,1.4126754256039857,4.371123956920206,0.48138395209945734
1705061831972152600,44.975152587890626,1.0419310919586569,3.691840839782357,1.4200382094569504
1705061832022585300,45.02558544921875,1.0456278275847435,5.602869691661,-1.869162033138424
1705061832072999400,45.07599951171875,-1.088603192088753,1.6146407441027462,-2.078478298921883
1705061832123428400,45.126428466796874,-0.21941377182994037,-2.4224089329868552,0.5649399679906666
1705061832173854500,45.1768544921875,-2.075726662126183,-4.245255935804545,-0.2986037014661357
1705061832224282600,45.22728271484375,3.653599371932447,-1.0376982036292552,-1.7065078575477004
1705061832274705400,45.277705322265625,6.924421077272296,-3.3445857374697923,1.6244151191420853
1705061832325125400,45.32812548828125,5.33415854923129,-2.714265973204374,1.4508268770828843
1705061832375551500,45.37855151367187,3.49730523289293,-1.8986070310704408,1.7866871635474264
1705061832425966600,45.42896655273437,2.9258336711764334,-1.353095401649177,1.511789003045857
1705061832476380400,45.47938037109375,2.8835046417519448,4.562212053704261,-0.8943276974402368
1705061832526827300,45.5298271484375,2.353277236832678,5.609749514302611,-0.9118874656587839
1705061832577247500,45.58024755859375,1.1659729936257004,4.83331213709712,0.21441020965529606
1705061832627657500,45.63065747070313,-0.8435948506772518,1.754809385510534,0.987583196503669
1705061832678072600,45.68107250976563,-0.3247873229820281,-2.636267372244596,1.5876412396267054
1705061832728518400,45.731518310546875,-1.6764359598889946,-5.101665552130341,1.8754168557494877
1705061832778933500,45.78193359375,-0.22903947737989946,-3.6075787945136426,0.15440100050298497
1705061832829348400,45.832348388671875,6.776971923467516,-0.7790475597038865,-1.522601342830807
1705061832879785200,45.88278515625,6.669663641393185,-5.403008798095583,-0.6562283316995948
1705061832930192400,45.9331923828125,4.049346410213411,-1.8118330029807983,-1.7468858990348874
1705061832980633600,45.98363354492187,2.4144908533386884,1.5789759948730469,-1.4235511860139667
1705061833031051500,46.034051513671876,0.40275019504129883,3.819847334231436,0.2540967982796021
1705061833081477400,46.084477294921875,0.657086848225072,4.791248480610549,0.2784609492833726
1705061833131912400,46.134912353515624,-0.27417485119570045,4.444812877987325,-0.06694737895161379
1705061833182335500,46.18533544921875,-0.851401140514016,0.10547310253642499,-0.9586934213016182
1705061833232740400,46.235740234375,0.849881383600831,-3.6988095097512006,-0.610761333042942
1705061833283183400,46.286183349609374,-0.6190971631791442,-3.8463407888814807,-0.584301999858208
1705061833333604400,46.336604248046875,5.357540009340644,-1.0297175070736557,1.4048105374477804
1705061833384035300,46.38703540039062,5.000796363192796,-1.2251472863238304,1.3983013016842305
1705061833434450400,46.43745043945312,3.5573397226169705,-4.073617804899811,-0.18330000019110737
1705061833484864500,46.487864501953126,1.5852660349279641,-3.529069321422279,2.4496567131355405
1705061833535280400,46.5382802734375,2.8047289189398286,2.630303787665069,-0.6305860870514065
1705061833585726500,46.5887265625,2.862668774472177,5.625104904344678,-0.8520208067823201
1705061833636141300,46.63914135742188,1.1404374972876161,4.963444829919934,-0.5573478688938542
1705061833686556400,46.68955639648438,-0.6213795019626617,2.5255375912889835,0.49493419241569936
1705061833736985300,46.7399853515625,-0.631118586492911,0.7648723193570971,0.9718103117018938
1705061833787431400,46.79043139648437,-0.9936034066412597,-3.434821011929214,-0.2904182943849824
1705061833837825300,46.8408251953125,-5.758406290331482,-0.40030247309561817,-0.6741290223103016
1705061833888277500,46.89127758789063,2.6070775181174275,-6.669405282717943,-0.7697600913986563
1705061833938692400,46.9416923828125,5.266577881911397,-5.210999787074327,-0.028851059760013592
1705061833989106400,46.9921064453125,6.017513738113641,-4.301530780734121,0.3436138597333804
1705061834039522300,47.042522216796876,2.057044611879438,-0.4208368001455441,-0.16422670387076213
1705061834089970400,47.092970458984375,1.9401338042013345,3.888210384100675,0.43703181934952734
1705061834140382500,47.14338256835938,0.7350240013211965,5.218589219290018,-0.035432851586409374
1705061834190797300,47.19379736328125,1.0032800203945487,4.5760576237052675,-1.5835918181054294
1705061834241243400,47.244243408203126,-0.49391719739288087,2.5447347514510152,-1.4556290166676045
1705061834291659300,47.2946591796875,1.4765760892368853,-2.3608242912113666,-0.5202349301498383
1705061834342073300,47.3450732421875,-1.5571699673868715,-5.964779342269897,-0.08912176025956868
1705061834392519400,47.39551953125,4.171677489374578,-3.081888448502123,1.5072352852642534
1705061834442917400,47.44591748046875,5.892520161744952,-0.13477811660901642,2.85719881862849
1705061834493360600,47.49636059570312,3.991963019520044,-1.2987627768285572,-0.37496702937427906
1705061834543778300,47.5467783203125,5.838317446914315,-3.7213650404304266,2.7762936825722453
1705061834594194400,47.5971943359375,3.084637747210264,1.3376366973631084,0.28389495703084394
1705061834644624400,47.647624267578124,2.4112198688440025,4.786306348033249,-0.20778573174793272
1705061834695040500,47.69804052734375,1.616379112202674,4.854895900134742,-0.6354004285305738
1705061834745460500,47.74846044921875,0.5904809807540848,3.7868227242469787,0.7795999328896402
1705061834795900400,47.798900390625,-0.031234765142330433,2.3958580490611494,0.9182719790641218
1705061834846315300,47.84931518554688,0.5778634912433103,-3.5419907623156903,1.884987524910271
1705061834896730400,47.89973046875,-1.9655947009332477,-2.487510935233533,0.28350199392419306
1705061834947176400,47.95017651367188,2.075656227238476,-4.552785761450231,0.4386601146711036
1705061834997591600,48.00059155273438,5.604298847681283,-2.7073443572476505,0.29244185436815023
1705061835048006400,48.05100634765625,6.508298774960637,-5.855255137711763,-0.09107283039526082
1705061835098452200,48.1014521484375,3.6925694463178513,-2.255841821736097,-0.9522653610154986
1705061835148867300,48.151867431640625,2.138520095169544,1.434419055378437,-0.9415795702196658
1705061835199340800,48.2023408203125,0.5814290017051622,4.352121734808385,0.3737461458098143
1705061835249750800,48.25275073242187,1.7837443880937993,4.627915528975427,-0.5812192314120009
1705061835300166000,48.30316577148437,-0.2882310500063933,4.219601270066201,-1.1417623892158268
1705061835350611000,48.35361083984375,-0.42762711787279695,-0.2605833838199265,0.0635887618392473
1705061835401023700,48.40402368164062,2.0145478246726096,-5.210324664291739,-0.7843995882563293
1705061835451458000,48.4544580078125,-2.539673960930109,-2.9758515015378593,-0.24382128705140202
1705061835501869000,48.504869140625,8.629654969361424,-0.9895539851199835,-0.3586222995012998
1705061835552287700,48.555287841796876,3.9884599798351523,0.31012934061959385,3.3950255926355717
1705061835602712800,48.605712890625,3.3872830156847833,-3.8415366034701464,0.5995930194271728
1705061835653150000,48.65614990234375,3.364715210045874,-3.9710982184067367,2.264653050831705
1705061835703564800,48.70656469726563,4.294624654607475,1.2690361854761838,0.025898808658565392
1705061835754008800,48.7570087890625,3.8510444365277885,4.01727749351859,-0.6895422800194472
1705061835804424700,48.8074248046875,1.4378835166186092,5.525422879365086,-0.9967305987510829
1705061835854838800,48.8578388671875,1.1864133587818593,3.124319184735417,0.9990835185527801
1705061835905266000,48.90826586914063,0.3848359508292749,0.7052347199961543,1.5586774493403732
1705061835955701000,48.95870092773438,-0.23944601284293457,-2.8987615398555993,0.5774137016491964
1705061836006130000,49.0091298828125,1.6370567201808095,-6.448729564660788,2.008199770820141
1705061836056543700,49.059543701171876,2.880512181937694,1.4113630278311668,1.8205112533465027
1705061836106958800,49.109958740234376,6.731453450351953,-3.8756101379856465,-0.4898433720827102
1705061836157392000,49.160391845703124,5.865824462521076,-6.815372673532367,0.14915393016235903
1705061836207800800,49.21080078125,2.3240033576838672,0.8998746640428901,-0.9957460446931421
1705061836258220800,49.261220703125,1.723011833103001,2.9229835424423216,-0.8435891515888273
1705061836308667000,49.3116669921875,0.7086266274567693,3.956075421319902,0.780964280045405
1705061836359082000,49.36208203125,2.2419895297333596,4.835294250825047,-1.3440737446732818
1705061836409496800,49.412496826171875,0.3793790736628696,2.2114446077354253,-1.624423740839958
1705061836459936800,49.46293676757813,-0.1870302179616876,-0.31862744864542036,-0.25427829232634974
1705061836510357800,49.51335766601562,0.9518396098840981,-6.225895791786908,-0.6638681789282709
1705061836560772900,49.56377294921875,-0.4029876205263659,-2.6927467998355628,0.8526870156060904
1705061836611218000,49.614218017578125,5.164283628606796,-0.3210114577051252,1.194862695762515
1705061836661634000,49.66463403320312,5.539526808041334,-2.326136570320278,-0.36198910905327647
1705061836712049000,49.715048828125,6.937663420683145,-2.5798250617936254,1.776540448064357
1705061836762482000,49.76548193359375,3.4794524730771776,-2.342957356739789,1.0280622872125358
1705061836812885800,49.8158857421875,3.4078093786239623,3.8616874110952017,-0.9817984025571495
1705061836863312000,49.866311767578125,2.4467067772887647,6.480436954566836,-0.9850267900191247
1705061836913752800,49.9167529296875,0.9432233919039368,4.431472919420898,0.7878498017754405
1705061836964183800,49.96718383789062,0.3378853990839794,1.0010258117269724,1.897342710223049
1705061837014599700,50.017599609375,-1.3810223962336778,-1.0269799718685448,1.164498171832785
1705061837065017900,50.068017822265624,-0.7381179487485439,-3.1554549122333526,0.05872313313083723
1705061837115441000,50.11844091796875,-0.6700066086180507,0.0703917472518282,-1.9933478002555667
1705061837165857800,50.16885791015625,4.143164219334722,-7.232150224882364,-0.4152957152944058
1705061837216289800,50.21928979492188,9.509428802400826,0.6437516388989984,1.7934804769493637
1705061837266705000,50.26970483398438,6.195933784243464,-5.630580120885372,-0.9875713599354028
1705061837317150700,50.320150634765625,3.222752670958638,-5.718842341706156,-0.09908412301852368
1705061837367564800,50.37056469726563,6.28611557494998,5.698831819334626,1.2608825435064732
1705061837417986800,50.42098681640625,0.026298534866143017,3.970767379017174,0.4872289883332327
1705061837468427000,50.471427001953124,1.9708305557601153,4.104953731144964,-0.6170278826244175
1705061837518823000,50.52182299804687,-0.29011333835534747,2.6993027973502874,-2.773674732245505
1705061837569270000,50.57227001953125,1.6415075621098278,-1.8217654911912977,-0.35034028191156685
1705061837619672800,50.6226728515625,-1.1895786909449846,-5.835325279361009,-0.4416409936454147
1705061837670115800,50.67311572265625,0.21369186878548935,0.2737969760603271,0.4724250946940854
1705061837720529000,50.72352880859375,8.024640326744317,-1.3359184952683747,2.7316344566345214
1705061837770955800,50.77395581054687,4.328214789520204,-6.302281112331151,-0.3320852249052375
1705061837821393000,50.82439282226562,4.691948148424923,-3.7057679505869743,1.0328531747508793
1705061837871807700,50.87480786132812,3.092120796442032,0.14617802875726482,0.11126371430237778
1705061837922221800,50.925221923828126,4.1521126649439335,5.4047307995826,-1.2199175689768045
1705061837972668000,50.97566796875,2.2482580886088313,6.797867411980032,-2.5193808222249148
1705061838023065900,51.02606591796875,0.1534508967039175,3.4105133768856524,0.5401851006362587
1705061838073499000,51.07649877929688,0.6924333983510732,-1.5129614078260958,2.9694995021626354
1705061838123913700,51.12691381835938,-0.13814277986967935,-4.334944974558055,1.1693278570115566
1705061838174358800,51.17735888671875,-2.0859949581623076,-1.2984753381893037,-1.264671852786839
1705061838224772900,51.22777294921875,0.14802544672223739,-3.7163594872280954,-1.2780476133190095
1705061838275203800,51.27820385742187,9.836710791742801,-0.19240465927533804,2.315072593861818
1705061838325617700,51.32861767578125,6.11499971435368,-0.6473661030691117,-1.89601643005535
1705061838376053800,51.3790537109375,3.8162095622509717,-4.787047229528427,-0.025164763329550623
1705061838426478800,51.42947875976562,1.935374773105979,1.2228220582466571,-1.2721385354056953
1705061838476880000,51.4798798828125,0.5781783293461427,3.5231071981474753,0.3227524926861748
1705061838527326000,51.530325927734374,1.577195687327534,3.206615190628171,0.7609224857527762
1705061838577740800,51.58074072265625,1.1232440050981938,4.597036698848009,-1.3874103437051175
1705061838628161800,51.631161865234375,0.3079257296280935,2.5586270832031963,-2.714729206801951
1705061838678600700,51.6816005859375,0.8006639829020947,-0.11386160357478074,-0.9277825155355036
1705061838729015800,51.732015869140625,-2.6717154099836944,-6.893421543374657,0.35590065598506476
1705061838779431000,51.782430908203125,6.57735419100821,-0.4670535211909562,0.34338081816248595
1705061838829876000,51.8328759765625,8.757813147240876,-3.6172973477125168,1.3920856420397758
1705061838880291800,51.88329174804687,1.4676003172293304,-1.1214400244161487,-1.4930452857397496
1705061838930698800,51.93369873046875,3.892344415165484,-4.2327682101532815,2.080989697220921
1705061838981147600,51.98414770507812,2.9470965316966176,1.0073766420584171,0.3365434098904952
1705061839031550000,52.03455004882812,3.00953282186538,5.517904174298048,-0.7436862504001707
1705061839081996000,52.08499609375,2.306223809234798,6.039470718377828,-1.9919005240567027
1705061839132412000,52.135411865234374,0.03601371793099679,2.6753657491847873,-0.1249944988172967
1705061839182841900,52.185841796875,1.1678379107147454,-0.5671341900993139,1.3499362069658933
1705061839233246000,52.236245849609375,-0.17824982239576057,-3.4130011020481583,2.240608450638503
1705061839283671800,52.286671875,-1.5544930032625794,-1.6355064219988882,0.5411603754092008
1705061839334088000,52.337087890625,2.6410224578171966,-6.718623194873333,1.5533983398936688
1705061839384533800,52.38753369140625,3.410584688556194,-1.2880834157735108,-0.39483978724293406
1705061839434947800,52.43794775390625,5.216498969012498,-6.294016557332873,1.0235795888405292
1705061839485362700,52.48836279296875,3.8485578804090617,-1.677402320703119,-0.39979985733572393
1705061839535795000,52.538794921875,2.3558554167576133,1.5139422355569898,-0.9406468924794346
1705061839586225000,52.589224853515624,0.9386671899043023,3.4112606881216165,-0.9310694282516837
1705061839636639000,52.63963891601563,1.5951979386165738,4.55001834256351,-0.36086470813322813
1705061839687084800,52.690084716796875,1.2099210756193846,3.72304583312422,-1.9529301574103533
1705061839737500000,52.7405,0.7789013561662286,0.3373542513493448,-0.0500461888062302
1705061839787928800,52.7909287109375,0.5614912157762796,-3.804487560275197,-0.6261739696975797
1705061839838344000,52.84134399414062,-1.777175384967029,-2.716513752131164,-0.5211305272826925
1705061839888772900,52.89177294921875,5.527713036128878,0.8010204681895673,-0.22102522561457008
1705061839939190000,52.94218994140625,8.590397894728182,-0.9170641376443207,0.9845430250901728
1705061839989606000,52.99260595703125,4.765215629209578,-4.186226823730767,-0.15994190269103273
1705061840040052000,53.04305200195312,2.692096226972341,-4.553096727095544,1.7062088746011257
1705061840090467000,53.09346704101562,3.643358256164193,-0.6386386067342013,0.7182787643559276
1705061840140892000,53.14389184570312,3.518546758364141,5.021879483231902,-2.6469746442198754
1705061840191345700,53.194345703125,2.2218540658079085,5.833922426825762,-1.7873736845068633
1705061840241790700,53.244790771484375,0.005021470007381867,3.8863992430254815,0.6035270709404722
1705061840292205800,53.295205810546875,0.5096203048940747,-1.2198182002555578,2.455824880376458
1705061840342621700,53.34562158203125,-2.755248264195025,-3.9320042253807186,-0.5318389683017507
1705061840393066800,53.39606665039062,0.11186954384157434,-2.9606837430223822,1.4856120669990778
1705061840443495000,53.44649487304687,1.868946490691602,-4.115079988361895,-0.7329011639483273
1705061840493910800,53.49691088867188,6.750253427889943,-5.607113905102014,-0.6058507281150669
1705061840544326700,53.54732666015625,6.733143303135037,-3.9207358123913405,-1.210997618809715
1705061840594740700,53.59774072265625,2.921100797435641,0.6868740106582641,-1.921994774790108
1705061840645188900,53.64818896484375,0.7522937005519866,3.0878543711692092,0.028725702647562138
1705061840695588900,53.6985888671875,0.4665344657529145,4.855842533335089,-0.9337306102849543
1705061840746015700,53.749015625,0.9346419529762119,6.260738557109236,-3.1560864881351587
1705061840796448800,53.79944873046875,-1.1482593500196934,4.718329959394038,-2.035208481515944
1705061840846862800,53.84986279296875,1.285547905946523,-4.34151909225136,0.5300877407202497
1705061840897309000,53.90030883789063,-1.5360574751228093,-7.8921011573016635,0.12009203153010457
1705061840947724800,53.950724853515624,3.434947560918331,-1.7913836508005856,-2.6416905663371084
1705061840998138600,54.001138671875,6.57304568015933,0.03527998084594728,1.953479023464769
1705061841048583000,54.0515830078125,5.764353800559044,-1.847180064563453,0.039064597968175074
1705061841099000600,54.10200048828125,4.168734421660006,-3.7684094079390165,0.7828651452306657
1705061841149415700,54.15241577148438,2.664011411477625,-2.43677998816669,0.05107410708186216
1705061841199830800,54.20283081054688,3.097474724690616,2.5857892308950423,-1.209230828332901
1705061841250261800,54.25326171875,3.3045807670786975,7.25806208025217,-2.5843466308712957
1705061841300703700,54.30370385742187,1.3595910472787915,5.586407801681757,-1.634605673766881
1705061841351118800,54.35411889648437,-0.5866118477031588,1.0825106473673134,0.5308278550304472
1705061841401528800,54.40452880859375,-0.28289339703917504,-4.4655248266264795,2.2505518986344337
1705061841451949800,54.45494970703125,-2.110858473522961,-2.5201982760876414,-1.1696258170448244
1705061841502381800,54.5053818359375,5.432067134797573,-5.332460513141751,-0.36551859835367645
1705061841552819700,54.55581982421875,7.301798930647969,-1.4639377030685543,0.29975926470942793
1705061841603224800,54.60622485351563,6.684760672760009,-6.027212709829211,-0.37930823691636323
1705061841653650000,54.65664990234375,3.697101829050481,-2.4823668503433463,-1.6258400373786688
1705061841704085800,54.707085693359375,0.7766430558454245,2.439223874187469,-0.21133480253163725
1705061841754500900,54.7575009765625,1.0935520466677844,4.522923999410867,0.6096857397006824
1705061841804915700,54.807915771484375,2.348953090023249,6.663055036908387,-1.1845775216568262
1705061841855347700,54.85834765625,0.47308936728909606,2.55859230415076,-1.8469484477646647
1705061841905793800,54.908793701171874,0.4934712802562862,-1.9443248261503874,-1.0340478644281625
1705061841956190700,54.959190673828125,1.136745437836647,-5.4731894187808035,-1.5037623484566807
1705061842006622000,55.0096220703125,-2.016010152310133,-2.1921084774941204,0.49436654859557744
1705061842057051600,55.0600517578125,7.828316959655284,-0.33924539885818955,2.5657436372101303
1705061842107466800,55.110466796875,5.969347965359687,-1.0475752353254706,0.5578523112846538
1705061842157911800,55.160911865234375,3.3070953802481293,-5.153419704765081,0.22491863459022715
1705061842208312800,55.21131274414063,3.6699312057912348,-3.3016303928405044,2.6753970211058853
1705061842258760700,55.2617607421875,3.1415184490785,4.6404304348945615,-1.3631008089654146
1705061842309180700,55.3121806640625,2.556128252124786,7.510501886838674,-2.540412212076783
1705061842359590000,55.36258984375,0.6014758374990895,6.061261694425344,-1.6686073120899498
1705061842410004700,55.41300463867187,-0.7858387542139739,1.0957158736381678,1.4566012227006255
1705061842460449800,55.46344970703125,-0.9409720327805727,-2.132300782263279,0.9330475964568555
1705061842510865700,55.51386572265625,0.8903627393320203,-4.144902295173704,2.1325322529315947
1705061842561287700,55.56428759765625,3.455317271991074,-3.5778690081655977,0.20107498206291347
1705061842611724800,55.614724853515625,6.79874945551157,-3.766931736601889,-0.6059746467556804
1705061842662141000,55.66514086914062,7.495801745834946,-5.11192566486001,-0.4131225359737873
1705061842712555500,55.71555541992188,5.454375412717461,-3.430829604205489,-0.6676476244017482
1705061842762984700,55.765984619140625,1.6666890573784707,2.1935342725135385,-2.0161143433369695
1705061842813398800,55.81639868164063,0.6498502480350434,3.9877299119949337,1.0417690332647414
1705061842863838700,55.866838623046874,0.9086488490637391,5.430519320833683,-0.35413371937777843
1705061842914261000,55.917260986328124,1.0004951389163732,5.312588522458076,-2.5391055133923888
1705061842964692700,55.967692626953124,-0.5953395267011597,1.835126638676226,-2.027096340600401
1705061843015107600,56.018107666015624,2.4264812969923018,-4.815813305285573,1.0465898775499314
1705061843065522700,56.068522705078124,-2.381958703046292,-5.380659603643417,-0.9361432243846356
1705061843115967700,56.1189677734375,5.9142298892498015,-2.790733126813173,0.7569925258927047
1705061843166367700,56.16936767578125,6.575771305730939,0.7419374339714646,3.224048848249018
1705061843216796700,56.21979663085938,4.6327007174253465,-3.6347450338587164,0.6404534010712057
1705061843267211800,56.27021166992188,3.4244480864748357,-4.893433720582723,1.719860821726173
1705061843317657600,56.32065771484375,3.1812939946278926,0.12202056104042566,-0.7595138610638678
1705061843368073700,56.37107373046875,3.84800141557008,6.1185536074429745,-0.4105483746368438
1705061843418488800,56.42148876953125,2.5599957412078975,5.719719709062576,-1.4699369434833525
1705061843468908800,56.47190869140625,1.7807941599860786,4.542251215693354,-0.13883411400155163
1705061843519331600,56.52233154296875,-0.7457546541720629,2.2179034284859895,-0.1629792793592438
1705061843569778700,56.57277880859375,0.22469993207193908,-1.3729627161577342,2.5372563783943654
1705061843620193800,56.62319384765625,-1.6651405127622185,-5.622896580645442,1.839556145556271
1705061843670624800,56.67362475585937,-0.6851712983936071,0.14818383388803338,1.0845211834721267
1705061843721040000,56.72403979492187,5.656065275275707,-5.946293837508559,4.203732962065935
1705061843771457800,56.774457763671876,7.772787380135059,-3.6215041517525908,2.0381024493917823
1705061843821900800,56.82490087890625,6.578548369228839,-5.551590755322575,-2.3653829774290323
1705061843872328700,56.87532861328125,4.856807286714017,-1.841394028507918,-1.5654806996144353
1705061843922730800,56.925730712890626,1.9908732268355787,0.4716335424575954,-0.5505062959033995
1705061843973176800,56.9761767578125,1.631765774165839,0.02774207332151709,1.4048216433636844
1705061844023591700,57.026591796875,1.3324996267355977,4.491103504519164,-0.4359937450060621
1705061844074006800,57.0770068359375,-0.3222070241652429,5.943110531297326,-0.9684935153041034
1705061844124420600,57.12742065429688,1.3483010069794952,5.5232209854066365,-1.1499324708636849
1705061844174866700,57.17786669921875,0.6308982948057353,4.064353132948279,0.6496295179564505
1705061844225282600,57.22828247070313,1.354827924530208,-7.236524786704778,1.8910415642522274
1705061844275709700,57.278709716796875,0.37472185897417365,-2.2096831510208546,-0.6628864744145423
1705061844326124500,57.32912451171875,8.27907861367166,1.086460700167343,-0.7343856303524225
1705061844376539600,57.37953955078125,6.783285928919911,-9.72714625517428,5.007004570183158
1705061844426973700,57.4299736328125,4.0879581726804375,-2.101378989776969,2.198767643122375
1705061844477386800,57.48038671875,2.205075218833983,-2.2336669609375295,2.6077456266373393
1705061844527832800,57.530832763671874,2.100518865816295,0.5077630596548318,2.816650535140931
1705061844578248700,57.58124877929688,3.084899320755899,5.583188839635253,0.1601410967912525
1705061844628663800,57.63166381835938,2.3547340115122495,5.949761221358179,-1.4419533964060247
1705061844679110700,57.68211059570312,2.2446958660826084,3.453569843801856,0.4853213646136224
1705061844729523700,57.73252368164062,0.7509295725919306,2.1672978613644838,1.047447809553519
1705061844779938800,57.78293872070312,-0.7337125533964485,0.7549640888050199,1.760216943642497
1705061844830384600,57.833384521484376,-0.5751239467442035,-3.4314772544592618,3.3102801477640864
1705061844880799700,57.8837998046875,1.5116512020103632,1.398941937675327,1.7064304083973167
1705061844931213800,57.9342138671875,3.0826874899253247,-8.131507879313826,0.6936182972867041
1705061844981641700,57.98464184570312,8.377595686525106,-6.953162603110075,-1.0436677064929156
1705061845032058600,58.03505859375,4.673158400020003,-3.097480277648568,-1.0522040641698986
1705061845082503000,58.0855029296875,1.1176755573160946,1.8704982501782477,0.22939820942338554
1705061845132909800,58.135909912109376,1.3049880810841916,3.559166061261296,2.6521400641590356
1705061845183401000,58.18640087890625,1.914322048205137,6.3291539216876025,-0.37495683677382763
1705061845233816800,58.23681689453125,-0.5734728550689294,4.800866788305342,-1.7981801790729164
1705061845284244700,58.28724462890625,-0.7943889212206006,1.0245352821301668,0.22975659440699964
1705061845334664000,58.337663818359374,2.2274377111591397,-5.830644428068399,0.14397566900793463
1705061845385075700,58.38807568359375,-1.6327790428616105,-4.239152065971494,-1.0359130737781523
1705061845435507700,58.4385078125,5.6354988725870845,3.271292829982936,2.6891461449950933
1705061845485921800,58.488921875,7.552891414278745,-5.684159150859713,5.525746704491973
1705061845536349700,58.539349609375,2.044799901203811,-6.447110439026355,2.3604908214733005
1705061845586783000,58.58978295898437,3.047676966820657,-3.1553859386503693,-0.11984413031679578
1705061845637198000,58.64019799804687,4.9182320617526765,4.120376341204345,-0.45160778598431495
1705061845687643600,58.6906435546875,3.1913954096645116,8.20872789711654,-1.8615508274823427
1705061845738041900,58.741041748046875,0.763832893306762,4.917985393515229,-0.6986008349396288
1705061845788487000,58.79148681640625,-1.666247597221285,-0.22136063158139585,2.4391790121324357
1705061845838901800,58.84190185546875,0.06161456198971718,-0.48211891531050205,2.9173154336780307
1705061845889324000,58.892323974609376,0.13815169382849707,-2.297315987896919,0.8570335203777998
1705061845939736800,58.94273681640625,9.225041367411613,-7.231781976091861,6.215690039592981
1705061845990164700,58.993164794921874,5.722679727911949,-5.920210717225075,-3.812316354204714
1705061846040609800,59.04360986328125,7.439646727892756,-6.251779005584121,-0.48486722763795403
1705061846091025000,59.09402490234375,2.7608248952835797,-0.8013936854161322,-0.6172022893432527
1705061846141442800,59.14444287109375,-0.446922514244914,4.29024220173955,2.18362355774343
1705061846191854800,59.194854736328125,1.2255729643899946,6.215588332784176,0.07985656771822833
1705061846242301000,59.245301025390624,-0.24014380411505698,5.2574114096373314,-2.150176338432729
1705061846292715800,59.2957158203125,-0.21396933401999993,2.8005685843899846,-3.0555054684892293
1705061846343131000,59.346130859375,0.4910270289093256,-5.228781527480483,3.0784505830079314
1705061846393577000,59.39657690429687,-3.217114372810721,-5.596572052821517,1.393319567748904
1705061846443975000,59.44697485351563,7.086621225485206,-1.8331753584779797,0.53063266125191
1705061846494418000,59.49741796875,4.675556985594332,-1.7416240329839288,-1.4592040986754
1705061846544835800,59.5478359375,5.281688357281684,-6.301230726495385,-1.1198979826059192
1705061846595251000,59.5982509765625,3.534322419644892,-2.3403058193176984,1.712042841451615
1705061846645695000,59.64869506835937,3.6734883137509224,3.028776451517641,-1.9637594483301042
1705061846696096000,59.699095947265626,2.9657839887708426,6.104824941819906,-3.7283340026602145
1705061846746535000,59.749534912109375,2.471876435989141,3.4300209181711074,-0.23660799467172472
1705061846796958000,59.7999580078125,1.2289482129767537,1.6727401741109786,-0.30131732607269657
1705061846847371800,59.85037182617187,-1.7625022781006991,-1.1328256340444087,0.333704569735378
1705061846897817900,59.90081787109375,-0.9050872841246426,-2.7336484268054364,0.537999719421193
1705061846948233000,59.95123291015625,1.5700968151077628,-6.9385629998713725,1.3766678542859851
1705061846998647800,60.00164770507813,6.2470344414055345,3.5855095860466357,-2.1863502062283455
1705061847049073000,60.052072998046874,9.726823599091171,-5.370595305746793,-1.1033604701071977
1705061847099507700,60.1025078125,5.899689907243848,-3.451348368360102,1.7904452009066938
1705061847149922800,60.1529228515625,2.248625168355554,1.7199997918054462,-2.323440463104099
1705061847200339000,60.2033388671875,2.34941354714185,4.23037430075407,-2.1996568470470605
1705061847250770000,60.25377001953125,0.49420989672914145,3.5668285587131976,-0.9365151264369487
1705061847301181700,60.304181640625,1.2753104434400797,3.1427801395773884,-0.6362283307220786
1705061847351628800,60.35462890625,1.6534252327881753,0.07553545311610214,-1.68263656809479
1705061847402037000,60.405037109375,0.4440815551979467,-3.7107282033428546,-1.0437157103531063
1705061847452458800,60.45545874023438,-1.2692594728380442,-2.328266421955824,-0.61414180579409
1705061847502890000,60.505889892578125,7.748998508268595,-0.5907348093846813,0.08421386787858791
1705061847553305900,60.55630590820312,6.034340954273938,-2.7894492244824765,2.4837691183567046
1705061847603746000,60.60674609375,3.0264915554508565,-2.8368390444278715,-0.21325325817251578
1705061847654168800,60.6571689453125,4.521420901371538,-2.856258322907984,3.7887551536142823
1705061847704580900,60.70758081054687,3.31042335562706,2.1151946030311284,-0.8211995520610362
1705061847755026000,60.75802587890625,4.373950120256841,6.574598754820228,-2.284564496742934
1705061847805441800,60.80844189453125,2.443810179064423,5.740964157143235,-1.381613055603206
1705061847855855900,60.85885595703125,0.28922554093645886,1.466456407891214,0.4155805966503918
1705061847906271000,60.90927099609375,0.23819729142347348,-2.638485340555012,2.0765217580266295
1705061847956701700,60.95970166015625,-0.7692976615186781,-3.255057734496891,1.75675642792508
1705061848007146000,61.01014599609375,0.9762349962763488,-1.1275326422028242,0.15944434669874608
1705061848057560800,61.060560791015625,5.238955130970478,-3.789830381630361,1.750074173682183
1705061848107977000,61.11097705078125,4.965720373636484,-2.8058608455792067,0.1602700569331646
1705061848158420000,61.161419921875,6.221446995684504,-6.029591129398345,-0.7551337462835014
1705061848208821800,61.21182177734375,3.2067373557031154,-1.5574946692965923,-0.5681848316634074
1705061848259251700,61.26225170898437,1.590954601958394,2.948013646541536,1.486473798394948
1705061848309678800,61.31267895507813,2.374216564486921,3.9589316875338554,0.8514213065192103
1705061848360098800,61.363098876953124,2.070262551501393,4.568432827915251,-2.100889014302939
1705061848410514000,61.413513916015624,1.0780523527842014,3.819845288404822,-1.989139827171713
1705061848460957700,61.46395776367188,0.18855759192574767,1.8870406580477952,-0.4467891701888293
1705061848511374800,61.51437475585937,1.9860031365811823,-4.984834823951124,2.038188958631456
1705061848561794800,61.564794921875,-2.0179547105066478,-4.0704932431384915,2.085479263725132
1705061848612234800,61.61523486328125,6.9513429864674805,3.74150006596446,1.2332096698135138
1705061848662649900,61.66564990234375,9.82367712264657,-7.491456994628906,0.29464460684312505
1705061848713064000,61.71606396484375,2.257619645063579,-3.8979640086129304,0.45378224394656713
1705061848763477800,61.76647778320312,5.881069377925992,-2.044577490624785,1.2951511622026561
1705061848813908000,61.81690795898437,3.501373505245149,1.45785180728361,-0.28582778825694694
1705061848864349000,61.86734887695312,3.5507135824754834,7.196473931345343,-1.8224328690588474
1705061848914769000,61.91776879882813,0.854515034750849,3.7373721723794935,0.43192441320791836
1705061848965201000,61.96820092773437,0.7240987757463008,2.358619913034886,1.482848593635112
1705061849015618800,62.01861889648438,1.382349845445156,-2.929083320622146,0.8098552973564713
1705061849066037000,62.069037109375,-1.4105831294998525,-1.3881221452362835,0.5577850912673399
1705061849116460800,62.11946069335937,2.2904710904382166,-1.874327306947112,-1.612123938976228
1705061849166876000,62.1698759765625,10.171824205362796,-2.72418618645519,2.8539100062161684
1705061849217320000,62.22031982421875,7.973210583758354,-3.974805548492074,-2.0254532495684923
1705061849267722000,62.27072192382813,4.203464081996679,-5.24415445317924,-0.40488011974208055
1705061849318167000,62.3211669921875,1.2996493504047393,1.0590425318878143,-1.086942784595862
1705061849368583000,62.3715830078125,1.905793581573665,4.760692891088127,0.4678981187889352
1705061849418996700,62.42199682617188,1.9637255460605023,4.9380146205872295,-0.13607859561517835
1705061849469417000,62.4724169921875,0.7835260933574288,4.299642482769489,-2.4023941728316247
1705061849519837000,62.5228369140625,-0.8434363721799105,1.2252072728827594,-1.3143002454392612
1705061849570287000,62.573287109375,2.9913474690943955,-6.837084739124775,0.7607398957274853
1705061849620690000,62.62368994140625,-2.9142683210670945,-5.292390953081846,1.4289552370145917
1705061849671116800,62.67411669921875,5.58905042514503,0.9142286950226872,0.527958181345649
1705061849721548800,62.724548828125,7.447614345771074,-3.369388754814863,0.7294954471580684
1705061849771974000,62.774973876953126,2.8581995201036334,-4.435047563037276,0.46081992403101174
1705061849822398000,62.82539794921875,4.5460129063144326,-1.869523559927195,1.4989678076565265
1705061849872808000,62.87580786132813,3.2357878013595935,2.776351842500269,-0.9171209823980927
1705061849923245000,62.9262451171875,3.7549130897670984,6.312450039646029,-0.5125699484799057
1705061849973655000,62.97665502929687,0.5814076301235706,4.35037869053334,-0.7468661956105381
1705061850024098800,63.027098876953126,1.401570386482775,0.9520186927780508,1.3713887448392807
1705061850074521900,63.07752197265625,1.4259598545908927,-2.429243162921071,0.9782098765458911
1705061850124944000,63.12794384765625,0.059743178627267475,-3.5550565801158545,1.9055927983045577
1705061850175376000,63.1783759765625,-0.2610974890882149,1.735387184420973,-1.758357579511404
1705061850225812500,63.2288125,2.946618685051799,-5.38416147428453,0.4713424140239134
1705061850276222500,63.27922241210938,5.981548106241226,-1.283170509290695,1.5119821875303983
1705061850326655700,63.32965576171875,7.830043637317418,-5.532344787582755,0.564227581937611
1705061850377070300,63.3800703125,2.024111041179299,-2.545790982505679,-1.4818772643849252
1705061850427517700,63.430517578125,1.6813025430120527,4.73679763623774,-0.45093485515881326
1705061850477917400,63.48091748046875,1.5309563525915144,4.008288131377101,1.0994288297466932
1705061850528363500,63.531363525390624,2.1266388109788297,4.58238536542207,-1.447458131302148
