time,seconds_elapsed,z,y,x
1702755536504607200,0.049607177734375,-0.09470000118017197,-0.03179999813437462,0.035999998450279236
1702755536564605700,0.109605712890625,-0.07369999587535858,0.06229999661445618,-0.33799999952316284
1702755536624605700,0.169605712890625,-0.15519998967647552,0.09319999814033508,-0.2206999957561493
1702755536684605700,0.229605712890625,-0.22369998693466187,0.14649999141693115,-0.30570000410079956
1702755536744605700,0.289605712890625,-0.13249999284744263,0.05469999834895134,0.01209999993443489
1702755536804605700,0.349605712890625,-0.1899999976158142,-0.01599999889731407,0.16210000216960907
1702755536864605700,0.409605712890625,0.25119999051094055,0.11029999703168869,0.2676999866962433
1702755536924605700,0.469605712890625,0.037699997425079346,-0.4587000012397766,0.38009998202323914
1702755536984605700,0.529605712890625,-0.09889999777078629,0.35339999198913574,-0.3308999836444855
1702755537044605700,0.589605712890625,-0.31859999895095825,0.12700000405311584,-0.30239999294281006
1702755537104605700,0.649605712890625,-0.12439999729394913,-0.16429999470710754,-0.4887000024318695
1702755537164605700,0.709605712890625,0.2791000008583069,-0.18159998953342438,-0.37070000171661377
1702755537224605700,0.769605712890625,-0.093299999833107,-0.32330000400543213,-0.3416999876499176
1702755537284605700,0.829605712890625,-0.31119999289512634,-0.03019999898970127,-0.01599999889731407
1702755537344605700,0.889605712890625,0.3243999779224396,0.036399997770786285,0.552299976348877
1702755537404605700,0.949605712890625,-0.044099997729063034,0.5916000008583069,0.05309999734163284
1702755537464605700,1.009605712890625,0.4105999767780304,0.00009999999747378752,0.4397999942302704
1702755537524605700,1.069605712890625,-0.6697999835014343,0.2395000010728836,-0.8984999656677246
1702755537584605700,1.129605712890625,0.0648999959230423,0.5221999883651733,-0.4236999750137329
1702755537644605700,1.189605712890625,0.3427000045776367,-0.5547999739646912,0.7418999671936035
1702755537704605700,1.249605712890625,0.6940999627113342,1.4982999563217163,1.046199917793274
1702755537764605700,1.309605712890625,-1.1446999311447144,-0.06319999694824219,-0.6987000107765198
1702755537824605700,1.369605712890625,0.3555999994277954,-0.6482999920845032,0.10119999945163727
1702755537884605700,1.429605712890625,0.1354999989271164,-0.45089998841285706,0.39100000262260437
1702755537944605700,1.489605712890625,0.5480999946594238,0.3962000012397766,0.5058000087738037
1702755538004605700,1.549605712890625,0.49459999799728394,0.2028999924659729,0.4675999879837036
1702755538064605700,1.609605712890625,-0.27549999952316284,-0.07699999958276749,0.06769999861717224
1702755538124605700,1.669605712890625,1.0489000082015991,-0.03610000014305115,0.8833999633789062
1702755538184605700,1.729605712890625,-0.21199999749660492,0.12429999560117722,-0.007199999876320362
1702755538244605700,1.789605712890625,-0.8287000060081482,0.05849999934434891,-0.18479999899864197
1702755538304605700,1.849605712890625,0.1363999992609024,0.09059999883174896,0.3734000027179718
1702755538364605700,1.909605712890625,-0.3928999900817871,0.3765999972820282,-0.33879998326301575
1702755538424605700,1.969605712890625,-0.44929999113082886,0.09429999440908432,0.8111000061035156
1702755538484605700,2.029605712890625,0.18969999253749847,-0.33249998092651367,0.6347999572753906
1702755538544605700,2.089605712890625,-0.08469999581575394,-0.08739999681711197,0.7299000024795532
1702755538604605700,2.149605712890625,0.13009999692440033,-0.020499998703598976,0.2683999836444855
1702755538664605700,2.209605712890625,-0.3249000012874603,-0.09769999980926514,-1.2422000169754028
1702755538724605700,2.269605712890625,-0.6190999746322632,-0.005499999970197678,-0.9394999742507935
1702755538784605700,2.329605712890625,0.22179999947547913,-0.4998999834060669,-0.6013999581336975
1702755538844605700,2.389605712890625,0.01489999983459711,-0.03240000084042549,0.2687999904155731
1702755538904605700,2.449605712890625,0.24319998919963837,-0.12879998981952667,1.2263000011444092
1702755538964605700,2.509605712890625,0.13030000030994415,-0.2638999819755554,0.1973000019788742
1702755539024605700,2.569605712890625,-0.6538999676704407,-0.07689999788999557,0.8118000030517578
1702755539084605700,2.629605712890625,-0.5260999798774719,0.08060000091791153,0.085999995470047
1702755539144605700,2.689605712890625,-0.04490000009536743,0.3434999883174896,0.5855000019073486
1702755539204605700,2.749605712890625,0.09489999711513519,0.13259999454021454,-0.2157999873161316
1702755539264605700,2.809605712890625,0.039400000125169754,0.06929999589920044,0.06960000097751617
1702755539324605700,2.869605712890625,-0.447299987077713,-0.11029999703168869,-0.42159998416900635
1702755539384605700,2.929605712890625,-0.10080000013113022,-0.06830000132322311,-0.04600000008940697
1702755539444605700,2.989605712890625,-0.09600000083446503,-0.19979999959468842,0.171999990940094
1702755539504605700,3.049605712890625,0.003000000026077032,0.16359999775886536,-0.2992999851703644
1702755539564605700,3.109605712890625,-0.3042999804019928,-0.15719999372959137,-0.12879998981952667
1702755539624605700,3.169605712890625,-0.08859999477863312,-0.20250000059604645,-0.9150999784469604
1702755539684605700,3.229605712890625,-0.13220000267028809,-0.35510000586509705,-0.7209999561309814
1702755539744605700,3.289605712890625,0.5353999733924866,0.0008999999845400453,0.6759999990463257
1702755539804605700,3.349605712890625,-0.2515999972820282,0.021699998527765274,0.4717999994754791
1702755539864605700,3.409605712890625,-0.0543999969959259,-0.002899999963119626,0.5095999836921692
1702755539924605700,3.469605712890625,-0.44209998846054077,0.12359999865293503,0.536899983882904
1702755539984605700,3.529605712890625,-0.15779998898506165,0.10979999601840973,0.3714999854564667
1702755540044605700,3.589605712890625,-0.33059999346733093,0.34619998931884766,-0.243599995970726
1702755540104605700,3.649605712890625,0.1297999918460846,-0.15119999647140503,0.2606000006198883
1702755540164605700,3.709605712890625,0.002899999963119626,-0.25999999046325684,0.13449999690055847
1702755540224605700,3.769605712890625,-0.05549999698996544,-0.1509999930858612,-0.03869999945163727
1702755540284605700,3.829605712890625,-0.021900000050663948,-0.21709999442100525,0.020899999886751175
1702755540344605700,3.889605712890625,0.0017999999690800905,0.2069000005722046,-0.5554999709129333
1702755540404605700,3.949605712890625,-0.6509999632835388,0.06419999897480011,-0.9839999675750732
1702755540464605700,4.009605712890625,-0.5861999988555908,-0.14479999244213104,-0.8721999526023865
1702755540524605700,4.069605712890625,0.15680000185966492,-0.08469999581575394,-0.09149999916553497
1702755540584605700,4.129605712890625,0.4690999984741211,-0.06759999692440033,0.7139999866485596
1702755540644605700,4.189605712890625,-0.1014999970793724,-0.3199999928474426,0.5174999833106995
1702755540704605700,4.249605712890625,-0.30809998512268066,-0.08259999752044678,0.5580999851226807
1702755540764605700,4.309605712890625,-0.024000000208616257,0.031099999323487282,0.6038999557495117
1702755540824605700,4.369605712890625,-0.4732999801635742,0.2777000069618225,-0.18869999051094055
1702755540884605700,4.429605712890625,0.07499999552965164,0.0843999981880188,0.24210000038146973
1702755540944605700,4.489605712890625,-0.22349999845027924,0.007499999832361937,-0.09539999812841415
1702755541004605700,4.549605712890625,-0.12870000302791595,-0.06749999523162842,0.019199999049305916
1702755541064605700,4.609605712890625,-0.13539999723434448,-0.0851999968290329,-0.06239999830722809
1702755541124605700,4.669605712890625,-0.010799999348819256,-0.15079998970031738,-0.1533999890089035
1702755541184605700,4.729605712890625,-0.20009998977184296,-0.037699997425079346,-0.4521999955177307
1702755541244605700,4.789605712890625,-0.15079998970031738,-0.14810000360012054,-0.31709998846054077
1702755541304605700,4.849605712890625,-0.10929999500513077,-0.16499999165534973,-0.5173999667167664
1702755541364605700,4.909605712890625,0.013700000010430813,0.0616999976336956,-0.25920000672340393
1702755541424605700,4.969605712890625,0.40619999170303345,-0.012899999506771564,0.5821999907493591
1702755541484605700,5.029605712890625,-0.1711999922990799,-0.15349999070167542,0.19339999556541443
1702755541544605700,5.089605712890625,-0.23510000109672546,-0.1907999962568283,0.5083999633789062
1702755541604605700,5.149605712890625,-0.42149999737739563,0.08959999680519104,0.529699981212616
1702755541664605700,5.209605712890625,-0.0697999969124794,0.1013999953866005,0.4389999806880951
1702755541724605700,5.269605712890625,-0.25349998474121094,0.2786000072956085,0.0731000006198883
1702755541784605700,5.329605712890625,0.22929999232292175,0.14019998908042908,-0.10449999570846558
1702755541844605700,5.389605712890625,-0.5148999691009521,0.20089998841285706,-0.17629998922348022
1702755541904605700,5.449605712890625,-0.03280000016093254,-0.4496999979019165,0.07159999758005142
1702755541964605700,5.509605712890625,-0.219200000166893,-0.1460999995470047,-0.0429999977350235
1702755542024605700,5.569605712890625,-0.33009999990463257,-0.26170000433921814,-0.22739998996257782
1702755542084605700,5.629605712890625,-0.011899999342858791,-0.12520000338554382,-0.23510000109672546
1702755542144605700,5.689605712890625,-0.15629999339580536,0.2198999971151352,-0.4763999879360199
1702755542204605700,5.749605712890625,-0.3617999851703644,-0.19829998910427094,-0.30570000410079956
1702755542264605700,5.809605712890625,-0.006599999964237213,-0.12039999663829803,-0.24729999899864197
1702755542324605700,5.869605712890625,0.14829999208450317,-0.05089999735355377,0.8662999868392944
1702755542384605700,5.929605712890625,-0.011299999430775642,-0.1437000036239624,-0.11959999799728394
1702755542444605700,5.989605712890625,-0.06539999693632126,-0.000699999975040555,0.30159997940063477
1702755542504605700,6.049605712890625,-0.3756999969482422,-0.044599998742341995,0.4204999804496765
1702755542564605700,6.109605712890625,-0.5011999607086182,0.015799999237060547,0.46480000019073486
1702755542624605700,6.169605712890625,0.46879997849464417,0.3937000036239624,-0.022599998861551285
1702755542684605700,6.229605712890625,-0.21599999070167542,-0.04089999943971634,-0.029500000178813934
1702755542744605700,6.289605712890625,0.18789999186992645,0.05649999901652336,0.20340000092983246
1702755542804605700,6.349605712890625,-0.1550000011920929,-0.3132999837398529,-0.2694999873638153
1702755542864605700,6.409605712890625,-0.24169999361038208,-0.13740000128746033,0.025699999183416367
1702755542924605700,6.469605712890625,-0.00009999999747378752,0.010099999606609344,-0.2256999909877777
1702755542984605700,6.529605712890625,0.022699998691678047,-0.051500000059604645,-0.1939999908208847
1702755543044605700,6.589605712890625,0.07180000096559525,-0.12789998948574066,-0.23989999294281006
1702755543104605700,6.649605712890625,-0.35169997811317444,-0.20639999210834503,-0.46719998121261597
1702755543164605700,6.709605712890625,0.16509999334812164,-0.12849999964237213,-0.20389999449253082
1702755543224605700,6.769605712890625,0.32359999418258667,0.07660000026226044,0.3425000011920929
1702755543284605700,6.829605712890625,-0.11769999563694,-0.06790000200271606,-0.016999999061226845
1702755543344605700,6.889605712890625,-0.08410000056028366,0.053999997675418854,0.5370000004768372
1702755543404605700,6.949605712890625,-0.41990000009536743,-0.09950000047683716,0.3971000015735626
1702755543464605700,7.009605712890625,-0.34700000286102295,0.14339999854564667,0.41439998149871826
1702755543524605700,7.069605712890625,-0.029199998825788498,0.3552999794483185,0.13120000064373016
1702755543584605700,7.129605712890625,-0.10289999842643738,0.014099999330937862,0.10529999434947968
1702755543644605700,7.189605712890625,-0.13729999959468842,-0.12109999358654022,-0.016999999061226845
1702755543704605700,7.249605712890625,-0.046799998730421066,-0.07750000059604645,-0.093299999833107
1702755543764605700,7.309605712890625,-0.14059999585151672,-0.1339000016450882,-0.025599999353289604
1702755543824605700,7.369605712890625,0.2450999915599823,-0.09179999679327011,0.03199999779462814
1702755543884605700,7.429605712890625,0.4967999756336212,-0.07819999754428864,-0.4205999970436096
1702755543944605700,7.489605712890625,0.07750000059604645,-0.24879999458789825,-0.6384999752044678
1702755544004605700,7.549605712890625,-0.6912999749183655,-0.1225999966263771,-0.4813999831676483
1702755544064605700,7.609605712890625,-0.48409998416900635,-0.10619999468326569,-0.604200005531311
1702755544124605700,7.669605712890625,-0.09359999746084213,0.08069999516010284,0.250900000333786
1702755544184605700,7.729605712890625,-0.002300000051036477,0.0575999990105629,0.4077000021934509
1702755544244605700,7.789605712890625,-0.15299999713897705,-0.12860000133514404,0.33399999141693115
1702755544304605700,7.849605712890625,-0.008799999952316284,-0.06079999729990959,0.9345999956130981
1702755544364605700,7.909605712890625,-0.18279999494552612,0.01850000023841858,0.41339999437332153
1702755544424605700,7.969605712890625,-0.495199978351593,0.29260000586509705,0.2645999789237976
1702755544484605700,8.029605712890625,-0.046299997717142105,0.044599998742341995,0.08549999445676804
1702755544544605700,8.089605712890625,-0.25689998269081116,0.10449999570846558,-0.26080000400543213
1702755544604605700,8.149605712890626,-0.17000000178813934,0.0064999996684491634,-0.10119999945163727
1702755544664605700,8.209605712890625,-0.0786999985575676,-0.04399999976158142,0.0013000000035390258
1702755544724605700,8.269605712890625,0.0009999999310821295,-0.1673000007867813,-0.22949999570846558
1702755544784605700,8.329605712890626,0.125,-0.19449999928474426,-0.01850000023841858
1702755544844605700,8.389605712890624,-0.260699987411499,-0.2029999941587448,-0.7110999822616577
1702755544904605700,8.449605712890625,-0.042399998754262924,-0.09129999577999115,-0.5467000007629395
1702755544964605700,8.509605712890625,-0.3148999810218811,-0.149399995803833,-0.6769999861717224
1702755545024605700,8.569605712890626,-0.06369999796152115,-0.025499999523162842,0.25
1702755545084605700,8.629605712890625,-0.22939999401569366,-0.02459999918937683,0.0876999944448471
1702755545144605700,8.689605712890625,0.13519999384880066,-0.004699999932199717,0.6019999980926514
1702755545204605700,8.749605712890625,-0.24899999797344208,-0.03199999779462814,0.626800000667572
1702755545264605700,8.809605712890624,-0.11389999836683273,0.13300000131130219,0.7039999961853027
1702755545324605700,8.869605712890625,0.08419999480247498,0.17389999330043793,0.3537999987602234
1702755545384605700,8.929605712890625,-0.14169999957084656,0.1655000001192093,0.03849999979138374
1702755545444605700,8.989605712890626,-0.13769999146461487,-0.18519999086856842,-0.07880000025033951
1702755545504605700,9.049605712890624,-0.06399999558925629,0.049799997359514236,0.047599997371435165
1702755545564605700,9.109605712890625,-0.2705000042915344,0.16509999334812164,-0.24650000035762787
1702755545624605700,9.169605712890625,0.08479999750852585,-0.16269999742507935,-0.1354999989271164
1702755545684605700,9.229605712890624,-0.29919999837875366,-0.12619999051094055,-0.8764999508857727
1702755545744605700,9.289605712890625,-0.7884999513626099,-0.08169999718666077,-0.723800003528595
1702755545804605700,9.349605712890625,0.10189999639987946,-0.22989998757839203,-0.44749999046325684
1702755545864605700,9.409605712890626,0.3398999869823456,-0.11149999499320984,0.4664999842643738
1702755545924605700,9.469605712890624,0.22689999639987946,-0.1973000019788742,0.16030000150203705
1702755545984605700,9.529605712890625,0.01269999984651804,-0.11209999769926071,0.3310999870300293
1702755546044605700,9.589605712890625,-0.3450999855995178,-0.05909999832510948,0.4251999855041504
1702755546104605700,9.649605712890626,0.10040000081062317,0.30059999227523804,0.20999999344348907
1702755546164605700,9.709605712890625,0.05119999870657921,0.1419999897480011,0.36890000104904175
1702755546224605700,9.769605712890625,-0.3172999918460846,-0.08349999785423279,-0.05350000038743019
1702755546284605700,9.829605712890626,0.29189997911453247,0.01809999905526638,0.5008000135421753
1702755546344605700,9.889605712890624,-0.5133000016212463,-0.1404999941587448,-0.3986999988555908
1702755546404605700,9.949605712890625,0.05249999836087227,0.09189999848604202,0.1655000001192093
1702755546464605700,10.009605712890625,-0.060099996626377106,-0.23559999465942383,-0.46469998359680176
1702755546524605700,10.069605712890626,-0.10459999740123749,-0.027300000190734863,-0.09559999406337738
1702755546584605700,10.129605712890625,-0.10649999976158142,0.08320000022649765,-0.25200000405311584
1702755546644605700,10.189605712890625,-0.0050999997183680534,-0.0575999990105629,-0.25949999690055847
1702755546704605700,10.249605712890625,-0.10700000077486038,-0.10689999908208847,-0.09359999746084213
1702755546764605700,10.309605712890624,0.0064999996684491634,-0.16489998996257782,0.06309999525547028
1702755546824605700,10.369605712890625,0.08619999885559082,-0.06859999895095825,0.015799999237060547
1702755546884605700,10.429605712890625,-0.17149999737739563,0.14389999210834503,-0.06969999521970749
1702755546944605700,10.489605712890626,-0.11999999731779099,-0.05989999696612358,-0.4526999890804291
1702755547004605700,10.549605712890624,-0.3790999948978424,-0.18019999563694,-0.40219998359680176
1702755547064605700,10.609605712890625,0.24639999866485596,-0.43449997901916504,0.2856999933719635
1702755547124605700,10.669605712890625,-0.05419999733567238,0.01589999906718731,0.29330000281333923
1702755547184605700,10.729605712890624,0.271699994802475,0.03350000083446503,0.271699994802475
1702755547244605700,10.789605712890625,0.016599999740719795,0.04399999976158142,0.6841999888420105
1702755547304605700,10.849605712890625,0.17790000140666962,-0.055399999022483826,0.399399995803833
1702755547364605700,10.909605712890626,-0.2784000039100647,0.08299999684095383,0.07989999651908875
1702755547424605700,10.969605712890624,0.10459999740123749,0.05159999802708626,0.28459998965263367
1702755547484605700,11.029605712890625,-0.22699999809265137,0.18969999253749847,-0.009099999442696571
1702755547544605700,11.089605712890625,0.22199998795986176,0.22499999403953552,-0.10099999606609344
1702755547604605700,11.149605712890626,-0.07660000026226044,-0.3369999825954437,-0.30069997906684875
1702755547664605700,11.209605712890625,-0.3245999813079834,-0.24279999732971191,-0.299699991941452
1702755547724605700,11.269605712890625,-0.36039999127388,-0.04019999876618385,-0.4781999886035919
1702755547784605700,11.329605712890626,0.17899999022483826,-0.11779999732971191,0.007999999448657036
1702755547844605700,11.389605712890624,0.1256999969482422,-0.028699999675154686,0.07909999787807465
1702755547904605700,11.449605712890625,-0.07829999923706055,0.007899999618530273,0.13699999451637268
1702755547964605700,11.509605712890625,0.04490000009536743,0.011099999770522118,0.08729999512434006
1702755548024605700,11.569605712890626,-0.2142999917268753,-0.09189999848604202,-0.1127999946475029
1702755548084605700,11.629605712890625,0.09279999881982803,0.008299999870359898,0.07270000129938126
1702755548144605700,11.689605712890625,-0.05419999733567238,-0.17479999363422394,0.11169999837875366
1702755548204605700,11.749605712890625,-0.009099999442696571,-0.12700000405311584,0.12789998948574066
1702755548264605700,11.809605712890624,0.03189999982714653,-0.16859999299049377,0.01809999905526638
1702755548324605700,11.869605712890625,-0.10449999570846558,-0.021800000220537186,-0.1590999960899353
1702755548384605700,11.929605712890625,-0.04609999805688858,-0.22089999914169312,-0.004600000102072954
1702755548444605700,11.989605712890626,-0.3511999845504761,-0.024299999698996544,-0.043699998408555984
1702755548504605700,12.049605712890624,-0.1412999927997589,-0.20430000126361847,-0.04739999771118164
1702755548564605700,12.109605712890625,-0.037299998104572296,0.06889999657869339,-0.14810000360012054
1702755548624605700,12.169605712890625,-0.04559999704360962,-0.05989999696612358,0.059699997305870056
1702755548684605700,12.229605712890624,-0.06949999928474426,-0.10489999502897263,0.05570000037550926
1702755548744605700,12.289605712890625,0.023799998685717583,-0.07989999651908875,0.13449999690055847
1702755548804605700,12.349605712890625,0.003999999724328518,0.09749999642372131,-0.1589999943971634
1702755548864605700,12.409605712890626,0.008700000122189522,-0.04209999740123749,-0.05590000003576279
1702755548924605700,12.469605712890624,-0.10099999606609344,0.11299999803304672,-0.12219999730587006
1702755548984605700,12.529605712890625,-0.07609999924898148,0.24609999358654022,-0.0568000003695488
1702755549044605700,12.589605712890625,-0.1363999992609024,-0.06209999695420265,0.4712999761104584
1702755549104607200,12.649607177734374,-0.15459999442100525,-0.028199998661875725,0.18469999730587006
1702755549164605700,12.709605712890625,0.04939999803900719,-0.22129999101161957,-0.06909999996423721
1702755549224605700,12.769605712890625,0.6358000040054321,0.0284000001847744,0.4838999807834625
1702755549284605700,12.829605712890626,0.08999999612569809,0.02369999885559082,-0.08289999514818192
1702755549344605700,12.889605712890624,0.5385000109672546,-0.3351999819278717,-0.09179999679327011
1702755549404605700,12.949605712890625,-0.3527999818325043,-0.30730000138282776,0.17009998857975006
1702755549464605700,13.009605712890625,-0.031199999153614044,-0.43639999628067017,-0.11050000041723251
1702755549524605700,13.069605712890626,-0.4405999779701233,-0.07459999620914459,-0.6384999752044678
1702755549584605700,13.129605712890625,-0.4526999890804291,0.06949999928474426,-0.7062999606132507
1702755549644605700,13.189605712890625,-0.5083000063896179,0.006599999964237213,-0.48829999566078186
1702755549704605700,13.249605712890625,0.19189999997615814,-0.07449999451637268,0.6746000051498413
1702755549764605700,13.309605712890624,0.20430000126361847,-0.31839999556541443,0.8223999738693237
1702755549824605700,13.369605712890625,0.2061999887228012,-0.09869999438524246,0.5034999847412109
1702755549884605700,13.429605712890625,-0.07919999957084656,0.05179999768733978,0.35519999265670776
1702755549944605700,13.489605712890626,-0.036399997770786285,0.1151999980211258,0.15139999985694885
1702755550004605700,13.549605712890624,-0.07769999653100967,0.049300000071525574,0.4790000021457672
1702755550064605700,13.609605712890625,0.15639999508857727,-0.0811999961733818,0.6780999898910522
1702755550124605700,13.669605712890625,-0.05460000038146973,-0.06439999490976334,-0.2696000039577484
1702755550184605700,13.729605712890624,-0.385699987411499,-0.09609999507665634,-0.3431999981403351
1702755550244605700,13.789605712890625,-0.2955999970436096,-0.12529999017715454,-0.6954999566078186
1702755550304605700,13.849605712890625,-0.8228999972343445,-0.00969999935477972,-1.6338999271392822
1702755550364605700,13.909605712890626,-0.6721000075340271,-0.2369999885559082,-0.5055999755859375
1702755550424605700,13.969605712890624,0.28779998421669006,-0.34880000352859497,0.5889999866485596
1702755550484605700,14.029605712890625,0.3630000054836273,-0.13409999012947083,1.6382999420166016
1702755550544605700,14.089605712890625,0.02579999901354313,-0.15649999678134918,0.5385000109672546
1702755550604607200,14.149607177734374,0.120899997651577,0.00930000003427267,0.4576999843120575
1702755550664605700,14.209605712890625,-0.053999997675418854,0.1225999966263771,0.21769998967647552
1702755550724605700,14.269605712890625,-0.3849000036716461,0.053700000047683716,-0.10759999603033066
1702755550784605700,14.329605712890626,0,0.015799999237060547,-0.04859999939799309
1702755550844605700,14.389605712890624,-0.04259999841451645,-0.012899999506771564,-0.07580000162124634
1702755550904605700,14.449605712890625,-0.03689999878406525,-0.08299999684095383,0.1046999990940094
1702755550964605700,14.509605712890625,-0.49390000104904175,-0.05700000002980232,0.31939998269081116
1702755551024605700,14.569605712890626,-0.03269999846816063,-0.04129999876022339,-0.2304999977350235
1702755551084605700,14.629605712890625,0.06469999998807907,-0.0023999998811632395,0.031599998474121094
1702755551144605700,14.689605712890625,-0.4301999807357788,0.2248999923467636,-0.04600000008940697
1702755551204605700,14.749605712890625,-0.11140000075101852,0.1251000016927719,-0.0885000005364418
1702755551264605700,14.809605712890624,-0.1306999921798706,0.08709999918937683,-0.15689998865127563
1702755551324605700,14.869605712890625,-0.2924000024795532,-0.2572999894618988,-0.05249999836087227
1702755551384605700,14.929605712890625,0.041600000113248825,-0.7394999861717224,0.16049998998641968
1702755551444605700,14.989605712890626,0.4423999786376953,-0.47939997911453247,-0.06889999657869339
1702755551504605700,15.049605712890624,0.20629999041557312,-0.18449999392032623,-0.273499995470047
1702755551564605700,15.109605712890625,0.21449999511241913,-0.04429999738931656,-0.10639999806880951
1702755551624605700,15.169605712890625,-0.002899999963119626,-0.17919999361038208,0.07930000126361847
1702755551684605700,15.229605712890624,-0.15809999406337738,-0.35420000553131104,0.010799999348819256
1702755551744605700,15.289605712890625,-0.08449999988079071,-0.21389999985694885,-0.00839999970048666
1702755551804605700,15.349605712890625,0.013599999248981476,0.16429999470710754,-0.12809999287128448
1702755551864605700,15.409605712890626,0.002199999988079071,0.19419999420642853,-0.039000000804662704
1702755551924605700,15.469605712890624,0.26579999923706055,-0.06030000001192093,0.15060000121593475
1702755551984605700,15.529605712890625,-0.8562999963760376,-0.07649999856948853,0.05929999798536301
1702755552044605700,15.589605712890625,1.545699954032898,-0.14909999072551727,-0.2540999948978424
