time,seconds_elapsed,z,y,x
1702685209218220800,0.046220703125,-0.10539999604225159,-0.0471000000834465,0.016300000250339508
1702685209278219300,0.10621923828125,-0.05609999969601631,0.0340999998152256,0.09849999845027924
1702685209338219300,0.16621923828125,0.02969999983906746,0.11479999870061874,-0.11719999462366104
1702685209398219300,0.22621923828125,-0.025699999183416367,-0.25999999046325684,0.2809000015258789
1702685209458219300,0.28621923828125,-0.04169999808073044,0.008999999612569809,-0.34689998626708984
1702685209518219300,0.34621923828125,-0.14999999105930328,-0.045399997383356094,-0.1039000004529953
1702685209578219300,0.40621923828125,-0.17219999432563782,0.1363999992609024,-0.07090000063180923
1702685209638219300,0.46621923828125,-0.2514999806880951,0.20069999992847443,-0.2685999870300293
1702685209698219300,0.52621923828125,-0.24079999327659607,0.1216999962925911,-0.03739999979734421
1702685209758219300,0.58621923828125,-0.1972000002861023,0.23739999532699585,-0.3895999789237976
1702685209818219300,0.64621923828125,-0.7583000063896179,0.05469999834895134,-0.3628999888896942
1702685209878219300,0.70621923828125,-0.2572999894618988,0.12429999560117722,0.13759998977184296
1702685209938219300,0.76621923828125,-0.055399999022483826,0.06509999930858612,0.43149998784065247
1702685209998219300,0.82621923828125,1.167199969291687,-0.7020999789237976,1.8037999868392944
1702685210058219300,0.88621923828125,0.8994999527931213,-0.23070000112056732,1.4498999118804932
1702685210118219300,0.94621923828125,0.19849999248981476,-0.2443999946117401,0.6001999974250793
1702685210178219300,1.00621923828125,0.0364999994635582,0.09769999980926514,-0.299699991941452
1702685210238219300,1.06621923828125,-0.4950999915599823,0.07369999587535858,0.1005999967455864
1702685210298219300,1.12621923828125,-0.29409998655319214,0.21779999136924744,0.6933000087738037
1702685210358219300,1.18621923828125,-0.10979999601840973,0.2797999978065491,0.07750000059604645
1702685210418219300,1.24621923828125,-0.5467000007629395,-0.021199999377131462,-0.4350999891757965
1702685210478219300,1.30621923828125,-0.3325999975204468,-0.014699999243021011,-0.5182999968528748
1702685210538219300,1.36621923828125,-0.22369998693466187,-0.007699999958276749,-0.2248999923467636
1702685210598219300,1.42621923828125,0.3245999813079834,-0.15209999680519104,0.11429999768733978
1702685210658219300,1.48621923828125,0.08069999516010284,-0.24699999392032623,-0.49049997329711914
1702685210718219300,1.54621923828125,-0.15639999508857727,-0.2644999921321869,-0.31439998745918274
1702685210778219300,1.60621923828125,-0.09649999439716339,0.1216999962925911,-0.3246999979019165
1702685210838219300,1.66621923828125,0.3495999872684479,0.05089999735355377,-0.33730000257492065
1702685210898219300,1.72621923828125,0.5339999794960022,-0.6809999942779541,0.4553000032901764
1702685210958219300,1.78621923828125,-1.1230000257492065,0.39640000462532043,-0.17389999330043793
1702685211018219300,1.84621923828125,-0.786300003528595,-0.0004999999655410647,0.9132999777793884
1702685211078219300,1.90621923828125,-0.0429999977350235,0.30699998140335083,0.4957999885082245
1702685211138219300,1.96621923828125,0.10049999505281448,-0.033900000154972076,1.048799991607666
1702685211198219300,2.02621923828125,0.3253999948501587,0.02709999866783619,0.49049997329711914
1702685211258219300,2.08621923828125,0.2622999846935272,0.07149999588727951,0.15619999170303345
1702685211318219300,2.14621923828125,-0.24639999866485596,-0.2874999940395355,-0.41019999980926514
1702685211378219300,2.20621923828125,-0.3693999946117401,-0.18150000274181366,0.540399968624115
1702685211438219300,2.26621923828125,0.32889997959136963,0.06129999831318855,0.5051999688148499
1702685211498219300,2.32621923828125,0.23429998755455017,0.07580000162124634,0.4075999855995178
1702685211558219300,2.38621923828125,-0.7028999924659729,0.14880000054836273,-0.3958999812602997
1702685211618219300,2.44621923828125,-0.3546999990940094,0.07490000128746033,-0.5898000001907349
1702685211678219300,2.50621923828125,-0.43129998445510864,-0.007400000002235174,-0.674299955368042
1702685211738219300,2.56621923828125,-0.38769999146461487,0.010499999858438969,-0.4544000029563904
1702685211798219300,2.62621923828125,-0.21859999001026154,-0.08329999446868896,-0.5156999826431274
1702685211858219300,2.68621923828125,-0.23649999499320984,-0.17229999601840973,-0.2806999981403351
1702685211918219300,2.74621923828125,0.004600000102072954,-0.060499999672174454,0.4027999937534332
1702685211978219300,2.80621923828125,0.15919999778270721,-0.0494999997317791,0.39569997787475586
1702685212038219300,2.86621923828125,0.17019999027252197,-0.3791999816894531,0.2092999964952469
1702685212098219300,2.92621923828125,0.05169999971985817,-0.056699998676776886,-0.11639999598264694
1702685212158219300,2.98621923828125,-0.2451999932527542,-0.028299998492002487,0.0364999994635582
1702685212218219300,3.04621923828125,-0.43949997425079346,0.09789999574422836,-0.42819997668266296
1702685212278219300,3.10621923828125,-0.5648999810218811,0.16920000314712524,0.2061000019311905
1702685212338219300,3.16621923828125,0.027300000190734863,-0.035099998116493225,0.7168999910354614
1702685212398219300,3.22621923828125,0.3628000020980835,-0.06520000100135803,1.2489999532699585
1702685212458219300,3.28621923828125,-0.08069999516010284,0.06499999761581421,0.6383000016212463
1702685212518219300,3.34621923828125,0.03610000014305115,0.1817999929189682,0.7910999655723572
1702685212578219300,3.40621923828125,-0.14459998905658722,0.1517999917268753,0.28329998254776
1702685212638219300,3.46621923828125,-0.9292999505996704,0.20709998905658722,-0.5486999750137329
1702685212698219300,3.52621923828125,0.25439998507499695,0.011599999852478504,0.1876000016927719
1702685212758219300,3.58621923828125,-0.3114999830722809,-0.03909999877214432,-0.09929999709129333
1702685212818219300,3.64621923828125,-0.4919999837875366,-0.21949999034404755,-0.3743000030517578
1702685212878219300,3.70621923828125,-0.02319999970495701,-0.11219999939203262,0.30489999055862427
1702685212938219300,3.76621923828125,-0.6341999769210815,0.07859999686479568,-1.1339999437332153
1702685212998219300,3.82621923828125,-0.412200003862381,-0.15479999780654907,-0.5277999639511108
1702685213058219300,3.88621923828125,-0.5941999554634094,0.05309999734163284,-0.7364000082015991
1702685213118219300,3.94621923828125,-0.40219998359680176,0.0908999964594841,-0.3880999982357025
1702685213178219300,4.00621923828125,-0.6675999760627747,-0.021900000050663948,-0.7886999845504761
1702685213238219300,4.06621923828125,0.1542000025510788,0.07739999890327454,0.7811999917030334
1702685213298219300,4.12621923828125,0.2954999804496765,-0.6764000058174133,1.0174999237060547
1702685213358219300,4.18621923828125,0.9269999861717224,-0.03189999982714653,1.4670000076293945
1702685213418219300,4.24621923828125,0.09959999471902847,-0.17549999058246613,0.36409997940063477
1702685213478219300,4.30621923828125,0.07400000095367432,0.04189999774098396,0.3806999921798706
1702685213538219300,4.36621923828125,-0.18789999186992645,-0.06759999692440033,-0.053599998354911804
1702685213598219300,4.42621923828125,-0.2793000042438507,-0.22699999809265137,-0.1111999973654747
1702685213658219300,4.48621923828125,-0.11769999563694,0.10369999706745148,0.37449997663497925
1702685213718219300,4.54621923828125,0.2777000069618225,0.09969999641180038,0.5863999724388123
1702685213778219300,4.60621923828125,0.11129999905824661,0.3164999783039093,0.35019999742507935
1702685213838219300,4.66621923828125,-0.651699960231781,0.1826999932527542,0.06350000202655792
1702685213898219300,4.72621923828125,-0.4952999949455261,-0.17729999125003815,-0.19699999690055847
1702685213958219300,4.78621923828125,-0.3423999845981598,-0.17799998819828033,0.10329999774694443
1702685214018219300,4.84621923828125,-0.023399999365210533,0.23829999566078186,-0.1938999891281128
1702685214078219300,4.90621923828125,-0.35169997811317444,-0.2773999869823456,-0.97489994764328
1702685214138219300,4.96621923828125,0.03909999877214432,0.014999999664723873,-0.680899977684021
1702685214198219300,5.02621923828125,-0.06749999523162842,0.05570000037550926,-0.5812999606132507
1702685214258219300,5.08621923828125,-0.06909999996423721,0.16820000112056732,-0.25669997930526733
1702685214318219300,5.14621923828125,-0.4139999747276306,0.13300000131130219,0.06549999862909317
1702685214378219300,5.20621923828125,-1.2791999578475952,0.12759999930858612,0.11389999836683273
1702685214438219300,5.26621923828125,0.8295999765396118,0.053599998354911804,0.6132999658584595
1702685214498219300,5.32621923828125,0.13429999351501465,-0.3564999997615814,0.4558999836444855
1702685214558219300,5.38621923828125,0.34599998593330383,-0.2263999879360199,1.1806999444961548
1702685214618219300,5.44621923828125,0.8664000034332275,-0.6060000061988831,0.6644999980926514
1702685214678219300,5.50621923828125,0.3102000057697296,-0.15469999611377716,-0.011099999770522118
1702685214738219300,5.56621923828125,0.0007999999797903001,-0.030499998480081558,-0.015599999576807022
1702685214798219300,5.62621923828125,0.01860000006854534,0.1753999888896942,1.0444999933242798
1702685214858219300,5.68621923828125,-0.10859999805688858,0.30629998445510864,0.511900007724762
1702685214918219300,5.74621923828125,-0.46369999647140503,0.2035999894142151,0.11679999530315399
1702685214978219300,5.80621923828125,-0.3546999990940094,0.016599999740719795,0.1501999944448471
1702685215038219300,5.86621923828125,-0.405599981546402,0.0568000003695488,-0.3677999973297119
1702685215098219300,5.92621923828125,-0.10740000009536743,0.32839998602867126,-0.1784999966621399
1702685215158219300,5.98621923828125,-0.43379998207092285,-0.11180000007152557,-0.7247999906539917
1702685215218219300,6.04621923828125,-0.47079998254776,-0.1850999891757965,-0.6067000031471252
1702685215278219300,6.10621923828125,-0.2574000060558319,-0.23959998786449432,-0.40359997749328613
1702685215338219300,6.16621923828125,-0.21059998869895935,-0.14299999177455902,-0.1509999930858612
1702685215398219300,6.22621923828125,-0.44429999589920044,-0.001500000013038516,-0.4643999934196472
1702685215458219300,6.28621923828125,-0.3003000020980835,-0.007400000002235174,-0.1973000019788742
1702685215518219300,6.34621923828125,0.04919999837875366,-0.06780000030994415,0.39629998803138733
1702685215578219300,6.40621923828125,-1.0199999809265137,0.4397999942302704,0.11539999395608902
1702685215638219300,6.46621923828125,-0.48989999294281006,0.3594000041484833,1.0519999265670776
1702685215698219300,6.52621923828125,0.20649999380111694,0.036399997770786285,0.9551999568939209
1702685215758219300,6.58621923828125,0.33969998359680176,0.027799999341368675,1.055999994277954
1702685215818219300,6.64621923828125,0.4535999894142151,-0.2239999920129776,0.9681999683380127
1702685215878219300,6.70621923828125,0.2630999982357025,-0.29009997844696045,0.41009998321533203
1702685215938219300,6.76621923828125,0.028199998661875725,-0.13339999318122864,0.06759999692440033
1702685215998219300,6.82621923828125,-0.3865000009536743,-0.3188000023365021,0.289000004529953
1702685216058219300,6.88621923828125,0.39809998869895935,-0.0916999951004982,1.1208000183105469
1702685216118219300,6.94621923828125,-0.976699948310852,-0.06149999797344208,0.4147999882698059
1702685216178219300,7.00621923828125,-0.7450000047683716,0.4065999984741211,-1.2906999588012695
1702685216238219300,7.06621923828125,-0.6259999871253967,0.15770000219345093,-0.34599998593330383
1702685216298219300,7.12621923828125,-0.6444000005722046,-0.2352999895811081,-0.8795999884605408
1702685216358219300,7.18621923828125,-0.05219999700784683,-0.10449999570846558,-0.4778999984264374
1702685216418219300,7.24621923828125,-0.11989999562501907,-0.16899999976158142,-0.035999998450279236
1702685216478219300,7.30621923828125,-0.04490000009536743,-0.04179999977350235,0.1428000032901764
1702685216538219300,7.36621923828125,-0.12409999966621399,0.1394999921321869,-0.249099999666214
1702685216598219300,7.42621923828125,-0.13289999961853027,-0.18199999630451202,0.32199999690055847
1702685216658219300,7.48621923828125,0.01249999925494194,-0.06759999692440033,0.3836999833583832
1702685216718219300,7.54621923828125,-0.24929998815059662,0.33709999918937683,0.5151999592781067
1702685216778219300,7.60621923828125,-0.1046999990940094,0.2786000072956085,0.896399974822998
1702685216838219300,7.66621923828125,0.023799998685717583,-0.07039999961853027,-0.06279999762773514
1702685216898219300,7.72621923828125,0.2287999987602234,-0.5932999849319458,0.12969999015331268
1702685216958220800,7.786220703125,0.1013999953866005,-0.3630000054836273,0.3208000063896179
1702685217018219300,7.84621923828125,0.033399999141693115,-0.14499999582767487,-0.11759999394416809
1702685217078219300,7.90621923828125,-0.1451999992132187,-0.1648000031709671,0.12700000405311584
1702685217138219300,7.96621923828125,-0.05900000035762787,0.11539999395608902,0.29409998655319214
1702685217198219300,8.02621923828125,0.03689999878406525,-0.2515999972820282,0.11949999630451202
1702685217258219300,8.08621923828125,-0.2922999858856201,-0.11019999533891678,0.13419999182224274
1702685217318219300,8.14621923828125,-0.12629999220371246,-0.22949999570846558,0.19709999859333038
1702685217378219300,8.20621923828125,-0.24319998919963837,-0.1087999939918518,-0.018400000408291817
1702685217438219300,8.26621923828125,-0.09589999914169312,-0.14579999446868896,0.1744999885559082
1702685217498219300,8.32621923828125,-0.21539999544620514,-0.1501999944448471,0.12280000001192093
1702685217558219300,8.38621923828125,-0.1988999992609024,-0.16290000081062317,0.5978999733924866
1702685217618219300,8.44621923828125,-0.376800000667572,0.31929999589920044,0.29490000009536743
1702685217678219300,8.50621923828125,-0.5837000012397766,0.816100001335144,0.8233000040054321
1702685217738219300,8.56621923828125,-0.4818999767303467,0.49799999594688416,-0.3050000071525574
1702685217798219300,8.62621923828125,-0.43369999527931213,0.03579999879002571,-0.5144000053405762
1702685217858219300,8.68621923828125,-1.4083999395370483,-0.6843000054359436,-2.325399875640869
1702685217918219300,8.74621923828125,0.06849999725818634,-0.4997999966144562,0.15969999134540558
1702685217978219300,8.80621923828125,0.8285999894142151,-0.9124999642372131,-0.5087999701499939
1702685218038219300,8.86621923828125,0.31189998984336853,-0.6985999941825867,-0.4007999897003174
1702685218098219300,8.92621923828125,0.5636999607086182,-0.1589999943971634,0.8903999924659729
1702685218158219300,8.98621923828125,0.2728999853134155,0.25380000472068787,0.4934999942779541
1702685218218219300,9.04621923828125,-0.13300000131130219,0.2712000012397766,0.592799961566925
1702685218278219300,9.10621923828125,-0.31379997730255127,-0.10799999535083771,0.27219998836517334
1702685218338219300,9.16621923828125,-0.2449999898672104,-0.18859998881816864,0.4684999883174896
1702685218398219300,9.22621923828125,-0.23229999840259552,-0.20549999177455902,0.015199999324977398
1702685218458219300,9.28621923828125,-0.03579999879002571,0.04899999871850014,0.10559999942779541
1702685218518219300,9.34621923828125,-0.012799999676644802,0.03319999948143959,-0.1832999885082245
1702685218578219300,9.40621923828125,-0.020600000396370888,0.010300000198185444,0.014499999582767487
1702685218638219300,9.46621923828125,-0.09869999438524246,0.07180000096559525,0.042899999767541885
