time,seconds_elapsed,z,y,x
1702758034299242500,0.035242431640625,-0.39629998803138733,0.17099998891353607,0.5946999788284302
1702758034359242500,0.095242431640625,-0.2563000023365021,0.2872999906539917,-0.13259999454021454
1702758034419241000,0.155240966796875,-0.07840000092983246,0.26569998264312744,-0.26019999384880066
1702758034479241000,0.215240966796875,-0.17350000143051147,-0.09669999778270721,-0.05719999969005585
1702758034539242500,0.275242431640625,-0.08089999854564667,-0.028599999845027924,-0.12860000133514404
1702758034599241000,0.335240966796875,0.2574000060558319,-0.008599999360740185,-0.37929999828338623
1702758034659241000,0.395240966796875,-0.09319999814033508,0.08619999885559082,-0.4693000018596649
1702758034719241000,0.455240966796875,-0.28039997816085815,0.05570000037550926,-0.10619999468326569
1702758034779241000,0.515240966796875,0.3147999942302704,0.047199998050928116,0.8255999684333801
1702758034839241000,0.575240966796875,0.33390000462532043,-0.1216999962925911,0.23729999363422394
1702758034899241000,0.635240966796875,0.07569999992847443,-0.005499999970197678,-0.2295999974012375
1702758034959242500,0.695242431640625,-0.5401999950408936,0.3994999825954437,-0.4407999813556671
1702758035019241000,0.755240966796875,-1.7002999782562256,0.5375999808311462,-1.4721999168395996
1702758035079241000,0.815240966796875,-3.0112998485565186,0.3686999976634979,-0.9836999773979187
1702758035139241000,0.875240966796875,-0.04389999806880951,-1.0016000270843506,2.6085000038146973
1702758035199241000,0.935240966796875,0.5101000070571899,0.33789998292922974,3.4368999004364014
1702758035259241000,0.995240966796875,1.1066999435424805,-0.7109000086784363,1.668299913406372
1702758035319241000,1.055240966796875,1.073699951171875,0.06759999692440033,2.1750998497009277
1702758035379241000,1.115240966796875,-0.30879998207092285,-0.2085999995470047,0.3798999786376953
1702758035439241000,1.175240966796875,-0.6850999593734741,0.11459999531507492,-0.9480999708175659
1702758035499241000,1.235240966796875,-1.3801000118255615,-0.21469999849796295,-1.3306000232696533
1702758035559241000,1.295240966796875,-0.5288999676704407,0.22579999268054962,-1.260200023651123
1702758035619241000,1.355240966796875,-1.271399974822998,0.3646000027656555,-1.2192999124526978
1702758035679241000,1.415240966796875,-0.05790000036358833,0.07599999755620956,-0.3549000024795532
1702758035739241000,1.475240966796875,-1.108799934387207,0.6098999977111816,-1.1608999967575073
1702758035799241000,1.535240966796875,-1.5760999917984009,0.5403000116348267,-1.222100019454956
1702758035859242500,1.595242431640625,-1.789699912071228,-0.09809999912977219,0.6362999677658081
1702758035919241000,1.655240966796875,2.263000011444092,-0.14000000059604645,3.6484999656677246
1702758035979241000,1.715240966796875,0.2741999924182892,-0.24219998717308044,2.1594998836517334
1702758036039241000,1.775240966796875,0.7405999898910522,0.010599999688565731,1.9401999711990356
1702758036099241000,1.835240966796875,0.5544999837875366,-0.17159999907016754,0.5924999713897705
1702758036159242500,1.895242431640625,-0.9438999891281128,-0.06300000101327896,-0.8521999716758728
1702758036219241000,1.955240966796875,0.4465999901294708,-0.8703999519348145,-1.074199914932251
1702758036279241000,2.015240966796875,0.43149998784065247,-0.4235000014305115,-0.7910999655723572
1702758036339241000,2.075240966796875,0.31439998745918274,0.7736999988555908,-0.19569998979568481
1702758036399241000,2.135240966796875,-3.0028998851776123,0.19509999454021454,-1.5236999988555908
1702758036459242500,2.195242431640625,0.14389999210834503,0.4729999899864197,-0.49309998750686646
1702758036519241000,2.255240966796875,-0.5157999992370605,0.827299952507019,-0.12889999151229858
1702758036579281700,2.31528173828125,-1.090499997138977,0.4145999848842621,-1.1854000091552734
1702758036639241000,2.375240966796875,-2.234799861907959,0.6736999750137329,0.03989999741315842
1702758036699241000,2.435240966796875,-0.05069999769330025,0.05179999768733978,2.5460000038146973
1702758036759242500,2.495242431640625,0.053700000047683716,-0.32359999418258667,2.3564999103546143
1702758036819241000,2.555240966796875,1.747999906539917,-1.0203999280929565,2.052000045776367
1702758036879241000,2.615240966796875,1.3650999069213867,-0.7073999643325806,1.5292999744415283
1702758036939241000,2.675240966796875,-0.13699999451637268,0.21799999475479126,0.8307999968528748
1702758036999241000,2.735240966796875,-0.8107999563217163,-0.3675999939441681,-0.7664999961853027
1702758037059241000,2.795240966796875,-1.3443999290466309,-0.18689998984336853,-2.4175000190734863
1702758037119241000,2.855240966796875,-0.46050000190734863,0.6671000123023987,-0.32089999318122864
1702758037179241000,2.915240966796875,0.1096000000834465,-0.2595999836921692,-0.1753999888896942
1702758037239241000,2.975240966796875,-0.7220999598503113,-0.3003999888896942,-1.1292999982833862
1702758037299241000,3.035240966796875,-0.8065999746322632,0.03480000048875809,-1.5740000009536743
1702758037359241000,3.095240966796875,-1.6754999160766602,0.4836999773979187,-1.2077000141143799
1702758037419241000,3.155240966796875,-1.5597000122070312,0.8105999827384949,-0.3807999789714813
1702758037479241000,3.215240966796875,-2.071699857711792,0.7109999656677246,1.6270999908447266
1702758037539241000,3.275240966796875,2.7316999435424805,0.18889999389648438,5.037099838256836
1702758037599241000,3.335240966796875,0.6417999863624573,0.31929999589920044,2.0506999492645264
1702758037659241000,3.395240966796875,-0.727899968624115,0.13040000200271606,0.5733000040054321
1702758037719241000,3.455240966796875,-1.278499960899353,-0.4512999951839447,-0.9418999552726746
1702758037779241000,3.515240966796875,-0.36629998683929443,-0.4108999967575073,-0.6581000089645386
1702758037839241000,3.575240966796875,1.0769000053405762,0.35169997811317444,1.7035999298095703
1702758037899241000,3.635240966796875,-0.5209000110626221,-0.4567999839782715,-0.8590999841690063
1702758037959241000,3.695240966796875,0.0754999965429306,-0.5741999745368958,-1.546199917793274
1702758038019241000,3.755240966796875,-0.23680000007152557,-0.6643999814987183,-0.8836999535560608
1702758038079241000,3.815240966796875,-0.376800000667572,-1.147499918937683,-0.5325999855995178
1702758038139241000,3.875240966796875,-0.4721999764442444,-0.4642999768257141,-1.3758000135421753
1702758038199241000,3.935240966796875,-1.542699933052063,0.2696000039577484,-0.8015999794006348
1702758038259242500,3.995242431640625,-1.5417999029159546,0.5394999980926514,-0.3946000039577484
1702758038319241000,4.055240966796875,-1.7013999223709106,1.4191999435424805,1.0440999269485474
1702758038379241000,4.115240966796875,0.5665000081062317,0.8946999907493591,2.908099889755249
1702758038439241000,4.175240966796875,1.3041999340057373,0.3319999873638153,2.384999990463257
1702758038499241000,4.235240966796875,0.22679999470710754,-0.13699999451637268,1.128999948501587
1702758038559242500,4.295242431640625,-0.015399999916553497,-0.1356000006198883,1.0221999883651733
1702758038619241000,4.355240966796875,-1.397499918937683,-0.6290000081062317,-0.9202999472618103
1702758038679241000,4.415240966796875,0.42409998178482056,-0.10700000077486038,-1.6864999532699585
1702758038739241000,4.475240966796875,-0.22929999232292175,-0.09139999747276306,-0.48969998955726624
1702758038799241000,4.535240966796875,-0.24479998648166656,-0.5507999658584595,-0.8682999610900879
1702758038859242500,4.595242431640625,-0.26749998331069946,-0.7387999892234802,-0.8205999732017517
1702758038919241000,4.655240966796875,0.27230000495910645,-0.4746999740600586,-0.725600004196167
1702758038979241000,4.715240966796875,-0.47749999165534973,0.4258999824523926,-0.6301000118255615
1702758039039241000,4.775240966796875,-0.9699999690055847,0.6821999549865723,-0.8348999619483948
1702758039099241000,4.835240966796875,-2.901599884033203,0.4633999764919281,0.3910999894142151
1702758039159294200,4.895294189453125,-0.3122999966144562,1.2745999097824097,1.0329999923706055
1702758039219241000,4.955240966796875,0.5509999990463257,0.2930999994277954,2.3387999534606934
1702758039279241000,5.015240966796875,0.1410999894142151,-0.5282999873161316,0.6137999892234802
1702758039339241000,5.075240966796875,-0.2101999968290329,-0.5047000050544739,1.0712000131607056
1702758039399241000,5.135240966796875,0.3619000017642975,-0.6747999787330627,1.1223000288009644
1702758039459241000,5.195240966796875,0.3310000002384186,-0.4608999788761139,-0.10809999704360962
1702758039519241000,5.255240966796875,-0.29269999265670776,-0.30709999799728394,-1.055899977684021
1702758039579281700,5.31528173828125,-1.035599946975708,-0.09039999544620514,-0.7791999578475952
1702758039639241000,5.375240966796875,-0.24469999969005585,-0.41839998960494995,-1.191100001335144
1702758039699241000,5.435240966796875,-0.1331000030040741,-0.29189997911453247,-0.9172999858856201
1702758039759241000,5.495240966796875,0.22669999301433563,-0.10199999809265137,-0.46369999647140503
1702758039819241000,5.555240966796875,0.5532999634742737,-0.10939999669790268,-0.2320999950170517
1702758039879241000,5.615240966796875,-1.4129999876022339,0.615399956703186,-0.3779999911785126
1702758039939241000,5.675240966796875,-2.589400053024292,1.1791999340057373,-0.20989999175071716
1702758039999241000,5.735240966796875,-2.3359999656677246,1.6646000146865845,0.7421999573707581
1702758040059242500,5.795242431640625,1.180799961090088,0.08709999918937683,1.9711999893188477
1702758040119241000,5.855240966796875,0.798799991607666,-0.5796999931335449,1.4057999849319458
1702758040179241000,5.915240966796875,0.5837999582290649,-0.820099949836731,0.19749999046325684
1702758040239241000,5.975240966796875,-0.3376999795436859,-0.45329999923706055,0.2102999985218048
1702758040299241000,6.035240966796875,0.6865999698638916,-0.973800003528595,-0.34459999203681946
1702758040359241000,6.095240966796875,-0.5782999992370605,-0.1598999947309494,-0.2775999903678894
1702758040419241000,6.155240966796875,1.4742000102996826,-0.7709999680519104,-0.09019999951124191
1702758040479241000,6.215240966796875,-0.31919997930526733,-0.4502999782562256,-1.1725000143051147
1702758040539241000,6.275240966796875,-1.6324999332427979,0.22139999270439148,-1.3457000255584717
1702758040599241000,6.335240966796875,-0.2441999912261963,0.487199991941452,-0.8458999991416931
1702758040659242500,6.395242431640625,-0.7236999869346619,1.678299903869629,0.13779999315738678
1702758040719241000,6.455240966796875,0.16599999368190765,-0.2683999836444855,1.990299940109253
1702758040779242500,6.515242431640625,0.28949999809265137,0.33249998092651367,0.026399999856948853
1702758040839241000,6.575240966796875,0.25349998474121094,-0.4332999885082245,-0.0348999984562397
1702758040899241000,6.635240966796875,-0.3955000042915344,-0.15519998967647552,0.5277999639511108
1702758040959242500,6.695242431640625,-0.26010000705718994,-0.32409998774528503,-0.05480000004172325
1702758041019241000,6.755240966796875,0.054099999368190765,-0.39229997992515564,0.04749999940395355
1702758041079241000,6.815240966796875,-0.5352999567985535,0.1597999930381775,-0.7411999702453613
1702758041139241000,6.875240966796875,-0.12219999730587006,0.1770000010728836,0.17459999024868011
1702758041199241000,6.935240966796875,0.25699999928474426,-0.17799998819828033,-0.3091000020503998
1702758041259241000,6.995240966796875,-0.02369999885559082,-0.11209999769926071,-0.3325999975204468
1702758041319241000,7.055240966796875,-0.31689998507499695,0.0429999977350235,0.9677000045776367
1702758041379241000,7.115240966796875,-0.0348999984562397,0.38839998841285706,0.4350999891757965
1702758041439241000,7.175240966796875,0.5992000102996826,0.9693999886512756,-0.1468999981880188
1702758041499241000,7.235240966796875,-0.20600000023841858,0.5331999659538269,-0.4366999864578247
1702758041559242500,7.295242431640625,-0.19179999828338623,-0.5735999941825867,-0.39959999918937683
1702758041619241000,7.355240966796875,0.12870000302791595,-0.6527000069618225,0.12049999833106995
1702758041679241000,7.415240966796875,0.19380000233650208,-0.40209999680519104,-0.34790000319480896
1702758041739241000,7.475240966796875,-0.17629998922348022,-0.39649999141693115,-0.9287999868392944
1702758041799241000,7.535240966796875,-0.28029999136924744,-0.6635000109672546,-0.9896000027656555
1702758041859241000,7.595240966796875,-0.24069999158382416,-0.5898999571800232,-0.05289999768137932
1702758041919241000,7.655240966796875,-0.39149999618530273,-0.5658000111579895,0.2329999953508377
1702758041979241000,7.715240966796875,-0.580299973487854,-0.6274999976158142,-0.00559999980032444
1702758042039241000,7.775240966796875,0.1096000000834465,-0.20659999549388885,0.3312000036239624
1702758042099241000,7.835240966796875,0.09529999643564224,0.34689998626708984,0.1825999915599823
1702758042159242500,7.895242431640625,0.35519999265670776,0.4998999834060669,0.0965999960899353
1702758042219241000,7.955240966796875,0.44029998779296875,0.3903999924659729,0.531499981880188
1702758042279241000,8.015240966796876,-0.060099996626377106,0.14749999344348907,0.1508999913930893
1702758042339241000,8.075240966796875,0.026200000196695328,-0.012000000104308128,0.11859999597072601
1702758042399241000,8.135240966796875,-0.15919999778270721,-0.09730000048875809,-0.13120000064373016
1702758042459241000,8.195240966796876,-0.016999999061226845,-0.1370999962091446,-0.2538999915122986
1702758042519241000,8.255240966796874,0.09279999881982803,-0.11759999394416809,-0.11969999969005585
1702758042579278600,8.315278564453125,-0.01489999983459711,-0.0625,-0.12269999831914902
1702758042639241000,8.375240966796875,-0.12469999492168427,-0.14479999244213104,0.05790000036358833
1702758042699241000,8.435240966796876,-0.0746999979019165,-0.11840000003576279,-0.10119999945163727
1702758042759242500,8.495242431640625,-0.1339000016450882,0.020099999383091927,-0.09380000084638596
1702758042819241000,8.555240966796875,0.0729999989271164,-0.02239999920129776,-0.21939998865127563
1702758042879241000,8.615240966796875,-0.002899999963119626,-0.17479999363422394,0.004699999932199717
1702758042939241000,8.675240966796874,-0.1160999983549118,-0.1565999984741211,0.007799999788403511
1702758042999241000,8.735240966796875,-1.2063000202178955,-0.020899999886751175,-0.0819999948143959
