time,seconds_elapsed,z,y,x
1702300163467733200,0.039733154296875,2.45770001411438,-0.4355999827384949,0.25519999861717224
1702300163527731700,0.099731689453125,0.17469999194145203,-0.3601999878883362,-0.677299976348877
1702300163587731700,0.159731689453125,0.1241999939084053,-0.16619999706745148,-2.3187999725341797
1702300163647731700,0.219731689453125,-0.08219999819993973,-0.708899974822998,-0.9347999691963196
1702300163707731700,0.279731689453125,-2.360299825668335,-0.6265000104904175,1.4534999132156372
1702300163767731700,0.339731689453125,0.1946999877691269,0.7973999977111816,6.552000045776367
1702300163827731700,0.399731689453125,0.4066999852657318,0.439300000667572,0.9390999674797058
1702300163887731700,0.459731689453125,-0.37959998846054077,-0.8026999831199646,-0.3262999951839447
1702300163947731700,0.519731689453125,0.011599999852478504,-1.5233999490737915,0.09769999980926514
1702300164007731700,0.579731689453125,-0.019999999552965164,-2.572199821472168,1.7275999784469604
1702300164067731700,0.639731689453125,0.9889999628067017,-1.9375998973846436,0.7371000051498413
1702300164127731700,0.699731689453125,-1.0864999294281006,0.7134999632835388,0.31599998474121094
1702300164187731700,0.759731689453125,0.4820999801158905,-1.1092000007629395,0.6732000112533569
1702300164247731700,0.819731689453125,-2.916100025177002,-1.1507999897003174,1.1291999816894531
1702300164307731700,0.879731689453125,0.1054999977350235,0.23929999768733978,0.674299955368042
1702300164367731700,0.939731689453125,-0.01719999872148037,-5.812099933624268,2.666100025177002
1702300164427731700,0.999731689453125,-6.498299598693848,-6.076399803161621,3.6782000064849854
1702300164487731700,1.059731689453125,-1.937999963760376,-8.133699417114258,1.6136999130249023
1702300164547731700,1.119731689453125,-1.0231000185012817,-7.1016998291015625,-5.557799816131592
1702300164607731700,1.179731689453125,-0.3976999819278717,-2.4133999347686768,-0.06729999929666519
1702300164667731700,1.239731689453125,1.3966999053955078,-0.7981999516487122,-11.50059986114502
1702300164727731700,1.299731689453125,4.4355998039245605,3.2015998363494873,-13.694499969482422
1702300164787731700,1.359731689453125,3.612799882888794,2.855299949645996,-7.8572998046875
1702300164847731700,1.419731689453125,16.309200286865234,3.044600009918213,7.293399810791016
1702300164907731700,1.479731689453125,4.7342000007629395,-1.3125,0.05570000037550926
1702300164967731700,1.539731689453125,3.318699836730957,-0.3955000042915344,-3.794600009918213
1702300165027731700,1.599731689453125,-11.76509952545166,-1.8127999305725098,-2.4064998626708984
1702300165087731700,1.659731689453125,34.946998596191406,1.698699951171875,10.101900100708008
1702300165147731700,1.719731689453125,-4.900099754333496,-3.7307000160217285,-0.4773999750614166
1702300165207731700,1.779731689453125,-1.8029999732971191,0.23389999568462372,1.4462000131607056
1702300165267731700,1.839731689453125,1.233299970626831,0.7878999710083008,-1.8358999490737915
1702300165327731700,1.899731689453125,-0.7059999704360962,0.22049999237060547,-0.39149999618530273
1702300165387733200,1.959733154296875,0.2840999960899353,-1.5108000040054321,-4.055500030517578
1702300165447731700,2.019731689453125,-0.6739999651908875,-0.17249999940395355,-1.3016999959945679
1702300165507731700,2.079731689453125,1.7024999856948853,3.7370998859405518,8.211799621582031
1702300165567731700,2.139731689453125,1.642799973487854,3.57069993019104,3.3028998374938965
1702300165627733200,2.199733154296875,2.565999984741211,7.2953996658325195,3.694399833679199
1702300165687731700,2.259731689453125,-0.8396999835968018,3.6905999183654785,4.050600051879883
1702300165747731700,2.319731689453125,4.023600101470947,-8.683599472045898,-6.775300025939941
1702300165807731700,2.379731689453125,2.3202998638153076,-0.3357999920845032,2.4138998985290527
1702300165867731700,2.439731689453125,1.378600001335144,0.7592999935150146,-3.5224997997283936
1702300165927731700,2.499731689453125,1.0821999311447144,-0.026999998837709427,0.15330000221729279
1702300165987731700,2.559731689453125,0.7325999736785889,-0.03219999745488167,-1.3144999742507935
1702300166047731700,2.619731689453125,1.5247999429702759,0.4285999834537506,-1.8449000120162964
1702300166107731700,2.679731689453125,1.1227999925613403,-2.8917999267578125,0.18969999253749847
1702300166167731700,2.739731689453125,-0.7263999581336975,-0.9043999910354614,-1.7034999132156372
1702300166227731700,2.799731689453125,-1.0699999332427979,-1.4671999216079712,-0.4431999921798706
1702300166287731700,2.859731689453125,-1.5770999193191528,0.5814999938011169,1.1065000295639038
1702300166347731700,2.919731689453125,-0.0674000009894371,0.4503999948501587,1.4498999118804932
1702300166407731700,2.979731689453125,-1.6119999885559082,2.3217999935150146,2.099900007247925
1702300166467731700,3.039731689453125,2.7899999618530273,0.9861999750137329,-1.4692000150680542
1702300166527731700,3.099731689453125,1.6538000106811523,1.6030999422073364,-1.417799949645996
1702300166587731700,3.159731689453125,0.7347999811172485,-0.9809999465942383,0.19029998779296875
1702300166647731700,3.219731689453125,-1.2531999349594116,-2.11329984664917,0.10449999570846558
1702300166707731700,3.279731689453125,-4.433399677276611,-2.787299871444702,0.04519999772310257
1702300166767731700,3.339731689453125,-3.3056998252868652,0.9562999606132507,1.170799970626831
1702300166827731700,3.399731689453125,-0.6054999828338623,1.1984000205993652,-1.1574000120162964
1702300166887731700,3.459731689453125,-1.4901999235153198,-0.9083999991416931,-2.2166998386383057
1702300166947731700,3.519731689453125,-1.8502999544143677,0.1875,5.5727996826171875
1702300167007731700,3.579731689453125,1.3292999267578125,-0.5151999592781067,-3.687999963760376
1702300167067731700,3.639731689453125,0.1500999927520752,-0.3392999768257141,1.8977999687194824
1702300167127731700,3.699731689453125,3.344599962234497,-3.5075998306274414,1.2702000141143799
1702300167187731700,3.759731689453125,3.9694998264312744,-1.246399998664856,-3.0947999954223633
1702300167247731700,3.819731689453125,1.3607999086380005,-1.1187000274658203,-3.3558998107910156
1702300167307731700,3.879731689453125,3.1942999362945557,-3.0541000366210938,-2.9970998764038086
1702300167367731700,3.939731689453125,-4.114999771118164,-2.748800039291382,-4.1331000328063965
1702300167427731700,3.999731689453125,-4.126100063323975,0.8098999857902527,6.207699775695801
1702300167487731700,4.059731689453125,2.970899820327759,0.4424999952316284,0.16009999811649323
1702300167547731700,4.119731689453125,-3.70419979095459,2.210399866104126,0.7421000003814697
1702300167607731700,4.179731689453125,-5.426699638366699,-2.1033999919891357,2.0539000034332275
1702300167667731700,4.239731689453125,2.391700029373169,-1.589900016784668,3.6459999084472656
1702300167727731700,4.299731689453125,0.502299964427948,-1.0562000274658203,0.5913999676704407
1702300167787731700,4.359731689453125,0.9407999515533447,0.053700000047683716,0.863599956035614
1702300167847731700,4.419731689453125,1.8193999528884888,0.004100000020116568,0.1428000032901764
1702300167907731700,4.479731689453125,1.2602999210357666,0.7038999795913696,-3.3801000118255615
1702300167967731700,4.539731689453125,1.763700008392334,0.15969999134540558,3.0800998210906982
1702300168027731700,4.599731689453125,-1.7136999368667603,-2.140199899673462,0.6473000049591064
1702300168087731700,4.659731689453125,4.288000106811523,-2.5906999111175537,-4.531899929046631
1702300168147731700,4.719731689453125,-6.264999866485596,-0.8651999831199646,1.6607999801635742
1702300168207731700,4.779731689453125,-1.2388999462127686,0.5396000146865845,1.0108000040054321
1702300168267731700,4.839731689453125,-0.43719998002052307,-0.9149999618530273,-3.125200033187866
1702300168327731700,4.899731689453125,-1.4006999731063843,0.7734000086784363,2.875499963760376
1702300168387731700,4.959731689453125,0.6814000010490417,0.2043999880552292,-0.42249998450279236
1702300168447731700,5.019731689453125,-2.5563998222351074,-0.1622999906539917,-1.3061000108718872
1702300168507731700,5.079731689453125,3.3585000038146973,-0.4657000005245209,0.7929999828338623
1702300168567731700,5.139731689453125,2.45770001411438,-1.1068999767303467,-1.3106999397277832
1702300168627731700,5.199731689453125,0.571399986743927,1.949299931526184,2.248800039291382
1702300168687731700,5.259731689453125,1.6973999738693237,-1.00819993019104,-2.029399871826172
1702300168747731700,5.319731689453125,2.6634998321533203,-1.95579993724823,-4.225899696350098
1702300168807731700,5.379731689453125,3.23829984664917,-1.4408999681472778,-1.2696999311447144
1702300168867731700,5.439731689453125,1.5231999158859253,-1.2038999795913696,-1.3422999382019043
1702300168927731700,5.499731689453125,-2.495699882507324,-4.406499862670898,-1.45579993724823
1702300168987733200,5.559733154296875,0.824400007724762,-1.6424999237060547,0.05649999901652336
1702300169047731700,5.619731689453125,-3.806199789047241,1.027999997138977,0.9204999804496765
1702300169107731700,5.679731689453125,-3.1887998580932617,1.9287999868392944,1.5443999767303467
1702300169167731700,5.739731689453125,-2.728600025177002,0.45619997382164,0.374099999666214
1702300169227731700,5.799731689453125,-0.2919999957084656,0.5846999883651733,3.679299831390381
1702300169287731700,5.859731689453125,4.815799713134766,-1.8898999691009521,-0.25699999928474426
1702300169347731700,5.919731689453125,0.8416999578475952,0.8727999925613403,-2.5383999347686768
1702300169407731700,5.979731689453125,4.535799980163574,-1.468400001525879,0.4748999774456024
1702300169467731700,6.039731689453125,-11.266999244689941,-1.881500005722046,-2.123999834060669
1702300169527731700,6.099731689453125,-1.424799919128418,-0.31619998812675476,4.942899703979492
1702300169587731700,6.159731689453125,-2.849299907684326,-2.6521999835968018,-2.7383999824523926
1702300169647731700,6.219731689453125,2.270599842071533,0.9253999590873718,-1.659500002861023
1702300169707731700,6.279731689453125,-1.0145999193191528,0.8077999949455261,2.392899990081787
1702300169767731700,6.339731689453125,-2.618799924850464,-0.5162999629974365,0.24459999799728394
1702300169827731700,6.399731689453125,-0.2709999978542328,1.051900029182434,-0.6611999869346619
1702300169887731700,6.459731689453125,2.64139986038208,0.6245999932289124,-1.781999945640564
1702300169947731700,6.519731689453125,2.218400001525879,-0.4333999752998352,-1.2635999917984009
1702300170007731700,6.579731689453125,2.8738999366760254,-0.8460999727249146,-1.9716999530792236
1702300170067731700,6.639731689453125,4.195099830627441,-1.073199987411499,-2.7021000385284424
1702300170127731700,6.699731689453125,4.2592997550964355,2.074399948120117,-3.746299982070923
1702300170187731700,6.759731689453125,-6.383199691772461,-3.222100019454956,-3.756999969482422
1702300170247731700,6.819731689453125,3.391700029373169,-8.25409984588623,-1.3114999532699585
1702300170307731700,6.879731689453125,-6.954400062561035,0.6502999663352966,4.274399757385254
1702300170367731700,6.939731689453125,-2.538300037384033,2.430299997329712,-0.7525999546051025
1702300170427731700,6.999731689453125,-4.658299922943115,1.6837999820709229,5.2692999839782715
1702300170487731700,7.059731689453125,-1.6964999437332153,0.3247999846935272,5.525799751281738
1702300170547731700,7.119731689453125,13.578899383544922,-2.3278000354766846,-5.1529998779296875
1702300170607731700,7.179731689453125,-1.903899908065796,3.562299966812134,-4.237400054931641
1702300170667731700,7.239731689453125,3.5020999908447266,-5.162499904632568,3.2963998317718506
1702300170727731700,7.299731689453125,-8.958399772644043,-1.9645999670028687,-3.5842998027801514
1702300170787731700,7.359731689453125,-4.079699993133545,-0.8703999519348145,-0.26579999923706055
1702300170847731700,7.419731689453125,-3.229300022125244,-2.1238999366760254,-1.8322999477386475
1702300170907731700,7.479731689453125,-0.44039997458457947,0.25189998745918274,-0.44189998507499695
1702300170967731700,7.539731689453125,0.6739000082015991,0.2842999994754791,2.5192999839782715
1702300171027731700,7.599731689453125,-1.6725000143051147,1.3975999355316162,-0.666700005531311
1702300171087731700,7.659731689453125,1.500100016593933,1.5924999713897705,-2.6564998626708984
1702300171147731700,7.719731689453125,4.483799934387207,-0.5328999757766724,0.44269999861717224
1702300171207731700,7.779731689453125,1.2110999822616577,-0.4666000008583069,-2.7971999645233154
1702300171267731700,7.839731689453125,4.085700035095215,0.4696999788284302,-2.8969998359680176
1702300171327731700,7.899731689453125,2.487499952316284,0.19550000131130219,-4.723299980163574
1702300171387731700,7.959731689453125,-3.9094998836517334,-1.402899980545044,-4.553999900817871
1702300171447731700,8.019731689453126,-0.666700005531311,-6.3053998947143555,-5.73829984664917
1702300171507731700,8.079731689453125,-4.572499752044678,-2.4982998371124268,1.58489990234375
1702300171567731700,8.139731689453125,-4.999799728393555,2.0625998973846436,2.6250998973846436
1702300171627733200,8.199733154296876,-2.300600051879883,0.4065999984741211,1.8529999256134033
1702300171687731700,8.259731689453124,-3.757499933242798,0.2141999900341034,6.303799629211426
1702300171747731700,8.319731689453125,3.037899971008301,0.5372999906539917,4.890199661254883
1702300171807731700,8.379731689453125,4.685100078582764,-0.7208999991416931,-10.295999526977539
1702300171867731700,8.439731689453126,1.6394000053405762,-0.5056999921798706,-2.5481998920440674
1702300171927731700,8.499731689453125,-6.262599945068359,-1.4197999238967896,0.07919999957084656
1702300171987731700,8.559731689453125,-5.441499710083008,-2.168599843978882,2.829200029373169
1702300172047731700,8.619731689453126,-2.821499824523926,-2.9821999073028564,-0.7507999539375305
1702300172107731700,8.679731689453124,-2.3671998977661133,0.5625999569892883,-2.4646999835968018
1702300172167731700,8.739731689453125,-1.1887999773025513,2.1217000484466553,1.12909996509552
1702300172227731700,8.799731689453125,-1.1068999767303467,0.8881999850273132,0.4528999924659729
1702300172287731700,8.859731689453126,3.394699811935425,-0.36059999465942383,-2.643699884414673
1702300172347731700,8.919731689453124,1.5095999240875244,0.6438999772071838,0.2827000021934509
1702300172407731700,8.979731689453125,1.1550999879837036,-0.34939998388290405,-2.577699899673462
1702300172467733200,9.039733154296876,2.575199842453003,-0.7137999534606934,-5.300899982452393
1702300172527731700,9.099731689453124,3.5429999828338623,-1.4960999488830566,-3.2799999713897705
1702300172587731700,9.159731689453125,-3.3685998916625977,-0.7976999878883362,-2.7540998458862305
1702300172647731700,9.219731689453125,1.5666999816894531,-7.882699966430664,0.08419999480247498
1702300172707731700,9.279731689453126,-4.922999858856201,-1.9787999391555786,2.6397998332977295
1702300172767731700,9.339731689453124,-3.999199867248535,2.0311999320983887,1.2242000102996826
1702300172827731700,9.399731689453125,-3.4388999938964844,-0.13009999692440033,1.249899983406067
1702300172887731700,9.459731689453125,-2.87719988822937,1.0289000272750854,4.156399726867676
1702300172947731700,9.519731689453126,1.0784000158309937,2.181999921798706,2.6366000175476074
1702300173007731700,9.579731689453125,5.615099906921387,0.7522000074386597,-8.55109977722168
1702300173067731700,9.639731689453125,0.6017999649047852,0.2766000032424927,-0.5496000051498413
1702300173127731700,9.699731689453126,2.5327999591827393,-7.948699951171875,2.0521998405456543
1702300173187731700,9.759731689453124,-6.594899654388428,0.88919997215271,1.0149999856948853
1702300173247731700,9.819731689453125,-5.723999977111816,-0.8346999883651733,-2.2670998573303223
1702300173307731700,9.879731689453125,-2.1596999168395996,-0.46469998359680176,-2.7246999740600586
1702300173367731700,9.939731689453126,0.9286999702453613,0.22909998893737793,3.199199914932251
1702300173427731700,9.999731689453125,-3.784899950027466,4.164999961853027,-1.015299916267395
1702300173487731700,10.059731689453125,0.36640000343322754,1.2681999206542969,1.7770999670028687
1702300173547731700,10.119731689453126,2.9505999088287354,-0.09129999577999115,-0.543999969959259
1702300173607731700,10.179731689453124,1.9361000061035156,-0.3537999987602234,-1.1837999820709229
1702300173667731700,10.239731689453125,2.297799825668335,0.8928999900817871,-3.698199987411499
1702300173727731700,10.299731689453125,6.991699695587158,-1.816999912261963,-1.7999999523162842
1702300173787731700,10.359731689453126,-1.3377000093460083,-2.498699903488159,-5.3603997230529785
1702300173847731700,10.419731689453124,-3.4582998752593994,-1.534999966621399,-1.7608999013900757
1702300173907731700,10.479731689453125,-0.14739999175071716,-5.943399906158447,0.9441999793052673
1702300173967731700,10.539731689453125,-3.5458998680114746,0.18479999899864197,2.7932000160217285
1702300174027731700,10.599731689453124,-3.8945999145507812,2.5155999660491943,1.468999981880188
1702300174087731700,10.659731689453125,-4.390699863433838,1.7781000137329102,3.0585999488830566
1702300174147731700,10.719731689453125,1.1330000162124634,0.9195999503135681,1.2997000217437744
1702300174207731700,10.779731689453126,8.631400108337402,-3.50849986076355,-1.597999930381775
1702300174267731700,10.839731689453124,0.17659999430179596,-4.022799968719482,-0.03689999878406525
1702300174327731700,10.899731689453125,-3.9006998538970947,1.0626999139785767,1.462399959564209
1702300174387731700,10.959731689453125,-6.019499778747559,-1.368299961090088,-1.2768999338150024
1702300174447731700,11.019731689453126,-0.45879998803138733,-1.843400001525879,-5.689499855041504
1702300174507731700,11.079731689453125,1.0448999404907227,0.7962999939918518,-1.0637999773025513
1702300174567731700,11.139731689453125,-0.9855999946594238,0.7506999969482422,0.2874999940395355
1702300174627733200,11.199733154296876,0.0835999995470047,1.455199956893921,1.3438999652862549
1702300174687731700,11.259731689453124,0.6818999648094177,0.5783999562263489,-0.5758000016212463
1702300174747731700,11.319731689453125,0.44679999351501465,0.09119999408721924,0.691100001335144
1702300174807731700,11.379731689453125,9.547800064086914,-1.7285000085830688,0.15549999475479126
1702300174867731700,11.439731689453126,0.18320000171661377,-1.4507999420166016,-3.5401999950408936
1702300174927731700,11.499731689453125,4.314799785614014,-1.5548999309539795,-1.281999945640564
1702300174987731700,11.559731689453125,-2.744799852371216,-3.2423999309539795,-2.7269999980926514
1702300175047731700,11.619731689453126,-6.645599842071533,-3.8688998222351074,0.45889997482299805
1702300175107731700,11.679731689453124,0.2784999907016754,1.2042999267578125,-0.5285999774932861
1702300175167731700,11.739731689453125,-6.396299839019775,2.2335000038146973,1.2192999124526978
1702300175227731700,11.799731689453125,-3.728799819946289,0.7818999886512756,-0.08240000158548355
1702300175287731700,11.859731689453126,-3.113799810409546,1.2806999683380127,3.7899999618530273
1702300175347731700,11.919731689453124,7.515199661254883,-0.552899956703186,0.4950999915599823
1702300175407731700,11.979731689453125,4.230000019073486,-1.1613999605178833,-1.9524999856948853
1702300175467731700,12.039731689453125,2.260499954223633,1.1786999702453613,2.9212000370025635
1702300175527731700,12.099731689453124,-3.658399820327759,-7.144599914550781,-4.234600067138672
1702300175587731700,12.159731689453125,-5.619199752807617,-1.1675999164581299,-1.1159999370574951
1702300175647731700,12.219731689453125,-3.1922998428344727,-0.8141999840736389,-3.16159987449646
1702300175707731700,12.279731689453126,-0.7312999963760376,0.7050999999046326,-3.210899829864502
1702300175767731700,12.339731689453124,0.5654000043869019,1.824199914932251,3.0369999408721924
1702300175827731700,12.399731689453125,1.1952999830245972,1.222100019454956,0.7789999842643738
1702300175887731700,12.459731689453125,0.2831999957561493,0.1736999899148941,-1.2839000225067139
1702300175947731700,12.519731689453126,5.8668999671936035,-0.597000002861023,-1.021899938583374
1702300176007731700,12.579731689453125,0.6941999793052673,-0.45649999380111694,-2.5304999351501465
1702300176067731700,12.639731689453125,6.630199909210205,-2.680999994277954,-1.3357999324798584
1702300176127731700,12.699731689453126,1.1477999687194824,-2.6856000423431396,-2.724599838256836
1702300176187731700,12.759731689453124,-5.047599792480469,-4.331399917602539,-4.4197998046875
1702300176247731700,12.819731689453125,-2.945199966430664,-2.790099859237671,1.1798999309539795
1702300176307731700,12.879731689453125,-0.04989999905228615,1.309899926185608,1.2222999334335327
1702300176367731700,12.939731689453126,-6.478299617767334,2.6586999893188477,1.5247999429702759
1702300176427731700,12.999731689453125,-4.060199737548828,1.7965999841690063,0.7137999534606934
1702300176487731700,13.059731689453125,2.4398999214172363,1.26419997215271,1.2440999746322632
1702300176547731700,13.119731689453126,6.611799716949463,-1.656999945640564,-2.1083998680114746
1702300176607731700,13.179731689453124,2.054499864578247,-0.44509997963905334,-2.186499834060669
1702300176667731700,13.239731689453125,-4.812699794769287,-2.592099905014038,2.7286999225616455
1702300176727731700,13.299731689453125,-4.19819974899292,-2.2904000282287598,1.6646000146865845
1702300176787731700,13.359731689453126,-3.747499942779541,-3.1987998485565186,-3.3859000205993652
1702300176847731700,13.419731689453124,-3.5825998783111572,0.32089999318122864,-3.007499933242798
1702300176907731700,13.479731689453125,-0.8967999815940857,2.6849000453948975,0.7299999594688416
1702300176967731700,13.539731689453125,-2.7632999420166016,0.7005999684333801,0.20349998772144318
1702300177027731700,13.599731689453124,0.6994999647140503,1.8990999460220337,-0.5723999738693237
1702300177087731700,13.659731689453125,3.3356997966766357,-0.4447000026702881,-1.4880999326705933
1702300177147731700,13.719731689453125,1.6132999658584595,-0.6067000031471252,-2.3255999088287354
1702300177207731700,13.779731689453126,5.963199615478516,1.6014999151229858,-4.78439998626709
1702300177267731700,13.839731689453124,1.2103999853134155,-0.290800005197525,-3.7916998863220215
1702300177327731700,13.899731689453125,-5.274600028991699,-1.4149999618530273,-4.756899833679199
1702300177387731700,13.959731689453125,1.80239999294281,-7.787899971008301,-1.955299973487854
1702300177447731700,14.019731689453126,-5.754799842834473,-1.122499942779541,5.052700042724609
1702300177507731700,14.079731689453125,-3.521899938583374,2.470599889755249,0.7926999926567078
1702300177567731700,14.139731689453125,-4.967499732971191,1.9131999015808105,2.443199872970581
1702300177627733200,14.199733154296876,-2.6152000427246094,0.39149999618530273,3.6459999084472656
1702300177687731700,14.259731689453124,6.092499732971191,-3.0053999423980713,-1.2824000120162964
1702300177747731700,14.319731689453125,0.18679998815059662,2.4761998653411865,-3.1294000148773193
1702300177807731700,14.379731689453125,0.8296999931335449,0.7746999859809875,3.676999807357788
1702300177867731700,14.439731689453126,-5.512499809265137,-7.715199947357178,-5.878699779510498
1702300177927731700,14.499731689453125,-5.033400058746338,-0.019500000402331352,-0.12389999628067017
1702300177987731700,14.559731689453125,-4.764899730682373,-0.9997999668121338,-1.9488999843597412
1702300178047731700,14.619731689453126,-2.4968998432159424,0.028299998492002487,0.09519999474287033
1702300178107731700,14.679731689453124,6.289999961853027,0.6141999959945679,4.826299667358398
1702300178167731700,14.739731689453125,-2.2338998317718506,0.9366999864578247,-0.8299999833106995
1702300178227731700,14.799731689453125,0.08320000022649765,1.6632999181747437,-3.461899995803833
1702300178287731700,14.859731689453126,4.95829963684082,-0.3392999768257141,-1.8463999032974243
1702300178347731700,14.919731689453124,1.7247999906539917,1.375599980354309,-3.6532998085021973
1702300178407731700,14.979731689453125,4.017499923706055,0.6934999823570251,-4.033299922943115
1702300178467731700,15.039731689453125,-1.4984999895095825,-2.641899824142456,-1.6603000164031982
1702300178527731700,15.099731689453124,-2.219099998474121,-5.690999984741211,-2.47379994392395
1702300178587731700,15.159731689453125,-1.914699912071228,-3.2918999195098877,3.507200002670288
1702300178647731700,15.219731689453125,-6.584799766540527,1.784500002861023,4.098299980163574
1702300178707731700,15.279731689453126,-2.0292999744415283,2.552799940109253,0.17430000007152557
1702300178767731700,15.339731689453124,-4.81879997253418,1.2623000144958496,5.086299896240234
1702300178827731700,15.399731689453125,5.573699951171875,-0.8235999941825867,-1.5956000089645386
1702300178887731700,15.459731689453125,-0.7400999665260315,3.981599807739258,-4.256799697875977
1702300178947731700,15.519731689453126,2.3444998264312744,-4.2017998695373535,-1.872399926185608
1702300179007731700,15.579731689453125,-7.848399639129639,-2.125699996948242,3.6467998027801514
1702300179067731700,15.639731689453125,-5.674799919128418,-2.5239999294281006,0.07999999821186066
1702300179127731700,15.699731689453126,-2.725600004196167,-1.0399999618530273,-4.292500019073486
1702300179187731700,15.759731689453124,0.49390000104904175,1.8012999296188354,1.5252999067306519
1702300179247731700,15.819731689453125,1.1668999195098877,0.5741999745368958,2.5453999042510986
1702300179307731700,15.879731689453125,-2.68149995803833,1.3274999856948853,-0.3084999918937683
1702300179367731700,15.939731689453126,4.139199733734131,0.6807000041007996,-4.11299991607666
1702300179427731700,15.999731689453125,-0.5292999744415283,-0.6800000071525574,-1.4175999164581299
1702300179487733200,16.059733154296875,1.8279999494552612,-0.2970999777317047,-2.353800058364868
1702300179547731700,16.119731689453126,4.002299785614014,-0.1419999897480011,-4.2764997482299805
1702300179607731700,16.179731689453124,3.559499979019165,1.6313999891281128,-3.4077999591827393
1702300179667731700,16.239731689453127,-7.390199661254883,-3.5676000118255615,0.03099999949336052
1702300179727731700,16.299731689453125,0.5534999966621399,-2.984299898147583,-1.3219999074935913
1702300179787733200,16.359733154296876,-5.4558000564575195,0.07580000162124634,2.6821999549865723
1702300179847731700,16.419731689453126,-4.779900074005127,0.9366999864578247,4.249499797821045
1702300179907731700,16.479731689453125,-1.0957000255584717,1.4293999671936035,-0.5331000089645386
1702300179967731700,16.539731689453124,-0.6122999787330627,0.8245999813079834,3.137199878692627
1702300180027731700,16.599731689453126,3.098099946975708,-1.0745999813079834,-1.5166000127792358
1702300180087731700,16.659731689453125,1.1691999435424805,0.6848999857902527,-3.351599931716919
1702300180147731700,16.719731689453123,6.964699745178223,-2.866799831390381,-2.7151999473571777
1702300180207731700,16.779731689453126,-9.204699516296387,1.3216999769210815,1.1552000045776367
1702300180267731700,16.839731689453124,-3.902400016784668,-2.847899913787842,1.219599962234497
1702300180327731700,16.899731689453127,-3.956199884414673,-0.5681999921798706,-0.9143999814987183
1702300180387731700,16.959731689453125,0.14919999241828918,1.2692999839782715,-1.7697999477386475
1702300180447731700,17.019731689453124,-0.22269999980926514,1.2562999725341797,1.1668999195098877
1702300180507731700,17.079731689453126,-1.1190999746322632,0.9884999990463257,-1.0605000257492065
1702300180567731700,17.139731689453125,-0.3619999885559082,0.8181999921798706,-0.42980000376701355
1702300180627733200,17.199733154296876,5.843699932098389,0.01850000023841858,-0.972599983215332
1702300180687731700,17.259731689453126,0.44769999384880066,-0.07979999482631683,-3.7916998863220215
1702300180747731700,17.319731689453125,5.195699691772461,-0.8367999792098999,-2.2802000045776367
1702300180807731700,17.379731689453124,-2.183799982070923,-0.24889999628067017,-3.76669979095459
1702300180867731700,17.439731689453126,-5.211999893188477,-4.117799758911133,-3.9898998737335205
1702300180927731700,17.499731689453125,1.187600016593933,-4.206999778747559,-0.38189998269081116
1702300180987731700,17.559731689453123,-3.4958999156951904,1.3600000143051147,5.5625996589660645
1702300181047731700,17.619731689453126,-4.94789981842041,1.9144999980926514,2.7201998233795166
1702300181107731700,17.679731689453124,-2.174299955368042,1.7669999599456787,0.07959999889135361
1702300181167731700,17.739731689453127,3.2235000133514404,0.4494999945163727,-0.5054999589920044
1702300181227731700,17.799731689453125,7.918900012969971,0.932699978351593,-3.095899820327759
1702300181287731700,17.859731689453124,1.1511999368667603,1.3751999139785767,-0.2395000010728836
1702300181347731700,17.919731689453126,-2.2393999099731445,-9.262100219726562,-5.9629998207092285
1702300181407731700,17.979731689453125,-2.733799934387207,-0.6083999872207642,1.4370999336242676
1702300181467731700,18.039731689453124,-4.293799877166748,-2.75819993019104,-1.6646000146865845
1702300181527731700,18.099731689453126,-3.2167999744415283,-0.15049999952316284,-2.182499885559082
1702300181587731700,18.159731689453125,1.2044999599456787,2.4697999954223633,3.6018998622894287
1702300181647731700,18.219731689453123,-1.097100019454956,1.2186999320983887,0.5098999738693237
1702300181707731700,18.279731689453126,-1.3269000053405762,1.6828999519348145,-0.828499972820282
1702300181767731700,18.339731689453124,11.040399551391602,-0.44529998302459717,-2.2474000453948975
1702300181827731700,18.399731689453127,-1.3643999099731445,0.14329999685287476,-3.386199951171875
1702300181887731700,18.459731689453125,5.3125996589660645,-0.13580000400543213,-2.2344000339508057
1702300181947731700,18.519731689453124,3.789799928665161,-0.7511000037193298,-2.5764000415802
1702300182007731700,18.579731689453126,-5.480000019073486,-1.868499994277954,-1.692199945449829
1702300182067731700,18.639731689453125,0.5891000032424927,-7.108699798583984,-2.844099998474121
1702300182127731700,18.699731689453124,-5.106100082397461,-0.7638999819755554,2.974900007247925
1702300182187731700,18.759731689453126,-5.002299785614014,2.0799999237060547,0.877299964427948
1702300182247731700,18.819731689453125,-4.288599967956543,2.281399965286255,4.394499778747559
1702300182307731700,18.879731689453124,-2.2077999114990234,1.01010000705719,5.0543999671936035
1702300182367731700,18.939731689453126,7.4365997314453125,-0.7120999693870544,-9.994599342346191
1702300182427731700,18.999731689453125,1.6050999164581299,5.631899833679199,-1.080899953842163
1702300182487731700,19.059731689453123,-2.2035000324249268,-7.763000011444092,-3.9047999382019043
1702300182547731700,19.119731689453126,-5.194799900054932,-1.605299949645996,5.107999801635742
1702300182607731700,19.179731689453124,-5.618099689483643,-2.9308998584747314,0.3319000005722046
1702300182667731700,19.239731689453127,-3.230299949645996,-1.0496000051498413,-3.550999879837036
1702300182727731700,19.299731689453125,2.5971999168395996,2.1914000511169434,2.0834999084472656
1702300182787731700,19.359731689453124,-0.1453000009059906,1.2965999841690063,0.20409999787807465
1702300182847731700,19.419731689453126,-2.4251999855041504,1.7795000076293945,-0.30329999327659607
1702300182907731700,19.479731689453125,0.6157000064849854,1.264299988746643,-3.0607998371124268
1702300182967731700,19.539731689453124,3.7246999740600586,-0.2724999785423279,-1.8391000032424927
1702300183027731700,19.599731689453126,-0.4023999869823456,-0.44509997963905334,-1.4228999614715576
1702300183087731700,19.659731689453125,5.31220006942749,-0.863599956035614,-4.769199848175049
1702300183147731700,19.719731689453123,2.023699998855591,-0.655299961566925,-5.19350004196167
1702300183207731700,19.779731689453126,-5.042599678039551,-1.977799892425537,-1.716599941253662
1702300183267731700,19.839731689453124,1.9852999448776245,-5.798500061035156,-3.1023998260498047
1702300183327731700,19.899731689453127,-5.630399703979492,1.1970999240875244,2.492300033569336
1702300183387731700,19.959731689453125,-3.845099925994873,1.403499960899353,-0.5432999730110168
1702300183447731700,20.019731689453124,-4.995699882507324,0.8738999962806702,4.40339994430542
1702300183507731700,20.079731689453126,0.19269999861717224,0.47269999980926514,4.7841997146606445
1702300183567731700,20.139731689453125,1.5067999362945557,-0.2687999904155731,-3.396699905395508
1702300183627731700,20.199731689453124,0.5259000062942505,3.7662999629974365,-3.649899959564209
1702300183687731700,20.259731689453126,2.222399950027466,-6.419600009918213,-12.167099952697754
1702300183747731700,20.319731689453125,-7.198699951171875,-3.131700038909912,11.423199653625488
1702300183807731700,20.379731689453124,-4.57919979095459,-4.224899768829346,-0.7540000081062317
1702300183867731700,20.439731689453126,-9.173500061035156,-2.6887998580932617,-5.115900039672852
1702300183927731700,20.499731689453125,1.4297000169754028,3.1475000381469727,-0.4603999853134155
1702300183987731700,20.559731689453123,-1.3417999744415283,1.4477999210357666,1.3888999223709106
1702300184047731700,20.619731689453126,0.18779999017715454,1.9625999927520752,0.9169999957084656
1702300184107731700,20.679731689453124,0.5295000076293945,0.8012999892234802,-3.1965999603271484
1702300184167731700,20.739731689453127,3.8760998249053955,0.5295000076293945,-1.56059992313385
1702300184227731700,20.799731689453125,0.9657999873161316,-0.6212999820709229,-1.736299991607666
1702300184287731700,20.859731689453124,5.739599704742432,-1.3752999305725098,-3.8255999088287354
1702300184347733200,20.919733154296875,3.0936999320983887,-0.32339999079704285,-4.998199939727783
1702300184407731700,20.979731689453125,-5.630699634552002,-2.999199867248535,-2.7437000274658203
1702300184467731700,21.039731689453124,4.38129997253418,-7.601399898529053,-1.3184000253677368
1702300184527731700,21.099731689453126,-7.184599876403809,1.629499912261963,3.781799793243408
1702300184587731700,21.159731689453125,-3.0185999870300293,3.477599859237671,-1.3600999116897583
1702300184647731700,21.219731689453123,-5.102200031280518,2.6160998344421387,4.329099655151367
1702300184707731700,21.279731689453126,-1.4014999866485596,1.0614999532699585,3.5932998657226562
1702300184767731700,21.339731689453124,17.840700149536133,-4.776400089263916,-9.535699844360352
1702300184827731700,21.399731689453127,-1.6584999561309814,2.312000036239624,0.4748999774456024
1702300184887731700,21.459731689453125,-1.5860999822616577,1.3234000205993652,3.2619998455047607
1702300184947731700,21.519731689453124,-6.5046000480651855,-5.927599906921387,-7.7164998054504395
1702300185007731700,21.579731689453126,-5.402899742126465,0.017799999564886093,4.478699684143066
1702300185067731700,21.639731689453125,-4.69849967956543,-2.108799934387207,-2.205199956893921
1702300185127731700,21.699731689453124,-1.9071999788284302,1.5715999603271484,-2.599599838256836
1702300185187731700,21.759731689453126,2.4129998683929443,0.9825999736785889,1.6887999773025513
1702300185247731700,21.819731689453125,-3.144199848175049,2.1464998722076416,0.1889999955892563
1702300185307731700,21.879731689453124,4.857199668884277,0.33949998021125793,-4.161299705505371
1702300185367731700,21.939731689453126,0.3619999885559082,-0.47439998388290405,-2.450500011444092
1702300185427731700,21.999731689453125,3.8135998249053955,0.4916999936103821,-3.2727999687194824
1702300185487731700,22.059731689453123,5.374599933624268,-0.6283000111579895,-2.392199993133545
1702300185547731700,22.119731689453126,-6.427099704742432,-3.3683998584747314,-3.2040998935699463
1702300185607731700,22.179731689453124,-2.401900053024292,-3.7881999015808105,-4.062399864196777
1702300185667731700,22.239731689453127,-5.282700061798096,-1.15339994430542,3.4445998668670654
1702300185727731700,22.299731689453125,-5.292799949645996,1.7555999755859375,4.428499698638916
1702300185787731700,22.359731689453124,-2.800999879837036,2.265899896621704,1.6567999124526978
1702300185847731700,22.419731689453126,-3.622999906539917,1.448199987411499,5.474499702453613
1702300185907733200,22.479733154296873,13.774099349975586,-3.6290998458862305,-9.021100044250488
1702300185967733200,22.539733154296876,-3.746699810028076,3.3730998039245605,-3.444700002670288
1702300186027733200,22.599733154296874,-0.0026000000070780516,1.5080000162124634,2.0539000034332275
1702300186087733200,22.659733154296877,-8.20479965209961,-5.49370002746582,-3.006500005722046
1702300186147731700,22.719731689453123,-6.949199676513672,-0.9186999797821045,1.3173999786376953
1702300186207731700,22.779731689453126,-3.893199920654297,-3.3451998233795166,-4.374000072479248
1702300186267731700,22.839731689453124,0.8634999990463257,1.9174998998641968,0.16279999911785126
1702300186327731700,22.899731689453127,0.5562999844551086,1.472999930381775,2.6196999549865723
1702300186387731700,22.959731689453125,-3.481599807739258,2.4861998558044434,-0.8960999846458435
1702300186447731700,23.019731689453124,2.7101998329162598,1.011299967765808,-3.28659987449646
1702300186507731700,23.079731689453126,1.1180999279022217,0.14790000021457672,-2.6631999015808105
1702300186567731700,23.139731689453125,1.9073998928070068,-0.5694000124931335,-4.598499774932861
1702300186627733200,23.199733154296876,4.146599769592285,-1.3657000064849854,-2.370499849319458
1702300186687731700,23.259731689453126,-2.6947999000549316,-0.8463999629020691,-4.044899940490723
1702300186747731700,23.319731689453125,-3.694499969482422,-0.553600013256073,-5.342599868774414
1702300186807731700,23.379731689453124,1.2865999937057495,-6.001100063323975,0.42879998683929443
1702300186867731700,23.439731689453126,-6.601799964904785,1.2587000131607056,5.518699645996094
1702300186927731700,23.499731689453125,-3.441200017929077,1.715399980545044,0.10369999706745148
1702300186987731700,23.559731689453123,-4.74429988861084,1.4966999292373657,4.74459981918335
1702300187047731700,23.619731689453126,2.2898998260498047,0.6304999589920044,3.453199863433838
1702300187107731700,23.679731689453124,6.558799743652344,0.6739999651908875,-8.997900009155273
1702300187167731700,23.739731689453127,1.3224999904632568,4.23769998550415,-0.9624999761581421
1702300187227731700,23.799731689453125,-4.64169979095459,-10.461400032043457,-5.356899738311768
1702300187287731700,23.859731689453124,-3.3062000274658203,-0.23799999058246613,5.9726996421813965
1702300187347731700,23.919731689453126,-6.3078999519348145,-2.868799924850464,-0.8884999752044678
1702300187407731700,23.979731689453125,-3.1380999088287354,-0.6857999563217163,-2.1569998264312744
1702300187467731700,24.039731689453124,4.314199924468994,1.4764000177383423,4.79040002822876
1702300187527731700,24.099731689453126,-2.4744999408721924,1.0583000183105469,-1.0181999206542969
1702300187587731700,24.159731689453125,-1.5069999694824219,3.091099977493286,-2.1110999584198
1702300187647731700,24.219731689453123,10.550700187683105,-0.5270999670028687,-2.7963998317718506
1702300187707731700,24.279731689453126,-1.4180999994277954,0.7736999988555908,-1.8854999542236328
1702300187767731700,24.339731689453124,3.917799949645996,-0.23719999194145203,-3.0759999752044678
1702300187827731700,24.399731689453127,1.6779999732971191,-2.0434999465942383,-4.70359992980957
1702300187887731700,24.459731689453125,-6.684700012207031,-2.2318999767303467,-3.560299873352051
1702300187947731700,24.519731689453124,-0.08489999920129776,-3.93969988822937,-3.959399938583374
1702300188007731700,24.579731689453126,-3.5780999660491943,-2.2490999698638916,4.374000072479248
1702300188067731700,24.639731689453125,-5.894799709320068,2.9514999389648438,2.7654998302459717
1702300188127731700,24.699731689453124,-4.12529993057251,1.9779999256134033,1.0030999183654785
1702300188187731700,24.759731689453126,-4.400799751281738,1.1955000162124634,4.625699996948242
1702300188247731700,24.819731689453125,9.003799438476562,-2.7822999954223633,-5.064199924468994
1702300188307731700,24.879731689453124,-5.16349983215332,5.477499961853027,-5.644899845123291
1702300188367731700,24.939731689453126,7.65179967880249,-6.4105000495910645,-3.3299999237060547
1702300188427731700,24.999731689453125,-5.9928998947143555,-1.889799952507019,5.002399921417236
1702300188487731700,25.059731689453123,-5.846099853515625,-4.083399772644043,-1.9341999292373657
1702300188547731700,25.119731689453126,-2.8691999912261963,-0.8726999759674072,-3.4189000129699707
1702300188607731700,25.179731689453124,0.6951999664306641,3.088599920272827,2.6052000522613525
1702300188667731700,25.239731689453127,-0.5568000078201294,1.65339994430542,0.9882999658584595
1702300188727731700,25.299731689453125,-2.3592000007629395,2.5539000034332275,-1.9148999452590942
1702300188787731700,25.359731689453124,1.3777999877929688,0.7608000040054321,-3.417799949645996
1702300188847731700,25.419731689453126,2.7754998207092285,-1.5055999755859375,-2.8646998405456543
1702300188907731700,25.479731689453125,1.014799952507019,0.1639999896287918,-2.5394999980926514
1702300188967731700,25.539731689453124,3.0752999782562256,-0.39469999074935913,-4.766599655151367
1702300189027731700,25.599731689453126,-2.9428999423980713,-0.9070000052452087,-3.969299793243408
1702300189087731700,25.659731689453125,-3.6830999851226807,-2.9593000411987305,-3.9641997814178467
1702300189147731700,25.719731689453123,0.531499981880188,-5.472300052642822,1.75409996509552
1702300189207731700,25.779731689453126,-7.829599857330322,2.028899908065796,3.776599884033203
1702300189267731700,25.839731689453124,-2.4338998794555664,2.234299898147583,-1.1693999767303467
1702300189327731700,25.899731689453127,-4.689799785614014,1.2846999168395996,4.462199687957764
1702300189387731700,25.959731689453125,0.5203999876976013,0.6171000003814697,1.9398999214172363
1702300189447731700,26.019731689453124,4.5229997634887695,1.0160999298095703,-6.231599807739258
1702300189507731700,26.079731689453126,0.44769999384880066,-0.953499972820282,-1.8875999450683594
1702300189567731700,26.139731689453125,-13.908499717712402,-2.1499998569488525,-0.5573999881744385
1702300189627731700,26.199731689453124,-6.09499979019165,-1.9598000049591064,3.8748998641967773
1702300189687731700,26.259731689453126,-5.722399711608887,-2.3245999813079834,-2.303999900817871
1702300189747731700,26.319731689453125,-0.8123999834060669,2.049799919128418,-3.7772998809814453
1702300189807731700,26.379731689453124,-2.0351998805999756,2.1016998291015625,1.173200011253357
1702300189867731700,26.439731689453126,-1.3982999324798584,0.8880999684333801,-0.358599990606308
1702300189927731700,26.499731689453125,0.6398000121116638,0.8913999795913696,-1.2113999128341675
1702300189987731700,26.559731689453123,4.128699779510498,-0.7799999713897705,-1.4079999923706055
1702300190047731700,26.619731689453126,0.7366999983787537,1.281999945640564,-3.90339994430542
1702300190107731700,26.679731689453124,4.259399890899658,-0.30879998207092285,-4.811500072479248
1702300190167731700,26.739731689453127,2.490499973297119,-1.0850999355316162,-2.5660998821258545
1702300190227731700,26.799731689453125,-6.26609992980957,-2.0486998558044434,-3.4499998092651367
1702300190287731700,26.859731689453124,4.113399982452393,-7.574899673461914,-1.188099980354309
1702300190347731700,26.919731689453126,-8.974100112915039,0.8565999865531921,5.243799686431885
1702300190407731700,26.979731689453125,-3.7336997985839844,3.0306999683380127,0.19099999964237213
1702300190467731700,27.039731689453124,-5.466099739074707,2.303799867630005,3.8241000175476074
1702300190527731700,27.099731689453126,-1.3187999725341797,0.8637999892234802,4.001199722290039
1702300190587731700,27.159731689453125,14.17449951171875,-2.4970998764038086,-10.198199272155762
1702300190647731700,27.219731689453123,-1.8131999969482422,3.134199857711792,-0.748199999332428
1702300190707731700,27.279731689453126,-0.053999997675418854,-5.674999713897705,-3.776700019836426
1702300190767731700,27.339731689453124,-1.5641999244689941,-1.051200032234192,2.452199935913086
1702300190827731700,27.399731689453127,-5.366299629211426,-1.8690999746322632,-0.4952999949455261
1702300190887731700,27.459731689453125,-4.3968000411987305,-0.5,-2.4819998741149902
1702300190947731700,27.519731689453124,-0.09999999403953552,2.8280999660491943,1.7273999452590942
1702300191007731700,27.579731689453126,0.2377999871969223,0.3317999839782715,-0.8854999542236328
1702300191067731700,27.639731689453125,-0.6354999542236328,2.8230998516082764,-0.5755999684333801
1702300191127731700,27.699731689453124,5.920000076293945,0.09200000017881393,-2.7867000102996826
1702300191187731700,27.759731689453126,0.8115999698638916,-0.4617999792098999,-2.742799997329712
1702300191247731700,27.819731689453125,6.845699787139893,-0.08339999616146088,-4.171899795532227
1702300191307731700,27.879731689453124,1.5513999462127686,-0.02329999953508377,-4.318299770355225
1702300191367731700,27.939731689453126,-6.531499862670898,-3.054299831390381,-2.8724000453948975
1702300191427731700,27.999731689453125,3.7416999340057373,-7.941799640655518,-2.741999864578247
1702300191487731700,28.059731689453123,-8.203700065612793,0.7500999569892883,4.431299686431885
1702300191547731700,28.119731689453126,-3.5406999588012695,2.4361000061035156,1.1431999206542969
1702300191607731700,28.179731689453124,-5.978999614715576,2.836599826812744,5.190700054168701
1702300191667731700,28.239731689453127,1.59089994430542,-0.7603999972343445,2.009999990463257
1702300191727731700,28.299731689453125,3.0146000385284424,2.208899974822998,-3.9111998081207275
1702300191787731700,28.359731689453124,-1.7113999128341675,1.6776999235153198,-1.8981999158859253
1702300191847731700,28.419731689453126,-1.593400001525879,-6.315299987792969,-1.0584999322891235
1702300191907731700,28.479731689453125,-4.481899738311768,-1.5575000047683716,3.437299966812134
1702300191967760000,28.539759765625,-5.5929999351501465,-3.6120998859405518,-3.6211998462677
1702300192027731700,28.599731689453126,-0.5267999768257141,1.865899920463562,-3.2228000164031982
1702300192087731700,28.659731689453125,-0.7585999965667725,1.0978000164031982,2.0730998516082764
1702300192147731700,28.719731689453123,-1.0760999917984009,1.663100004196167,0.9529999494552612
1702300192207731700,28.779731689453126,-1.0799000263214111,1.9179999828338623,-2.1684000492095947
1702300192267731700,28.839731689453124,4.119800090789795,1.2892999649047852,-2.1024999618530273
1702300192327731700,28.899731689453127,0.22199998795986176,-0.2586999833583832,-2.9839999675750732
1702300192387731700,28.959731689453125,1.5410000085830688,0.1574999988079071,-2.9724998474121094
1702300192447731700,29.019731689453124,3.211400032043457,-0.23680000007152557,-5.23390007019043
1702300192507731700,29.079731689453126,1.473699927330017,-0.7468999624252319,-2.5820000171661377
1702300192567731700,29.139731689453125,-4.352200031280518,-2.75849986076355,-2.469399929046631
1702300192627733200,29.199733154296876,-1.5902999639511108,-4.6041998863220215,1.4254000186920166
1702300192687731700,29.259731689453126,-6.718099594116211,1.5104999542236328,2.392899990081787
1702300192747731700,29.319731689453125,-3.0878000259399414,2.0074000358581543,-1.4988999366760254
1702300192807731700,29.379731689453124,-4.450699806213379,1.8729000091552734,3.302999973297119
1702300192867731700,29.439731689453126,3.0876998901367188,1.6519999504089355,0.8809999823570251
1702300192927731700,29.499731689453125,1.4163999557495117,0.6787999868392944,-4.132699966430664
1702300192987731700,29.559731689453123,0.840999960899353,1.2069000005722046,0.19329999387264252
1702300193047731700,29.619731689453126,0.3716999888420105,-7.329899787902832,-5.166899681091309
1702300193107731700,29.679731689453124,-4.4263997077941895,-0.29580000042915344,1.2587000131607056
1702300193167731700,29.739731689453127,-5.587299823760986,-2.529899835586548,-3.57669997215271
1702300193227731700,29.799731689453125,-2.7425999641418457,0.910099983215332,-1.781599998474121
1702300193287731700,29.859731689453124,1.240299940109253,1.114799976348877,3.1492998600006104
1702300193347731700,29.919731689453126,-2.251800060272217,1.990799903869629,-0.45879998803138733
1702300193407731700,29.979731689453125,0.2667999863624573,1.5906999111175537,-1.8787999153137207
1702300193467731700,30.039731689453124,3.7724997997283936,0.5539000034332275,-1.7587000131607056
1702300193527731700,30.099731689453126,1.7130999565124512,-0.11549999564886093,-3.024199962615967
1702300193587731700,30.159731689453125,5.207399845123291,0.056699998676776886,-2.9768998622894287
1702300193647731700,30.219731689453123,6.165299892425537,-0.24929998815059662,-4.786799907684326
1702300193707731700,30.279731689453126,-9.720199584960938,-2.5673999786376953,-4.6844000816345215
1702300193767731700,30.339731689453124,4.858500003814697,-8.707200050354004,-5.796000003814697
1702300193827731700,30.399731689453127,-6.843999862670898,-0.44269999861717224,5.752999782562256
1702300193887731700,30.459731689453125,-4.672800064086914,3.5151000022888184,0.3538999855518341
1702300193947731700,30.519731689453124,-6.180299758911133,3.6806998252868652,5.098700046539307
1702300194007731700,30.579731689453126,-1.7839999198913574,1.3686000108718872,4.354300022125244
1702300194067731700,30.639731689453125,11.340700149536133,-4.59660005569458,-8.815999984741211
1702300194127731700,30.699731689453124,-0.3264999985694885,-1.1098999977111816,-3.904599905014038
1702300194187731700,30.759731689453126,-6.0706000328063965,1.9778999090194702,3.6526999473571777
1702300194247731700,30.819731689453125,-7.523499965667725,-2.399399995803833,-0.3837999999523163
1702300194307731700,30.879731689453124,-3.487499952316284,-1.4438999891281128,-3.8407998085021973
1702300194367731700,30.939731689453126,-3.590399980545044,0.8118000030517578,-2.112799882888794
1702300194427731700,30.999731689453125,0.20399999618530273,1.8118000030517578,2.168299913406372
1702300194487731700,31.059731689453123,-1.493399977684021,2.028899908065796,-0.11639999598264694
1702300194547731700,31.119731689453126,-0.8371999859809875,1.9874999523162842,-2.359099864959717
1702300194607731700,31.179731689453124,7.016899585723877,0.8905999660491943,-1.0938999652862549
1702300194667731700,31.239731689453127,-0.41279998421669006,-0.021299999207258224,-2.639400005340576
1702300194727731700,31.299731689453125,4.021699905395508,1.0649999380111694,-4.530399799346924
1702300194787731700,31.359731689453124,5.5351996421813965,-0.5277999639511108,-4.618799686431885
1702300194847731700,31.419731689453126,-10.455599784851074,-2.8444998264312744,-7.257699966430664
1702300194907731700,31.479731689453125,-0.4763000011444092,-5.866499900817871,-5.631399631500244
1702300194967731700,31.539731689453124,-6.734999656677246,-0.5214999914169312,5.024600028991699
1702300195027731700,31.599731689453126,-4.73799991607666,3.2791998386383057,1.0996999740600586
1702300195087731700,31.659731689453125,-6.218899726867676,3.2049999237060547,4.202199935913086
1702300195147731700,31.719731689453123,-1.7103999853134155,-0.20749999582767487,4.858599662780762
1702300195207731700,31.779731689453126,15.132099151611328,-4.687699794769287,-8.24389934539795
1702300195267731700,31.839731689453124,-3.213599920272827,5.077300071716309,-5.2829999923706055
1702300195327731700,31.899731689453127,-3.490299940109253,1.496399998664856,1.7618999481201172
1702300195387731700,31.959731689453125,-9.532599449157715,-6.744899749755859,-4.137700080871582
1702300195447731700,32.019731689453124,-5.9704999923706055,0.31849998235702515,0.29249998927116394
1702300195507731700,32.079731689453126,-3.5936999320983887,-3.897899866104126,-3.9265999794006348
1702300195567731700,32.13973168945312,0.7642999887466431,2.4744999408721924,2.1310999393463135
1702300195627733200,32.19973315429687,0.6980999708175659,1.4735000133514404,1.0109000205993652
1702300195687731700,32.259731689453126,-2.708099842071533,3.720899820327759,-1.1841999292373657
1702300195747731700,32.31973168945313,2.4428999423980713,1.5030999183654785,-3.4141998291015625
1702300195807731700,32.37973168945312,2.3852999210357666,-0.3886999785900116,-3.4221999645233154
1702300195867731700,32.439731689453126,5.006199836730957,0.3594000041484833,-4.89769983291626
1702300195927731700,32.49973168945313,-0.8374999761581421,0.2886999845504761,-3.9275999069213867
1702300195987731700,32.55973168945312,-4.869800090789795,-2.592399835586548,-4.658599853515625
1702300196047731700,32.619731689453126,4.293499946594238,-9.332900047302246,-4.301700115203857
1702300196107731700,32.67973168945313,-9.224199295043945,-0.538100004196167,5.732999801635742
1702300196167731700,32.73973168945312,-2.3866000175476074,2.2114999294281006,3.3808999061584473
1702300196227731700,32.799731689453125,-4.74869966506958,3.1999998092651367,1.611299991607666
1702300196287731700,32.85973168945313,-3.09689998626709,1.6744999885559082,3.292799949645996
1702300196347731700,32.91973168945312,18.697898864746094,-2.345099925994873,-10.280499458312988
1702300196407731700,32.979731689453125,-2.847899913787842,3.9343998432159424,-2.3394999504089355
1702300196467731700,33.03973168945313,-1.9674999713897705,-2.3797998428344727,0.26109999418258667
1702300196527731700,33.09973168945312,-9.355799674987793,-1.900999903678894,2.2637999057769775
1702300196587731700,33.159731689453125,-6.3902997970581055,-2.6605000495910645,-1.5491999387741089
1702300196647731700,33.21973168945313,-3.170599937438965,-1.5591999292373657,-4.694999694824219
1702300196707731700,33.27973168945312,0.1388999968767166,1.7596999406814575,2.178299903869629
1702300196767731700,33.339731689453124,-1.904099941253662,1.2894999980926514,1.3633999824523926
1702300196827731700,33.39973168945313,-1.1759999990463257,3.129499912261963,-2.3021998405456543
1702300196887731700,33.45973168945312,2.971099853515625,0.046299997717142105,-3.40559983253479
1702300196947731700,33.519731689453124,1.520799994468689,-0.6495999693870544,-2.6061999797821045
1702300197007731700,33.579731689453126,3.364300012588501,0.6381999850273132,-3.9233999252319336
1702300197067731700,33.63973168945312,0.6067999601364136,0.12489999830722809,-3.335899829864502
1702300197127731700,33.699731689453124,-5.884399890899658,-2.1218998432159424,-3.477299928665161
1702300197187731700,33.759731689453126,3.1862998008728027,-7.737599849700928,-3.8775999546051025
1702300197247731700,33.81973168945313,-7.380899906158447,-0.5485999584197998,4.872999668121338
1702300197307731700,33.87973168945312,-3.5114998817443848,2.475600004196167,2.508699893951416
1702300197367731700,33.939731689453126,-4.845900058746338,3.2045998573303223,2.4665000438690186
1702300197427731700,33.99973168945313,-1.6088999509811401,0.9784999489784241,1.6323999166488647
1702300197487731700,34.05973168945312,10.545099258422852,-1.6419999599456787,-6.162299633026123
1702300197547731700,34.119731689453126,-1.4297999143600464,1.398800015449524,-2.421099901199341
1702300197607731700,34.17973168945313,-0.23819999396800995,-1.5109999179840088,0.39479997754096985
1702300197667731700,34.23973168945312,-4.97029972076416,-3.6148998737335205,-1.6231999397277832
1702300197727731700,34.299731689453125,-6.45419979095459,-1.270900011062622,0.43860000371932983
1702300197787731700,34.35973168945313,-4.1774001121521,-2.3487000465393066,-4.923500061035156
1702300197847731700,34.41973168945312,-0.007799999788403511,2.0281999111175537,1.6532999277114868
1702300197907731700,34.479731689453125,-1.3727999925613403,0.9187999963760376,1.1571999788284302
1702300197967731700,34.53973168945313,-1.7120999097824097,2.5769999027252197,-1.0532000064849854
1702300198027731700,34.59973168945312,-0.6101999878883362,1.6453999280929565,-2.3471999168395996
1702300198087731700,34.659731689453125,3.155099868774414,0.2239999920129776,-1.9368000030517578
1702300198147731700,34.71973168945313,0.3877999782562256,0.2134999930858612,-2.6275999546051025
1702300198207731700,34.77973168945312,4.66540002822876,0.025499999523162842,-1.9208999872207642
1702300198267731700,34.839731689453124,2.841099977493286,0.5748999714851379,-5.638599872589111
1702300198327731700,34.89973168945313,-4.561100006103516,-2.159899950027466,-3.1338999271392822
1702300198387731700,34.95973168945312,-0.8449999690055847,-7.654199600219727,-3.682299852371216
1702300198447731700,35.019731689453124,-3.8239998817443848,-1.2177000045776367,2.3832998275756836
1702300198507731700,35.079731689453126,-5.755300045013428,2.1103999614715576,2.381500005722046
1702300198567731700,35.13973168945312,-4.971299648284912,1.9971998929977417,2.477099895477295
1702300198627733200,35.19973315429687,-3.238999843597412,1.4502999782562256,4.241099834442139
1702300198687731700,35.259731689453126,4.6082000732421875,-0.73499995470047,-5.809899806976318
1702300198747731700,35.31973168945313,0.2150999903678894,3.0892999172210693,-2.8523998260498047
1702300198807731700,35.37973168945312,1.5541999340057373,0.3538999855518341,0.15039999783039093
1702300198867731700,35.439731689453126,-6.364999771118164,-2.0957999229431152,-1.692199945449829
1702300198927731700,35.49973168945313,-6.814199924468994,-1.2430999279022217,0.14649999141693115
1702300198987731700,35.55973168945312,-4.553899765014648,-1.8985999822616577,-2.7609000205993652
1702300199047731700,35.619731689453126,-2.0672998428344727,1.0408999919891357,-2.71589994430542
1702300199107731700,35.67973168945313,-0.7925999760627747,0.8926999568939209,0.9383999705314636
1702300199167731700,35.73973168945312,-0.43449997901916504,2.1029999256134033,0.13599999248981476
1702300199227801900,35.7998017578125,-1.0504000186920166,1.5519999265670776,-2.1210999488830566
1702300199287731700,35.85973168945313,-1.4542999267578125,1.57069993019104,-0.8956999778747559
1702300199347731700,35.91973168945312,5.8730998039245605,-0.043800000101327896,-3.6325998306274414
1702300199407731700,35.979731689453125,-0.006899999920278788,-0.3033999800682068,-3.267899990081787
1702300199467731700,36.03973168945313,5.271299839019775,0.10249999910593033,-5.412399768829346
1702300199527731700,36.09973168945312,1.3524999618530273,0.7294999957084656,-4.181699752807617
1702300199587731700,36.159731689453125,-5.71999979019165,-3.511199951171875,-3.491999864578247
1702300199647731700,36.21973168945313,-0.6624000072479248,-6.65339994430542,-1.8119999170303345
1702300199707733200,36.27973315429688,-5.738100051879883,1.3111000061035156,2.817999839782715
1702300199767731700,36.339731689453124,-4.7480998039245605,2.531100034713745,-0.5166999697685242
1702300199827731700,36.39973168945313,-5.512499809265137,1.8717999458312988,4.355199813842773
1702300199887731700,36.45973168945312,-2.3355000019073486,1.3208999633789062,4.841300010681152
1702300199947731700,36.519731689453124,12.615599632263184,-4.139699935913086,-14.773399353027344
1702300200007731700,36.579731689453126,-3.6644999980926514,3.029399871826172,-0.5303999781608582
1702300200067731700,36.63973168945312,-2.0536999702453613,-2.1417999267578125,-2.36329984664917
1702300200127731700,36.699731689453124,-3.0088999271392822,-2.1103999614715576,2.1427998542785645
1702300200187731700,36.759731689453126,-5.938299655914307,-1.3246999979019165,2.225800037384033
1702300200247731700,36.81973168945313,-5.040999889373779,-2.5911998748779297,-5.245299816131592
1702300200307731700,36.87973168945312,1.0267000198364258,3.721299886703491,0.8269999623298645
1702300200367731700,36.939731689453126,-1.1316999197006226,1.5491999387741089,0.9872999787330627
1702300200427731700,36.99973168945313,-1.831399917602539,2.765699863433838,-1.0151000022888184
1702300200487731700,37.05973168945312,5.831500053405762,0.6495999693870544,-4.233099937438965
1702300200547731700,37.119731689453126,0.39719998836517334,-0.6182000041007996,-2.528899908065796
1702300200607731700,37.17973168945313,2.9378998279571533,-0.2660999894142151,-5.04449987411499
1702300200667731700,37.23973168945312,3.3729000091552734,0.4578000009059906,-4.046099662780762
1702300200727731700,37.299731689453125,-6.119199752807617,-3.813499927520752,-3.3873000144958496
1702300200787731700,37.35973168945313,-0.6503999829292297,-6.164899826049805,-3.516899824142456
1702300200847731700,37.41973168945312,-6.325900077819824,-0.9106999635696411,3.219399929046631
1702300200907731700,37.479731689453125,-3.8626999855041504,1.8381999731063843,2.095599889755249
1702300200967731700,37.53973168945313,-5.279299736022949,2.15559983253479,2.8857998847961426
1702300201027731700,37.59973168945312,-3.0613999366760254,1.9333999156951904,5.79640007019043
1702300201087731700,37.659731689453125,8.670899391174316,-2.992799997329712,-9.500899314880371
1702300201147731700,37.71973168945313,-2.970099925994873,5.471299648284912,-2.4421000480651855
1702300201207731700,37.77973168945312,4.219399929046631,-6.018199920654297,-5.666800022125244
1702300201267731700,37.839731689453124,-2.9684998989105225,-1.9121999740600586,4.718699932098389
1702300201327731700,37.89973168945313,-5.983699798583984,-3.79259991645813,0.8736000061035156
1702300201387731700,37.95973168945312,-4.359499931335449,-2.5732998847961426,-5.608599662780762
1702300201447731700,38.019731689453124,-1.0435999631881714,2.738600015640259,-0.9838999509811401
1702300201507731700,38.079731689453126,-1.3065999746322632,1.9299999475479126,1.8863999843597412
1702300201567731700,38.13973168945312,-1.5022999048233032,2.3264000415802,0.26909998059272766
1702300201627733200,38.19973315429687,2.3441998958587646,1.200600028038025,-3.6962997913360596
1702300201687731700,38.259731689453126,0.2272999882698059,0.9693999886512756,-2.323699951171875
1702300201747731700,38.31973168945313,0.4462999999523163,-0.1873999983072281,-2.6484999656677246
1702300201807731700,38.37973168945312,5.976500034332275,-1.5382999181747437,-4.515699863433838
1702300201867731700,38.439731689453126,1.6779999732971191,0.6179999709129333,-4.566999912261963
1702300201927731700,38.49973168945313,-5.501399993896484,-3.435699939727783,-3.155400037765503
1702300201987731700,38.55973168945312,1.5963999032974243,-6.390699863433838,-1.6103999614715576
1702300202047731700,38.619731689453126,-7.26669979095459,1.1718000173568726,3.3262999057769775
1702300202107731700,38.67973168945313,-4.802700042724609,2.9763998985290527,1.0002000331878662
1702300202167731700,38.73973168945312,-5.820199966430664,2.2886998653411865,4.794699668884277
1702300202227731700,38.799731689453125,-0.9839999675750732,1.1990000009536743,2.4756999015808105
1702300202287731700,38.85973168945313,7.070499897003174,-1.8940999507904053,-10.57289981842041
1702300202347731700,38.91973168945312,-0.901199996471405,2.6750998497009277,-1.4852999448776245
1702300202407731700,38.979731689453125,-9.154699325561523,-6.372699737548828,0.8995999693870544
1702300202467731700,39.03973168945313,-5.446700096130371,0.07189999520778656,4.613999843597412
1702300202527731700,39.09973168945312,-6.435199737548828,-2.9176998138427734,-5.815199851989746
1702300202587731700,39.159731689453125,1.3257999420166016,3.6579999923706055,-1.0806999206542969
1702300202647731700,39.21973168945313,-1.1789000034332275,1.56659996509552,1.6096999645233154
1702300202707731700,39.27973168945312,-1.64739990234375,2.600299835205078,-0.5722000002861023
1702300202767731700,39.339731689453124,0.968999981880188,0.19359999895095825,-3.566999912261963
1702300202827731700,39.39973168945313,3.125699996948242,-0.5446999669075012,-2.790599822998047
1702300202887731700,39.45973168945312,0.2888000011444092,-0.23229999840259552,-7.200500011444092
1702300202947731700,39.519731689453124,3.3005998134613037,-0.8334999680519104,-4.445699691772461
1702300203007731700,39.579731689453126,-5.175899982452393,-3.36080002784729,-2.7904999256134033
1702300203067731700,39.63973168945312,-1.399999976158142,-7.70229959487915,0.22739998996257782
1702300203127731700,39.699731689453124,-5.836799621582031,-0.11919999867677689,3.0436999797821045
1702300203187731700,39.759731689453126,-5.634099960327148,3.2015998363494873,0.4551999866962433
1702300203247731700,39.81973168945313,-3.78059983253479,2.6459999084472656,1.4858999252319336
1702300203307731700,39.87973168945312,-0.005200000014156103,1.7174999713897705,1.4988999366760254
1702300203367731700,39.939731689453126,10.258299827575684,-1.226199984550476,-4.7855000495910645
1702300203427731700,39.99973168945313,-2.316499948501587,1.0885000228881836,-1.5540999174118042
1702300203487731700,40.05973168945312,1.011799931526184,-5.196700096130371,-3.4918999671936035
1702300203547731700,40.119731689453126,-2.297499895095825,-1.4006999731063843,2.7792999744415283
1702300203607731700,40.17973168945313,-7.10159969329834,-1.4816999435424805,-0.3783999979496002
1702300203667731700,40.23973168945312,-5.0289998054504395,-0.9299999475479126,-4.601399898529053
1702300203727731700,40.299731689453125,4.039400100708008,3.156599998474121,3.4502999782562256
1702300203787731700,40.35973168945313,-2.0302999019622803,1.4584999084472656,-0.8968999981880188
1702300203847731700,40.41973168945312,-1.3157999515533447,2.3169000148773193,-1.8243999481201172
1702300203907731700,40.479731689453125,4.965799808502197,0.45889997482299805,-1.5645999908447266
1702300203967731700,40.53973168945313,0.5830999612808228,0.14749999344348907,-3.459199905395508
1702300204027731700,40.59973168945312,3.8987998962402344,0.7623999714851379,-4.593100070953369
1702300204087731700,40.659731689453125,3.9422998428344727,0.2540999948978424,-3.2677998542785645
1702300204147731700,40.71973168945313,-7.967899799346924,-3.745699882507324,-4.293299674987793
1702300204207731700,40.77973168945312,2.5364999771118164,-7.962599754333496,-3.808300018310547
1702300204267731700,40.839731689453124,-7.277799606323242,0.17479999363422394,3.44599986076355
1702300204327731700,40.89973168945313,-4.576999664306641,2.6880998611450195,1.046199917793274
1702300204387731700,40.95973168945312,-4.6255998611450195,2.3588998317718506,4.775399684906006
1702300204447731700,41.019731689453124,-2.9545998573303223,1.6000999212265015,4.86359977722168
1702300204507731700,41.079731689453126,8.992899894714355,-5.032700061798096,-10.939199447631836
1702300204567733200,41.13973315429688,-2.9126999378204346,3.285599946975708,-1.9078999757766724
1702300204627733200,41.19973315429687,-1.4391999244689941,-1.6095999479293823,-2.9945998191833496
1702300204687731700,41.259731689453126,-6.834799766540527,-1.709299921989441,3.70389986038208
1702300204747731700,41.31973168945313,-6.503499984741211,-2.5009000301361084,-1.767899990081787
1702300204807731700,41.37973168945312,-4.408999919891357,-0.6462000012397766,-4.902599811553955
1702300204867731700,41.439731689453126,0.16409999132156372,1.3394999504089355,0.6290000081062317
1702300204927731700,41.49973168945313,-2.4373998641967773,1.4759999513626099,1.400499939918518
1702300204987731700,41.55973168945312,-0.26749998331069946,1.607800006866455,-2.134500026702881
1702300205047731700,41.619731689453126,6.174900054931641,2.4321000576019287,-3.372999906539917
1702300205107731700,41.67973168945313,-0.4056999981403351,-0.6171999573707581,-2.458699941635132
1702300205167731700,41.73973168945312,4.5640997886657715,0.4348999857902527,-3.1081998348236084
1702300205227731700,41.799731689453125,2.5147998332977295,-0.04079999774694443,-5.191699981689453
1702300205287731700,41.85973168945313,-6.426699638366699,-3.4308998584747314,-1.983699917793274
1702300205347731700,41.91973168945312,-2.6294000148773193,-5.694999694824219,-3.2390999794006348
1702300205407731700,41.979731689453125,-5.977299690246582,-0.6182000041007996,2.993000030517578
1702300205467731700,42.03973168945313,-4.894899845123291,2.0423998832702637,2.8088998794555664
1702300205527731700,42.09973168945312,-4.647599697113037,2.93179988861084,2.0309998989105225
1702300205587731700,42.159731689453125,-4.019999980926514,1.4603999853134155,4.509399890899658
1702300205647731700,42.21973168945313,12.179100036621094,-4.097499847412109,-11.313799858093262
1702300205707731700,42.27973168945312,-4.497900009155273,4.602399826049805,-3.1887998580932617
1702300205767731700,42.339731689453124,-1.7269999980926514,-7.917599678039551,-4.240900039672852
1702300205827731700,42.39973168945313,-3.4915997982025146,-0.12789998948574066,4.252500057220459
1702300205887731700,42.45973168945312,-5.110899925231934,-2.394399881362915,-1.378600001335144
1702300205947731700,42.519731689453124,-4.164499759674072,0.7074999809265137,-1.5886999368667603
1702300206007731700,42.579731689453126,0.5196999907493591,1.8920999765396118,-0.04569999873638153
1702300206067731700,42.63973168945312,-0.8041999936103821,2.03629994392395,-0.28290000557899475
1702300206127731700,42.699731689453124,-1.0296999216079712,1.114799976348877,-2.745299816131592
1702300206187731700,42.759731689453126,0.995199978351593,1.9082999229431152,-1.729099988937378
1702300206247731700,42.81973168945313,1.0925999879837036,1.4208999872207642,-2.360599994659424
1702300206307731700,42.87973168945312,1.205899953842163,1.4469000101089478,-2.8120999336242676
1702300206367731700,42.939731689453126,2.8989999294281006,2.553499937057495,-6.886499881744385
1702300206427731700,42.99973168945313,2.263200044631958,-2.5199999809265137,-7.148699760437012
1702300206487731700,43.05973168945312,-3.05679988861084,-9.304499626159668,-0.9982999563217163
1702300206547731700,43.119731689453126,-2.3731000423431396,-1.9435999393463135,0.9179999828338623
1702300206607731700,43.17973168945313,-7.152799606323242,2.6861000061035156,2.5789999961853027
1702300206667731700,43.23973168945312,-3.6310999393463135,2.5532000064849854,0.36319997906684875
1702300206727731700,43.299731689453125,-7.7052998542785645,2.553799867630005,3.260200023651123
1702300206787731700,43.35973168945313,3.38919997215271,-0.19820000231266022,3.64520001411438
1702300206847731700,43.41973168945312,6.127999782562256,-2.2605998516082764,-9.276000022888184
1702300206907731700,43.479731689453125,-3.0673999786376953,3.5209999084472656,-0.11369999498128891
1702300206967731700,43.53973168945313,0.31349998712539673,-7.706299781799316,-11.936200141906738
1702300207027731700,43.59973168945312,-2.7242000102996826,1.240299940109253,9.988699913024902
1702300207087731700,43.659731689453125,-5.171299934387207,-2.350299835205078,-1.0055999755859375
1702300207147731700,43.71973168945313,-3.9362998008728027,-1.427299976348877,-1.5741000175476074
1702300207207731700,43.77973168945312,-4.455399990081787,1.263800024986267,-0.15039999783039093
1702300207267731700,43.839731689453124,3.1467998027801514,0.97489994764328,-0.2886999845504761
1702300207327731700,43.89973168945313,-2.437199831008911,2.143699884414673,-0.986799955368042
1702300207387731700,43.95973168945312,1.3736000061035156,2.315500020980835,-3.879199981689453
1702300207447731700,44.019731689453124,4.78849983215332,-0.1265999972820282,-3.550999879837036
1702300207507731700,44.079731689453126,3.6810998916625977,-0.6603999733924866,-1.8596999645233154
1702300207567731700,44.13973168945312,3.4133999347686768,-1.0271999835968018,-6.127500057220459
1702300207627731700,44.199731689453124,-6.774799823760986,-1.9641000032424927,-3.2836999893188477
1702300207687731700,44.259731689453126,2.3351998329162598,-8.946100234985352,-3.765199899673462
1702300207747731700,44.31973168945313,-6.711799621582031,-0.9553999900817871,3.048499822616577
1702300207807731700,44.37973168945312,-4.992599964141846,1.9951999187469482,2.100299835205078
1702300207867731700,44.439731689453126,-5.021199703216553,3.456699848175049,4.255300045013428
1702300207927731700,44.49973168945313,-4.0665998458862305,1.805299997329712,4.352200031280518
1702300207987731700,44.55973168945312,12.116799354553223,-4.4629998207092285,-11.638699531555176
1702300208047731700,44.619731689453126,-3.118000030517578,5.5742998123168945,-2.7967000007629395
1702300208107731700,44.67973168945313,-0.062199998646974564,-5.323800086975098,-4.567500114440918
1702300208167731700,44.73973168945312,-3.3257999420166016,-1.4143999814987183,5.90369987487793
1702300208227731700,44.799731689453125,-6.462800025939941,-2.617799997329712,-1.8442999124526978
1702300208287731700,44.85973168945313,-4.792900085449219,-1.2130999565124512,-5.026299953460693
1702300208347731700,44.91973168945312,1.4448999166488647,2.297600030899048,2.947999954223633
1702300208407731700,44.979731689453125,-1.3626999855041504,1.8437999486923218,0.7971000075340271
1702300208467731700,45.03973168945313,-2.55049991607666,3.0082998275756836,-0.243599995970726
1702300208527731700,45.09973168945312,1.9635999202728271,-1.1187999248504639,-4.256999969482422
1702300208587731700,45.159731689453125,1.9332998991012573,0.7738999724388123,-1.2832999229431152
1702300208647731700,45.21973168945313,-0.3896999955177307,-0.14999999105930328,-4.950200080871582
1702300208707731700,45.27973168945312,6.686999797821045,-0.6126999855041504,-3.9735000133514404
1702300208767731700,45.339731689453124,-3.6445000171661377,-2.0393998622894287,-3.244799852371216
1702300208827731700,45.39973168945313,-2.1213998794555664,-5.989799976348877,-3.543099880218506
1702300208887731700,45.45973168945312,-4.936500072479248,-2.47189998626709,2.2368998527526855
1702300208947731700,45.519731689453124,-6.871699810028076,2.743299961090088,1.4285999536514282
1702300209007731700,45.579731689453126,-5.647599697113037,3.268899917602539,0.17399999499320984
1702300209067731700,45.63973168945312,-3.1631999015808105,1.4448999166488647,3.9296000003814697
1702300209127731700,45.699731689453124,5.604799747467041,-1.191999912261963,-4.2764997482299805
1702300209187731700,45.759731689453126,-1.3350999355316162,3.204900026321411,-0.24309998750686646
1702300209247731700,45.81973168945313,7.82289981842041,-3.0516998767852783,-8.807999610900879
1702300209307731700,45.87973168945312,-4.653800010681152,0.03920000046491623,1.9016000032424927
1702300209367731700,45.939731689453126,-6.27679967880249,-1.9585999250411987,-0.08150000125169754
1702300209427731700,45.99973168945313,-4.9918999671936035,-2.1006999015808105,-4.328399658203125
1702300209487731700,46.05973168945312,-0.8030999898910522,2.196899890899658,-1.0765999555587769
1702300209547731700,46.119731689453126,-0.7493999600410461,2.051100015640259,1.436900019645691
1702300209607731700,46.17973168945313,-0.18239998817443848,2.3573999404907227,-0.11459999531507492
1702300209667731700,46.23973168945312,0.20349998772144318,0.8615999817848206,-2.9442999362945557
1702300209727731700,46.299731689453125,2.677000045776367,0.008299999870359898,-3.97979998588562
1702300209787731700,46.35973168945313,0.06830000132322311,-0.48799997568130493,-4.580599784851074
1702300209847731700,46.41973168945312,6.156599998474121,-1.4247000217437744,-5.454099655151367
1702300209907731700,46.479731689453125,-3.359799861907959,-1.8696999549865723,-0.26909998059272766
1702300209967731700,46.53973168945313,-3.885199785232544,-4.854300022125244,-1.2150999307632446
1702300210027731700,46.59973168945312,-3.6915998458862305,-0.43539997935295105,0.9078999757766724
1702300210087731700,46.659731689453125,-5.810400009155273,1.5570999383926392,1.9423999786376953
1702300210147731700,46.71973168945313,-4.8454999923706055,1.0139999389648438,1.6689000129699707
1702300210207731700,46.77973168945312,-4.023399829864502,1.5687999725341797,3.22379994392395
1702300210267731700,46.839731689453124,2.656899929046631,0.05509999766945839,-4.899799823760986
1702300210327731700,46.89973168945313,-1.9651999473571777,3.787899971008301,-5.686399936676025
1702300210387731700,46.95973168945312,1.0684999227523804,-7.573400020599365,-7.303599834442139
1702300210447731700,47.019731689453124,2.4529998302459717,0.7806999683380127,11.295299530029297
1702300210507731700,47.079731689453126,-7.524799823760986,-4.838399887084961,-3.7421998977661133
1702300210567731700,47.13973168945312,-3.6639997959136963,2.0952999591827393,-6.807499885559082
1702300210627731700,47.199731689453124,-2.4960999488830566,1.511799931526184,-2.822499990463257
1702300210687731700,47.259731689453126,-1.7851999998092651,1.1863999366760254,1.222599983215332
1702300210747731700,47.31973168945313,2.269199848175049,0.9722999930381775,0.8091999888420105
1702300210807731700,47.37973168945312,-1.1318999528884888,2.1152000427246094,-2.420300006866455
1702300210867731700,47.439731689453126,3.294999837875366,0.2611999809741974,-4.5727996826171875
1702300210927731700,47.49973168945313,1.784999966621399,-0.4641999900341034,-3.2654998302459717
1702300210987731700,47.55973168945312,4.0441999435424805,-0.23499999940395355,-4.623799800872803
1702300211047731700,47.619731689453126,0.4664999842643738,-1.6193000078201294,-3.4735000133514404
1702300211107731700,47.67973168945313,-3.7109999656677246,-5.874499797821045,-2.786900043487549
1702300211167731700,47.73973168945312,-4.474100112915039,-1.1370999813079834,1.9839999675750732
1702300211227731700,47.799731689453125,-3.982599973678589,1.767300009727478,1.7110999822616577
1702300211287731700,47.85973168945313,-3.808499813079834,1.1453999280929565,0.4174000024795532
1702300211347731700,47.91973168945312,-4.5106000900268555,1.9649999141693115,4.261699676513672
1702300211407731700,47.979731689453125,0.47849997878074646,1.3777999877929688,0.5221999883651733
1702300211467731700,48.03973168945313,3.728799819946289,0.4408999979496002,-9.427499771118164
1702300211527731700,48.09973168945312,0.4136999845504761,-0.4090999960899353,-4.6240997314453125
1702300211587731700,48.159731689453125,-7.590199947357178,-1.2218999862670898,3.4151999950408936
1702300211647731700,48.21973168945313,-4.424999713897705,-1.0351999998092651,6.268199920654297
1702300211707731700,48.27973168945312,-5.543799877166748,-4.140599727630615,-3.293299913406372
1702300211767731700,48.339731689453124,-2.2289998531341553,2.1240999698638916,-4.614099979400635
1702300211827731700,48.39973168945313,-0.8769999742507935,1.6196999549865723,-1.2944999933242798
1702300211887731700,48.45973168945312,-0.7573999762535095,1.907099962234497,1.2977999448776245
1702300211947731700,48.519731689453124,0.8271999955177307,1.3622000217437744,-2.49429988861084
1702300212007731700,48.579731689453126,-0.28619998693466187,1.8253999948501587,-2.0497000217437744
1702300212067731700,48.63973168945312,3.2981998920440674,0.12520000338554382,-3.0007998943328857
1702300212127731700,48.699731689453124,1.1728999614715576,0.13509999215602875,-3.154399871826172
1702300212187731700,48.759731689453126,4.515699863433838,-1.0262999534606934,-5.514400005340576
1702300212247731700,48.81973168945313,-0.3571999967098236,-1.2111999988555908,-3.7570998668670654
1702300212307731700,48.87973168945312,-3.5881998538970947,-4.15339994430542,-3.50849986076355
1702300212367731700,48.939731689453126,-2.562700033187866,-3.8845999240875244,0.7003999948501587
1702300212427731700,48.99973168945313,-6.202199935913086,1.4538999795913696,2.797999858856201
1702300212487731700,49.05973168945312,-4.150099754333496,2.41129994392395,0.18769998848438263
1702300212547731700,49.119731689453126,-4.425899982452393,1.1998000144958496,4.185800075531006
1702300212607731700,49.17973168945313,-0.9343000054359436,1.857699990272522,1.6301000118255615
1702300212667731700,49.23973168945312,7.256999969482422,-0.21329998970031738,-10.21519947052002
1702300212727731700,49.299731689453125,-1.378000020980835,2.162600040435791,-1.0267000198364258
1702300212787731700,49.35973168945313,-0.44759997725486755,-5.095799922943115,0.5051000118255615
1702300212847731700,49.41973168945312,-6.478499889373779,-0.5069000124931335,-1.449299931526184
1702300212907731700,49.479731689453125,-6.865299701690674,-0.988099992275238,-1.1549999713897705
1702300212967731700,49.53973168945313,-3.9549999237060547,-2.3431999683380127,-3.471400022506714
1702300213027731700,49.59973168945312,1.716399908065796,1.2414000034332275,2.531899929046631
1702300213087731700,49.659731689453125,-0.38609999418258667,1.5724999904632568,1.1517000198364258
1702300213147731700,49.71973168945313,-2.0899999141693115,2.20169997215271,-2.2353999614715576
1702300213207731700,49.77973168945312,5.213399887084961,1.3869999647140503,-1.8524999618530273
1702300213267731700,49.839731689453124,-1.5918999910354614,0.866599977016449,-3.3402998447418213
1702300213327731700,49.89973168945313,2.607499837875366,1.1973999738693237,-3.8420000076293945
1702300213387731700,49.95973168945312,3.907899856567383,1.26010000705719,-4.554800033569336
1702300213447731700,50.019731689453124,-5.123499870300293,0.6439999938011169,-3.8999998569488525
1702300213507731700,50.079731689453126,-3.6952998638153076,-5.5127997398376465,-4.42609977722168
1702300213567731700,50.13973168945312,-3.3564999103546143,-3.3671998977661133,0.07959999889135361
1702300213627733200,50.19973315429687,-3.2191998958587646,1.3954999446868896,3.360499858856201
1702300213687731700,50.259731689453126,-3.408399820327759,3.2393999099731445,3.4398999214172363
1702300213747731700,50.31973168945313,-4.400099754333496,1.563499927520752,5.23829984664917
1702300213807731700,50.37973168945312,-1.0328999757766724,-0.2775999903678894,2.648699998855591
1702300213867731700,50.439731689453126,14.306999206542969,-2.140899896621704,-11.196199417114258
1702300213927731700,50.49973168945313,-2.1522998809814453,5.762700080871582,-5.19350004196167
1702300213987731700,50.55973168945312,-8.700499534606934,-7.137899875640869,-0.23499999940395355
1702300214047731700,50.619731689453126,-3.9178998470306396,-1.4251999855041504,3.0020999908447266
1702300214107731700,50.67973168945313,-6.7195000648498535,-1.4508999586105347,-1.3436999320983887
1702300214167731700,50.73973168945312,-4.075200080871582,0.8883000016212463,-1.4811999797821045
1702300214227731700,50.799731689453125,8.629499435424805,1.6568999290466309,3.686499834060669
1702300214287731700,50.85973168945313,-1.6126999855041504,1.934499979019165,-1.2862999439239502
1702300214347731700,50.91973168945312,3.2054998874664307,2.813499927520752,-3.9056999683380127
1702300214407731700,50.979731689453125,-1.3600000143051147,0.8860999941825867,-2.9350998401641846
1702300214467731700,51.03973168945313,2.2893998622894287,-1.549899935722351,-3.274199962615967
1702300214527731700,51.09973168945312,4.291599750518799,-1.6208000183105469,-6.596999645233154
1702300214587731700,51.159731689453125,-3.1384999752044678,-0.3596999943256378,-3.4293999671936035
1702300214647731700,51.21973168945313,-3.312299966812134,-4.341300010681152,-2.7242000102996826
1702300214707731700,51.27973168945312,-5.604399681091309,-0.975600004196167,1.9287999868392944
1702300214767731700,51.339731689453124,-5.670499801635742,2.4814000129699707,2.1298999786376953
1702300214827731700,51.39973168945313,-4.8831000328063965,2.3013999462127686,-0.20520000159740448
1702300214887731700,51.45973168945312,-4.741600036621094,1.7558000087738037,3.7122998237609863
1702300214947731700,51.519731689453124,4.132999897003174,-1.4063999652862549,-1.8260999917984009
1702300215007731700,51.579731689453126,1.6964999437332153,5.055699825286865,-2.091599941253662
1702300215067733200,51.63973315429688,-0.343999981880188,-0.8367999792098999,-3.4358999729156494
1702300215127731700,51.699731689453124,-4.6138997077941895,-2.853600025177002,-5.578700065612793
1702300215187731700,51.759731689453126,-3.96209979057312,-0.007899999618530273,6.333099842071533
1702300215247731700,51.81973168945313,-7.082200050354004,-2.1545000076293945,-1.4498000144958496
1702300215307731700,51.87973168945312,-4.848899841308594,-0.04939999803900719,-4.668699741363525
1702300215367731700,51.939731689453126,5.728399753570557,1.1668999195098877,1.7798999547958374
1702300215427731700,51.99973168945313,-2.2414000034332275,2.270900011062622,0.2028999924659729
1702300215487731700,52.05973168945312,-1.9769999980926514,2.5922000408172607,-1.382200002670288
1702300215547731700,52.119731689453126,6.085399627685547,0.5486999750137329,-3.4945998191833496
1702300215607731700,52.17973168945313,0.9383999705314636,-0.20399999618530273,-3.027400016784668
1702300215667731700,52.23973168945312,7.417599678039551,-0.2337999939918518,-6.054199695587158
1702300215727731700,52.299731689453125,-0.6807000041007996,-1.4882999658584595,-4.705399990081787
1702300215787731700,52.35973168945313,-5.2565999031066895,-2.6923999786376953,-3.6103999614715576
1702300215847731700,52.41973168945312,0.36139997839927673,-4.894799709320068,-1.4290999174118042
1702300215907731700,52.479731689453125,-5.777499675750732,1.5378999710083008,3.392400026321411
1702300215967731700,52.53973168945313,-4.933099746704102,3.1118998527526855,1.0678999423980713
1702300216027731700,52.59973168945312,-6.2058000564575195,2.1468000411987305,4.672999858856201
1702300216087731700,52.659731689453125,-2.1160998344421387,1.0378999710083008,3.007999897003174
1702300216147731700,52.71973168945313,12.363800048828125,-2.6414999961853027,-12.706799507141113
1702300216207731700,52.77973168945312,-0.5051999688148499,4.871699810028076,-1.8197999000549316
1702300216267731700,52.839731689453124,-1.4675999879837036,-8.841400146484375,-1.8127999305725098
1702300216327731700,52.89973168945313,-4.783299922943115,1.0042999982833862,5.3414998054504395
1702300216387731700,52.95973168945312,-6.711599826812744,-4.717799663543701,-4.220399856567383
1702300216447731700,53.019731689453124,-0.5568999648094177,2.308799982070923,-3.3890998363494873
1702300216507731700,53.079731689453126,1.2156999111175537,1.0282000303268433,0.0940999984741211
1702300216567731700,53.13973168945312,-3.151599884033203,2.2230000495910645,1.1447999477386475
1702300216627733200,53.19973315429687,0.10939999669790268,2.310299873352051,-1.9954999685287476
1702300216687731700,53.259731689453126,2.1895999908447266,1.903899908065796,-3.993699789047241
1702300216747731700,53.31973168945313,3.7651000022888184,-0.58160001039505,-3.065999984741211
1702300216807731700,53.37973168945312,3.517899990081787,-0.6934999823570251,-4.2179999351501465
1702300216867731700,53.439731689453126,2.4839999675750732,2.556299924850464,-3.279599905014038
1702300216927731700,53.49973168945313,-7.334099769592285,-4.6342997550964355,-7.634199619293213
1702300216987731700,53.55973168945312,3.5394999980926514,-7.059599876403809,-1.8858999013900757
1702300217047731700,53.619731689453126,-7.017699718475342,-0.006099999882280827,3.204699993133545
1702300217107731700,53.67973168945313,-3.3616998195648193,3.4687998294830322,0.5934999585151672
1702300217167731700,53.73973168945312,-5.706500053405762,2.1385998725891113,6.031300067901611
1702300217227731700,53.799731689453125,-2.2030999660491943,2.4672000408172607,6.008599758148193
1702300217287731700,53.85973168945313,18.386699676513672,-7.655900001525879,-17.17599868774414
1702300217347731700,53.91973168945312,-5.948699951171875,5.599499702453613,-3.1994998455047607
1702300217407731700,53.979731689453125,0.20189999043941498,-5.531099796295166,-4.657700061798096
1702300217467731700,54.03973168945313,-5.980799674987793,0.006000000052154064,6.3282999992370605
1702300217527731700,54.09973168945312,-5.923199653625488,-4.651599884033203,-5.692399978637695
1702300217587731700,54.159731689453125,-3.688499927520752,1.0444999933242798,-2.3947999477386475
1702300217647731700,54.21973168945313,2.1161999702453613,0.854200005531311,2.040799856185913
1702300217707731700,54.27973168945312,-2.673099994659424,2.3508999347686768,0.8324999809265137
1702300217767731700,54.339731689453124,-0.7123000025749207,2.294299840927124,-1.7477999925613403
1702300217827731700,54.39973168945313,6.557199954986572,1.6597999334335327,-3.0462000370025635
1702300217887731700,54.45973168945312,0.4229999780654907,0.5188999772071838,-4.032299995422363
1702300217947731700,54.519731689453124,9.4173002243042,0.23499999940395355,-4.4096999168396
1702300218007731700,54.579731689453126,0.018299998715519905,-0.9106999635696411,-3.8732998371124268
1702300218067731700,54.63973168945312,-6.247299671173096,-4.175600051879883,-3.8322999477386475
1702300218127731700,54.699731689453124,1.392199993133545,-6.978799819946289,-2.6370999813079834
1702300218187731700,54.759731689453126,-9.71150016784668,0.7321999669075012,4.276400089263916
1702300218247731700,54.81973168945313,-2.25219988822937,4.103099822998047,0.14169999957084656
1702300218307731700,54.87973168945312,-5.5329999923706055,3.1023998260498047,6.481599807739258
1702300218367731700,54.939731689453126,-1.8772999048233032,-0.7793999910354614,1.0867999792099
1702300218427731700,54.99973168945313,0.7215999960899353,5.148299694061279,-2.6083998680114746
1702300218487731700,55.05973168945312,1.302299976348877,-4.732699871063232,-4.658799648284912
1702300218547731700,55.119731689453126,-7.250799655914307,-1.069000005722046,1.156999945640564
1702300218607731700,55.17973168945313,-6.7266998291015625,-0.9034000039100647,-3.5856997966766357
1702300218667731700,55.23973168945312,-2.4463000297546387,-1.2518999576568604,-5.31749963760376
1702300218727731700,55.299731689453125,-2.223299980163574,0.9575999975204468,0.8467999696731567
1702300218787731700,55.35973168945313,-0.5239999890327454,1.214900016784668,1.6686999797821045
1702300218847731700,55.41973168945312,-1.3906999826431274,1.788100004196167,-1.205299973487854
1702300218907731700,55.479731689453125,1.4318000078201294,1.847000002861023,-3.05679988861084
1702300218967731700,55.53973168945313,2.9348998069763184,0.5015999674797058,-1.8357999324798584
1702300219027731700,55.59973168945312,1.1131999492645264,1.097499966621399,-3.020399808883667
1702300219087731700,55.659731689453125,2.2781999111175537,0.19699999690055847,-6.234999656677246
1702300219147731700,55.71973168945313,2.618299961090088,-0.753600001335144,-8.027400016784668
1702300219207731700,55.77973168945312,-3.8090999126434326,-4.116199970245361,-2.3085999488830566
1702300219267731700,55.839731689453124,-3.1243999004364014,-7.14709997177124,-1.8531999588012695
1702300219327731700,55.89973168945313,-3.9151999950408936,1.417699933052063,1.5085999965667725
1702300219387731700,55.95973168945312,-4.656300067901611,2.298799991607666,-2.679299831390381
1702300219447731700,56.019731689453124,-5.1433000564575195,1.542799949645996,4.435199737548828
1702300219507731700,56.079731689453126,-2.510699987411499,2.1736998558044434,5.35699987411499
1702300219567731700,56.13973168945312,4.4532999992370605,2.4644999504089355,-2.549099922180176
1702300219627733200,56.19973315429687,-0.6240999698638916,2.882200002670288,-7.30679988861084
1702300219687731700,56.259731689453126,1.5194000005722046,2.1078999042510986,1.9060999155044556
1702300219747731700,56.31973168945313,-7.73769998550415,-3.0625998973846436,-2.5743000507354736
1702300219807731700,56.37973168945312,-5.6992998123168945,-0.8748999834060669,0.1826999932527542
1702300219867731700,56.439731689453126,-3.562199831008911,-2.234299898147583,-2.762899875640869
1702300219927731700,56.49973168945313,-1.549299955368042,2.235299825668335,-2.1029999256134033
1702300219987731700,56.55973168945312,1.4556999206542969,0.9854999780654907,0.4777999818325043
1702300220047731700,56.619731689453126,-1.396299958229065,2.0256998538970947,-1.1589999198913574
1702300220107731700,56.67973168945313,-1.1310999393463135,2.609299898147583,-1.6098999977111816
1702300220167731700,56.73973168945312,1.592099905014038,0.9394999742507935,-3.472100019454956
1702300220227731700,56.799731689453125,5.632499694824219,-0.25429999828338623,-1.5377999544143677
1702300220287731700,56.85973168945313,-0.41259998083114624,-1.0191999673843384,-3.0583999156951904
1702300220347731700,56.91973168945312,3.3158998489379883,1.0012999773025513,-6.140199661254883
1702300220407731700,56.979731689453125,-5.213699817657471,-2.846799850463867,-2.5787999629974365
1702300220467731700,57.03973168945313,-3.5576999187469482,-3.419299840927124,-1.9850999116897583
1702300220527731700,57.09973168945312,-1.4900999069213867,0.8114999532699585,1.5054999589920044
1702300220587731700,57.159731689453125,-4.325099945068359,2.504999876022339,0.4105999767780304
1702300220647731700,57.21973168945313,-4.213599681854248,1.1316999197006226,1.645900011062622
1702300220707731700,57.27973168945312,-4.346799850463867,1.2518999576568604,4.270899772644043
1702300220767731700,57.339731689453124,-0.9205999970436096,2.625200033187866,1.7231999635696411
1702300220827731700,57.39973168945313,6.253399848937988,0.771399974822998,-13.439199447631836
1702300220887731700,57.45973168945312,-0.5066999793052673,1.476699948310852,-1.570599913597107
1702300220947731700,57.519731689453124,-3.607599973678589,-7.31089973449707,0.69159996509552
1702300221007731700,57.579731689453126,-2.234999895095825,0.2906000018119812,-1.6902999877929688
1702300221067731700,57.63973168945312,-4.374199867248535,-1.329800009727478,-0.19829998910427094
1702300221127731700,57.699731689453124,-2.574199914932251,0.4186999797821045,-1.034600019454956
1702300221187731700,57.759731689453126,-0.3659999966621399,1.3745999336242676,0.5435000061988831
1702300221247731700,57.81973168945313,0.5270999670028687,1.4742999076843262,-0.26330000162124634
1702300221307731700,57.87973168945312,-1.8496999740600586,2.356799840927124,-0.8953999876976013
1702300221367731700,57.939731689453126,1.6143999099731445,2.1217000484466553,-3.370299816131592
1702300221427731700,57.99973168945313,2.0615999698638916,-0.16259999573230743,-3.520399808883667
1702300221487731700,58.05973168945312,1.5239999294281006,-1.1613999605178833,-2.1415998935699463
1702300221547731700,58.119731689453126,1.6232999563217163,-2.7274999618530273,-7.033999919891357
1702300221607731700,58.17973168945313,1.6085999011993408,2.0558998584747314,-1.9490998983383179
1702300221667731700,58.23973168945312,-5.89169979095459,-2.0462000370025635,-1.1883999109268188
1702300221727731700,58.299731689453125,0.11769999563694,-2.4560999870300293,-1.8595999479293823
1702300221787731700,58.35973168945313,-5.2291998863220215,0.16509999334812164,1.5109999179840088
1702300221847731700,58.41973168945312,-2.1654000282287598,1.1196999549865723,-1.1136999130249023
1702300221907731700,58.479731689453125,-5.259399890899658,2.90310001373291,3.82919979095459
1702300221967731700,58.53973168945313,-4.21019983291626,2.958199977874756,4.382299900054932
1702300222027731700,58.59973168945312,12.835199356079102,1.3387999534606934,-8.4552001953125
1702300222087731700,58.659731689453125,-4.203000068664551,2.052500009536743,-2.652899980545044
1702300222147731700,58.71973168945313,0.6207999587059021,3.6885998249053955,5.968999862670898
1702300222207731700,58.77973168945312,-3.0901999473571777,-10.32800006866455,-8.186299324035645
1702300222267731700,58.839731689453124,-8.875999450683594,0.8093999624252319,0.29819998145103455
1702300222327731700,58.89973168945313,-1.8100999593734741,-4.103799819946289,-7.5030999183654785
1702300222387731700,58.95973168945312,-3.9363999366760254,1.0961999893188477,1.7309999465942383
1702300222447731700,59.019731689453124,-0.8224999904632568,-0.4887999892234802,1.4327999353408813
1702300222507731700,59.079731689453126,0.4790000021457672,2.3546998500823975,-3.0052998065948486
1702300222567731700,59.13973168945312,-3.0058999061584473,1.5703999996185303,-1.3634999990463257
1702300222627731700,59.199731689453124,-1.9190999269485474,0.8578999638557434,0.2572999894618988
1702300222687760000,59.259759765625,-0.31039997935295105,2.086899995803833,-2.6208999156951904
1702300222747731700,59.31973168945313,-0.5333999991416931,1.215499997138977,-1.331399917602539
1702300222807731700,59.37973168945312,-1.3315999507904053,-0.6337000131607056,-0.13849999010562897
1702300222867731700,59.439731689453126,1.5848000049591064,0.8678999543190002,0.20389999449253082
1702300222927731700,59.49973168945313,-2.640699863433838,2.407599925994873,-1.0257999897003174
1702300222987731700,59.55973168945312,-2.0736000537872314,1.164199948310852,-2.528899908065796
1702300223047731700,59.619731689453126,-0.5791999697685242,1.362399935722351,-4.150599956512451
1702300223107731700,59.67973168945313,2.6661999225616455,-2.866299867630005,-5.189300060272217
1702300223167731700,59.73973168945312,-1.286099910736084,-2.396399974822998,-5.000400066375732
1702300223227731700,59.799731689453125,-5.363699913024902,-2.044800043106079,-0.19759999215602875
1702300223287731700,59.85973168945313,-1.8398998975753784,0.07069999724626541,0.471699982881546
1702300223347731700,59.91973168945312,-1.0814999341964722,-0.8445999622344971,-1.2710999250411987
1702300223407731700,59.979731689453125,-4.016299724578857,0.7292999625205994,-4.732999801635742
1702300223467731700,60.03973168945313,-4.464999675750732,-0.3154999911785126,-1.4126999378204346
1702300223527731700,60.09973168945312,-4.36899995803833,0.7342000007629395,3.8778998851776123
1702300223587731700,60.159731689453125,-3.221799850463867,2.629499912261963,4.117700099945068
1702300223647731700,60.21973168945313,-3.3738999366760254,3.567199945449829,0.5394999980926514
1702300223707731700,60.27973168945312,0.6599000096321106,1.6373999118804932,-2.7319998741149902
1702300223767731700,60.339731689453124,1.0175999402999878,0.8764999508857727,-0.7863999605178833
1702300223827731700,60.39973168945313,-12.978799819946289,-12.552399635314941,-15.106199264526367
1702300223887731700,60.45973168945312,-7.281199932098389,-0.26499998569488525,7.26230001449585
1702300223947731700,60.519731689453124,-1.6521999835968018,-4.77869987487793,-3.0560998916625977
1702300224007731700,60.579731689453126,-4.5208001136779785,3.8710999488830566,-3.833099842071533
1702300224067731700,60.63973168945312,-1.1962000131607056,0.2572999894618988,-2.7929999828338623
1702300224127731700,60.699731689453124,-0.6079999804496765,1.6617000102996826,-0.6474999785423279
1702300224187731700,60.759731689453126,1.5667999982833862,0.9113999605178833,-1.0931999683380127
1702300224247731700,60.81973168945313,-0.6200999617576599,2.087100028991699,-1.954699993133545
1702300224307731700,60.87973168945312,-0.8894000053405762,3.206199884414673,-2.007699966430664
1702300224367731700,60.939731689453126,3.7242000102996826,1.3853999376296997,-3.398099899291992
1702300224427731700,60.99973168945313,3.1791000366210938,-0.7270999550819397,-3.342599868774414
1702300224487731700,61.05973168945312,4.9091997146606445,-1.6769999265670776,-7.090199947357178
1702300224547731700,61.119731689453126,-3.0388998985290527,-1.030900001525879,-3.1808998584747314
1702300224607731700,61.17973168945313,-2.274399995803833,-5.614799976348877,-3.3869998455047607
1702300224667731700,61.23973168945312,-3.0513999462127686,1.1237000226974487,2.2939000129699707
1702300224727731700,61.299731689453125,-4.447199821472168,1.5413999557495117,0.9686999917030334
1702300224787731700,61.35973168945313,-2.565500020980835,1.924799919128418,0.39659997820854187
1702300224847731700,61.41973168945312,-3.723299980163574,1.861799955368042,2.8792998790740967
1702300224907731700,61.479731689453125,-0.4834999740123749,2.3822999000549316,1.6678999662399292
1702300224967731700,61.53973168945313,4.034899711608887,0.7479999661445618,-7.195899963378906
1702300225027731700,61.59973168945312,-1.114300012588501,3.3685998916625977,-1.9905999898910522
1702300225087731700,61.659731689453125,5.470799922943115,-6.991699695587158,-5.001199722290039
1702300225147731700,61.71973168945313,-5.837499618530273,3.5309998989105225,2.3471999168395996
1702300225207731700,61.77973168945312,-4.6392998695373535,-0.8938999772071838,-1.201300024986267
1702300225267731700,61.839731689453124,-1.8155999183654785,0.4713999927043915,-1.6561999320983887
1702300225327731700,61.89973168945313,1.2831000089645386,0.054099999368190765,0.3003999888896942
1702300225387731700,61.95973168945312,0.08789999783039093,1.0743999481201172,0.6559000015258789
1702300225447731700,62.019731689453124,-2.1019999980926514,1.9144999980926514,-2.3608999252319336
1702300225507731700,62.079731689453126,3.3931000232696533,3.3589999675750732,-3.9161999225616455
1702300225567731700,62.13973168945312,-1.083299994468689,1.9953999519348145,-2.3583998680114746
1702300225627733200,62.19973315429687,1.2583999633789062,0.1298999935388565,-1.9503999948501587
1702300225687731700,62.259731689453126,3.373199939727783,-0.736299991607666,0.10399999469518661
1702300225747731700,62.31973168945313,1.563099980354309,-1.921799898147583,-7.357499599456787
1702300225807731700,62.37973168945312,3.9313998222351074,2.1703999042510986,-4.268799781799316
1702300225867731700,62.439731689453126,-3.3845999240875244,-2.950500011444092,-1.837999939918518
1702300225927731700,62.49973168945313,0.49699997901916504,-4.4934000968933105,-1.080199956893921
1702300225987731700,62.55973168945312,-6.6041998863220215,1.9078999757766724,1.6276999711990356
1702300226047731700,62.619731689453126,-0.21449999511241913,3.694700002670288,-1.2386000156402588
1702300226107731700,62.67973168945313,-1.3101999759674072,1.0568000078201294,2.221299886703491
1702300226167731700,62.73973168945312,0.9246999621391296,1.1825000047683716,3.373699903488159
1702300226227731700,62.799731689453125,3.721099853515625,2.6145999431610107,-4.966899871826172
1702300226287731700,62.85973168945313,0.6065999865531921,4.3526997566223145,-2.97189998626709
1702300226347731700,62.91973168945312,-2.3357999324798584,-8.479599952697754,-11.041199684143066
1702300226407731700,62.979731689453125,-3.9809999465942383,0.33660000562667847,4.855499744415283
1702300226467731700,63.03973168945313,-2.3935999870300293,-3.4628000259399414,-1.0022000074386597
1702300226527731700,63.09973168945312,-4.656099796295166,1.2797999382019043,-2.8592000007629395
1702300226587731700,63.159731689453125,-0.5643999576568604,2.5934998989105225,-1.0483999252319336
1702300226647731700,63.21973168945313,2.0058000087738037,1.2519999742507935,-1.2156999111175537
1702300226707731700,63.27973168945312,0.6226999759674072,0.08739999681711197,-1.337399959564209
1702300226767731700,63.339731689453124,6.51039981842041,1.7044999599456787,-3.5051000118255615
1702300226827731700,63.39973168945313,0.816100001335144,0.5228999853134155,-3.0727999210357666
1702300226887731700,63.45973168945312,1.746899962425232,-1.784999966621399,-3.2020998001098633
1702300226947731700,63.519731689453124,9.830299377441406,-0.4104999899864197,-2.1868999004364014
1702300227007731700,63.579731689453126,-8.066999435424805,-3.920599937438965,-5.672399997711182
1702300227067731700,63.63973168945312,1.3136999607086182,-5.386399745941162,-5.138999938964844
1702300227127731700,63.699731689453124,-5.559299945831299,-0.2639999985694885,2.177000045776367
1702300227187731700,63.759731689453126,-4.784899711608887,2.136199951171875,1.3948999643325806
1702300227247731700,63.81973168945313,-3.498699903488159,3.3736000061035156,4.484699726104736
1702300227307731700,63.87973168945312,-1.9851999282836914,2.1332998275756836,5.388199806213379
1702300227367731700,63.939731689453126,5.00600004196167,-1.9922999143600464,-12.244099617004395
1702300227427731700,63.99973168945313,-2.5939998626708984,0.005399999674409628,-7.478299617767334
1702300227487731700,64.05973168945313,-3.527899980545044,0.4926999807357788,9.908199310302734
1702300227547731700,64.11973168945312,-3.895399808883667,-3.9096999168395996,-8.870299339294434
1702300227607731700,64.17973168945312,-6.054800033569336,1.7913999557495117,0.021299999207258224
1702300227667731700,64.23973168945312,-3.5856997966766357,-2.3051998615264893,-2.194999933242798
1702300227727731700,64.29973168945313,0.7846999764442444,1.4844999313354492,-0.5029999613761902
1702300227787731700,64.35973168945313,0.11819999665021896,1.980799913406372,1.2752000093460083
1702300227847731700,64.41973168945313,-1.029099941253662,2.8873000144958496,-0.03480000048875809
1702300227907731700,64.47973168945313,0.6118999719619751,-0.11289999634027481,-3.8812999725341797
1702300227967731700,64.53973168945312,3.6268999576568604,0.9661999940872192,-1.5640000104904175
1702300228027731700,64.59973168945312,-0.31689998507499695,-0.6656000018119812,-5.305200099945068
1702300228087731700,64.65973168945312,4.714099884033203,-0.8048999905586243,-7.224499702453613
1702300228147731700,64.71973168945313,-1.170699954032898,-0.3360999822616577,-3.4435999393463135
1702300228207731700,64.77973168945313,-6.035699844360352,-4.225899696350098,-2.702199935913086
1702300228267731700,64.83973168945313,-3.580899953842163,0.10759999603033066,0.9312999844551086
1702300228327731700,64.89973168945312,-4.607500076293945,2.4928998947143555,2.211099863052368
1702300228387731700,64.95973168945312,-3.160399913787842,2.462899923324585,-0.9214999675750732
1702300228447731700,65.01973168945312,-3.07669997215271,1.7558999061584473,5.364299774169922
1702300228507731700,65.07973168945313,1.5140999555587769,3.247499942779541,1.9305999279022217
1702300228567731700,65.13973168945313,4.5829997062683105,-0.527899980545044,-9.771599769592285
1702300228627733200,65.19973315429688,1.396399974822998,-0.40950000286102295,-5.869699954986572
1702300228687731700,65.25973168945312,-6.194200038909912,-4.752799987792969,2.612299919128418
1702300228747731700,65.31973168945312,-2.7323999404907227,-2.145599842071533,1.805400013923645
1702300228807731700,65.37973168945312,-4.381999969482422,-1.1445000171661377,-1.816499948501587
1702300228867731700,65.43973168945313,-3.7555999755859375,2.7737998962402344,-1.4340999126434326
1702300228927731700,65.49973168945313,6.003399848937988,2.522199869155884,-0.14180000126361847
1702300228987731700,65.55973168945313,-0.7425000071525574,2.375699996948242,-2.325000047683716
1702300229047731700,65.61973168945312,0.35929998755455017,1.1549999713897705,-2.935499906539917
1702300229107731700,65.67973168945312,6.206599712371826,0.013700000010430813,-4.282899856567383
1702300229167731700,65.73973168945312,1.8249999284744263,-0.8543999791145325,-4.148699760437012
1702300229227731700,65.79973168945313,1.826799988746643,-0.36419999599456787,-2.9937000274658203
1702300229287731700,65.85973168945313,-6.020899772644043,-2.8272998332977295,-4.233599662780762
1702300229347731700,65.91973168945313,3.6359000205993652,-8.42389965057373,-2.5697999000549316
1702300229407731700,65.97973168945313,-9.653399467468262,1.5334999561309814,3.5632998943328857
1702300229467731700,66.03973168945312,-3.907899856567383,3.6999998092651367,-0.4057999849319458
1702300229527731700,66.09973168945312,-6.13539981842041,2.010200023651123,3.6720998287200928
1702300229587731700,66.15973168945312,-2.200700044631958,2.486599922180176,3.5102999210357666
1702300229647731700,66.21973168945313,20.967300415039062,-3.7351999282836914,-16.968399047851562
1702300229707731700,66.27973168945313,-0.9095999598503113,6.700199604034424,-3.7565999031066895
1702300229767731700,66.33973168945313,-11.176300048828125,-7.988099575042725,-1.3668999671936035
1702300229827731700,66.39973168945312,-3.7988998889923096,-1.0543999671936035,4.147299766540527
1702300229887731700,66.45973168945312,-5.7988996505737305,-2.2690000534057617,-1.6562999486923218
1702300229947731700,66.51973168945312,-3.0167999267578125,2.2114999294281006,-2.401099920272827
1702300230007731700,66.57973168945313,4.072400093078613,1.701200008392334,0.14169999957084656
1702300230067731700,66.63973168945313,-1.1482999324798584,2.1773998737335205,-1.5340999364852905
1702300230127731700,66.69973168945313,0.4860999882221222,0.8114999532699585,-4.104700088500977
1702300230187731700,66.75973168945312,4.411299705505371,0.08949999511241913,-3.135200023651123
1702300230247731700,66.81973168945312,2.446899890899658,0.6705999970436096,-2.968600034713745
1702300230307731700,66.87973168945312,5.546299934387207,-0.02419999986886978,-5.106299877166748
1702300230367731700,66.93973168945313,-5.999300003051758,-2.346400022506714,-4.515199661254883
1702300230427733200,66.99973315429688,-1.4783999919891357,-6.405999660491943,-4.884599685668945
1702300230487731700,67.05973168945313,-6.696399688720703,0.8162999749183655,3.6768999099731445
1702300230547731700,67.11973168945312,-6.633199691772461,4.388599872589111,3.4049999713897705
1702300230607731700,67.17973168945312,-6.634399890899658,4.131700038909912,2.9851999282836914
1702300230667731700,67.23973168945312,-1.3459999561309814,1.1549999713897705,3.958199977874756
1702300230727731700,67.29973168945313,15.257699966430664,-4.613800048828125,-9.621099472045898
1702300230787731700,67.35973168945313,-2.9236998558044434,7.933799743652344,-3.270900011062622
1702300230847731700,67.41973168945313,-3.6420998573303223,-6.130499839782715,-8.77549934387207
1702300230907731700,67.47973168945313,-4.565099716186523,-1.5322999954223633,6.190000057220459
1702300230967731700,67.53973168945312,-7.137899875640869,-1.5144000053405762,-0.08309999853372574
1702300231027731700,67.59973168945312,-4.7592997550964355,0.3303000032901764,-3.5432000160217285
1702300231087731700,67.65973168945312,5.816699981689453,3.774899959564209,4.086899757385254
1702300231147731700,67.71973168945313,0.9389999508857727,2.0600998401641846,-1.7491999864578247
1702300231207731700,67.77973168945313,-1.2975999116897583,1.1924999952316284,-3.8384997844696045
1702300231267731700,67.83973168945313,6.397899627685547,0.41259998083114624,-4.2216997146606445
1702300231327731700,67.89973168945312,1.1812999248504639,0.49239999055862427,-4.9166998863220215
1702300231387731700,67.95973168945312,3.4540998935699463,-0.06239999830722809,-5.029599666595459
1702300231447731700,68.01973168945312,-6.8277997970581055,-2.369499921798706,-5.9217000007629395
1702300231507731700,68.07973168945313,5.993499755859375,-9.383199691772461,-4.087699890136719
1702300231567731700,68.13973168945313,-8.074399948120117,1.5277999639511108,4.6514997482299805
1702300231627731700,68.19973168945313,-4.361099720001221,3.857800006866455,0.9631999731063843
1702300231687731700,68.25973168945312,-6.568299770355225,3.154599905014038,4.323299884796143
1702300231747731700,68.31973168945312,-1.9249999523162842,1.937999963760376,5.486599922180176
1702300231807731700,68.37973168945312,15.518199920654297,-7.759199619293213,-15.399699211120605
1702300231867731700,68.43973168945313,-2.3938000202178955,6.02810001373291,-4.562099933624268
1702300231927731700,68.49973168945313,-7.910599708557129,-1.4559999704360962,-0.6031000018119812
1702300231987731700,68.55973168945313,-4.615999698638916,-2.541599988937378,5.451699733734131
1702300232047731700,68.61973168945312,-3.413599967956543,-2.7747998237609863,-1.61899995803833
1702300232107731700,68.67973168945312,-3.6861000061035156,2.569700002670288,-1.4154999256134033
1702300232167731700,68.73973168945312,3.9921998977661133,4.132299900054932,1.4889999628067017
1702300232227731700,68.79973168945313,1.3394999504089355,2.1713998317718506,-2.656100034713745
1702300232287731700,68.85973168945313,-1.6531999111175537,2.131700038909912,-4.005199909210205
1702300232347731700,68.91973168945313,5.218699932098389,-0.7682999968528748,-3.4333999156951904
1702300232407731700,68.97973168945313,5.182399749755859,-1.253999948501587,-4.024600028991699
1702300232467731700,69.03973168945312,6.757099628448486,-2.5585999488830566,-3.1703999042510986
1702300232527731700,69.09973168945312,-5.9695000648498535,-2.6875998973846436,-6.075999736785889
1702300232587731700,69.15973168945312,2.0497000217437744,-10.114699363708496,-4.028800010681152
1702300232647731700,69.21973168945313,-7.671799659729004,0.8712999820709229,3.8160998821258545
1702300232707731700,69.27973168945313,-7.426300048828125,4.500799655914307,-0.4821999967098236
1702300232767731700,69.33973168945313,-7.909299850463867,5.464099884033203,6.315299987792969
1702300232827731700,69.39973168945312,-0.00699999975040555,2.3095998764038086,2.981599807739258
1702300232887731700,69.45973168945312,0.0510999970138073,2.649899959564209,-1.9573999643325806
1702300232947731700,69.51973168945312,-3.2990000247955322,1.291100025177002,-1.8628000020980835
1702300233007731700,69.57973168945313,0.6371999979019165,-4.730099678039551,-3.7936999797821045
1702300233067731700,69.63973168945313,-5.500699996948242,-3.705699920654297,3.95419979095459
1702300233127731700,69.69973168945313,-4.453399658203125,-2.596799850463867,-2.685999870300293
1702300233187731700,69.75973168945312,-2.979599952697754,2.686300039291382,-1.0116000175476074
1702300233247731700,69.81973168945312,5.153199672698975,3.1243999004364014,1.5499999523162842
1702300233307731700,69.87973168945312,-1.4211000204086304,2.412299871444702,-2.3427999019622803
1702300233367731700,69.93973168945313,0.08259999752044678,1.5642999410629272,-3.997499942779541
1702300233427731700,69.99973168945313,2.827899932861328,-0.6398000121116638,-2.8379998207092285
1702300233487731700,70.05973168945313,2.079200029373169,-0.6182000041007996,-5.176199913024902
1702300233547731700,70.11973168945312,7.670499801635742,0.0364999994635582,-2.777099847793579
1702300233607731700,70.17973168945312,-5.995100021362305,-2.0992000102996826,-4.652400016784668
1702300233667731700,70.23973168945312,-0.6349999904632568,-4.565099716186523,-2.9858999252319336
1702300233727731700,70.29973168945313,-5.344699859619141,-0.8130999803543091,2.7578999996185303
1702300233787731700,70.35973168945313,-6.319200038909912,3.569199800491333,2.3645999431610107
1702300233847731700,70.41973168945313,-5.487599849700928,3.807799816131592,0.358599990606308
1702300233907731700,70.47973168945313,-1.2609000205993652,1.649999976158142,5.478699684143066
1702300233967731700,70.53973168945312,8.568399429321289,-1.3899999856948853,-9.41879940032959
1702300234027731700,70.59973168945312,-2.896399974822998,4.92579984664917,-4.566400051116943
1702300234087731700,70.65973168945312,-7.7241997718811035,-1.1962000131607056,-5.209499835968018
1702300234147731700,70.71973168945313,-9.050799369812012,-4.130199909210205,9.149700164794922
1702300234207731700,70.77973168945313,-3.976799964904785,-2.6676998138427734,0.8481000065803528
1702300234267731700,70.83973168945313,-5.208600044250488,0.07400000095367432,-3.7639999389648438
1702300234327731700,70.89973168945312,0.46799999475479126,3.355799913406372,-3.3665997982025146
1702300234387731700,70.95973168945312,-0.007699999958276749,2.704399824142456,-0.9154999852180481
1702300234447731700,71.01973168945312,-0.08940000087022781,2.349599838256836,-1.8437999486923218
1702300234507731700,71.07973168945313,0.6323999762535095,1.0814999341964722,-2.5146000385284424
1702300234567731700,71.13973168945313,3.916299819946289,-0.6064000129699707,-4.3445000648498535
1702300234627733200,71.19973315429688,3.1392998695373535,-0.5421000123023987,-4.578199863433838
1702300234687731700,71.25973168945312,5.648799896240234,-1.1917999982833862,-4.704999923706055
1702300234747731700,71.31973168945312,-4.518199920654297,-2.2786998748779297,-4.906499862670898
1702300234807731700,71.37973168945312,1.164099931716919,-7.168299674987793,-2.439499855041504
1702300234867731700,71.43973168945313,-5.903299808502197,1.4190999269485474,3.6547999382019043
1702300234927731700,71.49973168945313,-6.2191996574401855,3.469599962234497,0.30149999260902405
1702300234987731700,71.55973168945313,-5.070099830627441,2.497499942779541,2.1396000385284424
1702300235047731700,71.61973168945312,0.23169998824596405,2.077899932861328,3.7151999473571777
1702300235107731700,71.67973168945312,3.790299892425537,0.47360000014305115,-7.025799751281738
1702300235167731700,71.73973168945312,-3.6648998260498047,4.828099727630615,-2.3587000370025635
1702300235227731700,71.79973168945313,-1.1022999286651611,-5.836899757385254,-11.592700004577637
1702300235287731700,71.85973168945313,-7.779099941253662,-0.8687999844551086,11.279799461364746
1702300235347731700,71.91973168945313,-4.8115997314453125,-3.562999963760376,-1.173699975013733
1702300235407731700,71.97973168945313,-2.0162999629974365,1.3698999881744385,-5.311699867248535
1702300235467731700,72.03973168945312,-2.30049991607666,2.7802999019622803,-2.4226999282836914
1702300235527731700,72.09973168945312,0.9709999561309814,1.8041999340057373,-0.7307999730110168
1702300235587731700,72.15973168945312,-0.23479999601840973,1.6994999647140503,-0.7184999585151672
1702300235647731700,72.21973168945313,0.8465999960899353,0.7318999767303467,-4.042900085449219
1702300235707731700,72.27973168945313,5.486299991607666,-0.4147000014781952,-2.296599864959717
1702300235767731700,72.33973168945313,-0.32359999418258667,-0.313400000333786,-4.440499782562256
1702300235827731700,72.39973168945312,7.963399887084961,-0.156700000166893,-5.670799732208252
1702300235887731700,72.45973168945312,-4.557699680328369,-2.8402998447418213,-4.1819000244140625
1702300235947731700,72.51973168945312,-1.0649999380111694,-5.917399883270264,-2.0896999835968018
1702300236007731700,72.57973168945313,-7.115499973297119,0.5862999558448792,1.0679999589920044
1702300236067731700,72.63973168945313,-4.854300022125244,3.803499937057495,0.44769999384880066
1702300236127731700,72.69973168945313,-4.973999977111816,1.8558999300003052,2.9800000190734863
1702300236187731700,72.75973168945312,-3.047799825668335,2.0999999046325684,5.884500026702881
1702300236247731700,72.81973168945312,7.72059965133667,-1.9910999536514282,-6.0000996589660645
1702300236307731700,72.87973168945312,-3.625999927520752,8.065199851989746,-4.727399826049805
1702300236367731700,72.93973168945313,1.9871999025344849,-3.041800022125244,-5.951399803161621
1702300236427731700,72.99973168945313,2.945499897003174,-0.3334999978542328,5.631399631500244
1702300236487731700,73.05973168945313,-4.449899673461914,-2.741799831390381,-0.7121999859809875
1702300236547731700,73.11973168945312,-4.285999774932861,-0.17299999296665192,-2.79259991645813
1702300236607731700,73.17973168945312,-0.10729999840259552,2.0083000659942627,-3.4271998405456543
1702300236667731700,73.23973168945312,1.661199927330017,1.8904999494552612,1.5733000040054321
1702300236727731700,73.29973168945313,-0.8780999779701233,2.428799867630005,0.2815999984741211
1702300236787731700,73.35973168945313,0.1119999960064888,1.8503999710083008,-3.197199821472168
1702300236847731700,73.41973168945313,5.372600078582764,0.29749998450279236,-2.5787999629974365
1702300236907731700,73.47973168945313,1.2352999448776245,-0.409199982881546,-3.772599935531616
1702300236967731700,73.53973168945312,7.444599628448486,-0.013100000098347664,-5.8403000831604
1702300237027731700,73.59973168945312,-0.7233999967575073,-1.2745999097824097,-6.031599998474121
1702300237087731700,73.65973168945312,-4.018899917602539,-4.240099906921387,-4.092499732971191
1702300237147731700,73.71973168945313,-1.110700011253357,-3.444199800491333,0.41839998960494995
1702300237207731700,73.77973168945313,-6.146399974822998,2.9169998168945312,3.328699827194214
1702300237267731700,73.83973168945313,-3.6624999046325684,4.1855998039245605,-1.3676999807357788
1702300237327731700,73.89973168945312,-4.908499717712402,1.7269999980926514,4.468800067901611
1702300237387731700,73.95973168945312,5.244899749755859,-1.1769999265670776,0.2425999939441681
1702300237447731700,74.01973168945312,0.8947999477386475,4.370999813079834,-2.4896998405456543
1702300237507731700,74.07973168945313,0.7644000053405762,-4.534800052642822,-9.206600189208984
1702300237567731700,74.13973168945313,1.6197999715805054,-0.17090000212192535,5.753799915313721
1702300237627733200,74.19973315429688,-4.969299793243408,-1.865299940109253,-0.2231999933719635
1702300237687731700,74.25973168945312,-4.019899845123291,-1.1201999187469482,-6.424200057983398
1702300237747731700,74.31973168945312,-0.9247999787330627,2.700500011444092,-2.0604000091552734
1702300237807731700,74.37973168945312,0.05790000036358833,1.9814999103546143,1.3989999294281006
1702300237867731700,74.43973168945313,1.1832000017166138,2.602099895477295,0.39729997515678406
1702300237927731700,74.49973168945313,0.3446999788284302,0.9664999842643738,-2.47379994392395
1702300237987731700,74.55973168945313,6.667599678039551,-0.12379999458789825,-3.3969998359680176
1702300238047760000,74.619759765625,0.3757999837398529,0.188400000333786,-3.488600015640259
1702300238107731700,74.67973168945312,8.562699317932129,1.0759999752044678,-2.9845998287200928
1702300238167731700,74.73973168945312,2.396899938583374,-0.5769999623298645,-4.557799816131592
1702300238227731700,74.79973168945313,-4.60759973526001,-4.613500118255615,-3.452699899673462
1702300238287731700,74.85973168945313,0.3222000002861023,-5.357199668884277,0.7457000017166138
1702300238347731700,74.91973168945313,-6.432299613952637,1.6710000038146973,2.9839999675750732
1702300238407731700,74.97973168945313,-1.1431999206542969,2.9693000316619873,-2.5864999294281006
