time,seconds_elapsed,z,y,x
1702689221328154000,0.044154052734375,-0.3562999963760376,0.02589999884366989,-0.28279998898506165
1702689221388154000,0.104154052734375,0.048899997025728226,-0.09209999442100525,0.12809999287128448
1702689221448154000,0.164154052734375,-0.10999999940395355,0.025699999183416367,-0.14249999821186066
1702689221508154000,0.224154052734375,-0.0405999980866909,-0.125,-0.07580000162124634
1702689221568154000,0.284154052734375,-0.030499998480081558,0.07180000096559525,0.08339999616146088
1702689221628154000,0.344154052734375,-0.06560000032186508,0.07649999856948853,-0.2874999940395355
1702689221688154000,0.404154052734375,0.004999999888241291,0.035999998450279236,0.032999999821186066
1702689221748154000,0.464154052734375,-0.15539999306201935,-0.042399998754262924,-0.05949999764561653
1702689221808154000,0.524154052734375,-0.19599999487400055,0.022499999031424522,0.06019999831914902
1702689221868154000,0.584154052734375,-0.08579999953508377,-0.08779999613761902,0.094200000166893
1702689221928154000,0.644154052734375,-0.10409999638795853,-0.1703999936580658,0.21949999034404755
1702689221988154000,0.704154052734375,-0.3173999786376953,-0.09619999676942825,-0.027799999341368675
1702689222048154000,0.764154052734375,-0.0997999981045723,-0.05289999768137932,0.11559999734163284
1702689222108154000,0.824154052734375,-0.26080000400543213,0.05040000006556511,-0.01730000041425228
1702689222168154000,0.884154052734375,-1.8111999034881592,0.420199990272522,-0.9770999550819397
1702689222228177400,0.944177490234375,0.44769999384880066,-0.8639000058174133,0.7357999682426453
1702689222288154000,1.004154052734375,-0.026599999517202377,0.786799967288971,0.6310999989509583
1702689222348154000,1.064154052734375,-0.43149998784065247,-0.3452000021934509,-1.5506999492645264
1702689222408154000,1.124154052734375,0.2516999840736389,-0.5812000036239624,0.09079999476671219
1702689222468154000,1.184154052734375,0.019099999219179153,-0.07069999724626541,0.592199981212616
1702689222528154000,1.244154052734375,-0.3709000051021576,0.011500000022351742,-0.46140000224113464
1702689222588154000,1.304154052734375,-1.2470999956130981,0.2264999896287918,-0.06509999930858612
1702689222648154000,1.364154052734375,0.5794999599456787,0.06549999862909317,-0.1054999977350235
1702689222708154000,1.424154052734375,0.5604000091552734,0.11429999768733978,1.1036999225616455
1702689222768154000,1.484154052734375,0.16409999132156372,-0.54339998960495,0.5428000092506409
1702689222828154000,1.544154052734375,-0.3264999985694885,-0.3279999792575836,0.22679999470710754
1702689222888154000,1.604154052734375,0.11409999430179596,-0.11939999461174011,0.12520000338554382
1702689222948154000,1.664154052734375,-0.10009999573230743,-0.13050000369548798,0.3343999981880188
1702689223008154000,1.724154052734375,0.1761000007390976,0.10459999740123749,0.09039999544620514
1702689223068154000,1.784154052734375,0.14749999344348907,0.3044999837875366,0.18490000069141388
1702689223128154000,1.844154052734375,-0.47749999165534973,-0.7319999933242798,0.2992999851703644
1702689223188154000,1.904154052734375,-0.4490000009536743,0.08249999582767487,-0.13269999623298645
1702689223248154000,1.964154052734375,-0.5259000062942505,0.3937999904155731,-0.2689000070095062
1702689223308154000,2.024154052734375,-0.8977999687194824,-0.4170999825000763,-0.861799955368042
1702689223368154000,2.084154052734375,-0.08469999581575394,-0.7464999556541443,-0.3148999810218811
1702689223428154000,2.144154052734375,-0.08540000021457672,-0.5449000000953674,0.17509999871253967
1702689223488154000,2.204154052734375,0.299699991941452,0.05729999765753746,0.3578999936580658
1702689223548154000,2.264154052734375,0.40860000252723694,0.2402999997138977,0.4488999843597412
1702689223608154000,2.324154052734375,-0.17249999940395355,0.002099999925121665,0.2936999797821045
1702689223668154000,2.384154052734375,-0.4899999797344208,-0.1006999984383583,0.23539999127388
1702689223728154000,2.444154052734375,-0.7856000065803528,-0.2689000070095062,-0.8878999948501587
1702689223788154000,2.504154052734375,1.284500002861023,0.3010999858379364,0.8288999795913696
1702689223848154000,2.564154052734375,-0.30859997868537903,-0.3325999975204468,-0.14899998903274536
1702689223908154000,2.624154052734375,-0.001500000013038516,0.05040000006556511,0.08689999580383301
1702689223968154000,2.684154052734375,-1.250999927520752,-0.48969998955726624,-0.6410999894142151
1702689224028154000,2.744154052734375,0.3682999908924103,0.274399995803833,0.13650000095367432
1702689224088154000,2.804154052734375,0.23389999568462372,-0.3732999861240387,0.5076000094413757
1702689224148154000,2.864154052734375,0.3357999920845032,-0.19829998910427094,0.12119999527931213
1702689224208154000,2.924154052734375,0.1362999975681305,-0.07639999687671661,0.7328999638557434
1702689224268154000,2.984154052734375,-0.7780999541282654,0.29600000381469727,-0.5834999680519104
1702689224328177400,3.044177490234375,-0.5999999642372131,0.010799999348819256,-0.7143999934196472
1702689224388154000,3.104154052734375,-0.09359999746084213,0.10029999911785126,0.04389999806880951
1702689224448154000,3.164154052734375,0.03480000048875809,0.0486999973654747,0.09849999845027924
1702689224508154000,3.224154052734375,0.042799998074769974,-0.10130000114440918,0.6233999729156494
1702689224568154000,3.284154052734375,-0.20260000228881836,-0.11729999631643295,0.7865999937057495
1702689224628154000,3.344154052734375,-1.0400999784469604,0.20089998841285706,-0.49539998173713684
1702689224688154000,3.404154052734375,0.08949999511241913,0.11639999598264694,0.3877999782562256
1702689224748154000,3.464154052734375,0.2929999828338623,-0.1500999927520752,0.5999000072479248
1702689224808154000,3.524154052734375,-0.280599981546402,-0.21400000154972076,0.27869999408721924
1702689224868154000,3.584154052734375,1.2106999158859253,0.12919999659061432,-0.30059999227523804
1702689224928154000,3.644154052734375,0.09539999812841415,-0.3401999771595001,0.4562999904155731
1702689224988154000,3.704154052734375,-0.0486999973654747,-0.03139999881386757,-0.28129997849464417
1702689225048154000,3.764154052734375,-0.10300000011920929,0.13650000095367432,-0.8955999612808228
1702689225108154000,3.824154052734375,0.24979999661445618,0.18599998950958252,-0.5386999845504761
1702689225168154000,3.884154052734375,0.1078999936580658,-0.11169999837875366,0.6100000143051147
1702689225228154000,3.944154052734375,-0.08529999852180481,-0.38029998540878296,-0.5286999940872192
1702689225288154000,4.004154052734375,-0.3750999867916107,-0.03949999809265137,0.5947999954223633
1702689225348154000,4.064154052734375,-0.09129999577999115,-0.1832999885082245,0.07930000126361847
1702689225408154000,4.124154052734375,0.0648999959230423,-0.029899999499320984,0.3856000006198883
1702689225468154000,4.184154052734375,0.2705000042915344,0.02419999986886978,0.37849998474121094
1702689225528154000,4.244154052734375,-0.2629999816417694,-0.1662999987602234,0.5101999640464783
1702689225588154000,4.304154052734375,0.44909998774528503,0.22139999270439148,-0.7572000026702881
1702689225648154000,4.364154052734375,0.19089999794960022,-0.05829999968409538,0.6757999658584595
1702689225708154000,4.424154052734375,-0.27309998869895935,0.14339999854564667,-0.5044000148773193
1702689225768154000,4.484154052734375,-0.03700000047683716,-0.3243999779224396,-0.7723000049591064
1702689225828154000,4.544154052734375,0.0722000002861023,-0.34579998254776,-0.12969999015331268
1702689225888154000,4.604154052734375,-0.5117999911308289,0.055399999022483826,-0.07819999754428864
1702689225948154000,4.664154052734375,0.43849998712539673,0.10899999737739563,0.4097999930381775
1702689226008154000,4.724154052734375,-0.22609999775886536,-0.026200000196695328,-0.03229999914765358
1702689226068154000,4.784154052734375,-0.4050000011920929,0.013199999928474426,-0.1785999983549118
1702689226128154000,4.844154052734375,-0.21059998869895935,-0.04729999974370003,0.34529998898506165
1702689226188154000,4.904154052734375,-0.28700000047683716,-0.17729999125003815,0.3806999921798706
1702689226248154000,4.964154052734375,0.2802000045776367,-0.09989999979734421,0.3723999857902527
1702689226308154000,5.024154052734375,0.17419999837875366,-0.3824999928474426,0.1371999979019165
1702689226368154000,5.084154052734375,-0.13019999861717224,-0.3481999933719635,-0.6638999581336975
1702689226428177400,5.144177490234375,0.009999999776482582,-0.23199999332427979,0.4043999910354614
1702689226488154000,5.204154052734375,-0.27539998292922974,0.02070000022649765,-0.2629999816417694
1702689226548154000,5.264154052734375,-0.7454999685287476,0.13300000131130219,-0.27730000019073486
1702689226608154000,5.324154052734375,-0.5618999600410461,0.2272999882698059,-0.375
1702689226668154000,5.384154052734375,0.3252999782562256,0.01119999960064888,0.32670000195503235
1702689226728154000,5.444154052734375,0.11989999562501907,-0.11879999935626984,-0.3635999858379364
1702689226788154000,5.504154052734375,-0.24449999630451202,-0.11840000003576279,0.23199999332427979
1702689226848154000,5.564154052734375,-0.6814000010490417,-0.23109999299049377,0.08269999921321869
1702689226908154000,5.624154052734375,0.18889999389648438,-0.12069999426603317,0.8585000038146973
1702689226968154000,5.684154052734375,-0.09079999476671219,0.028099998831748962,0.27799999713897705
1702689227028154000,5.744154052734375,0.2865999937057495,-0.06529999524354935,0.05689999833703041
1702689227088154000,5.804154052734375,-0.26100000739097595,-0.03350000083446503,0.20799998939037323
1702689227148154000,5.864154052734375,-0.09669999778270721,0.007499999832361937,0.1850999891757965
1702689227208154000,5.924154052734375,-0.3146999776363373,-0.15070000290870667,-0.7229999899864197
1702689227268154000,5.984154052734375,-0.6049000024795532,-0.22529999911785126,-1.117799997329712
1702689227328154000,6.044154052734375,0.0551999993622303,-0.07739999890327454,-0.3870999813079834
1702689227388154000,6.104154052734375,0.3254999816417694,0.20659999549388885,0.36239999532699585
1702689227448154000,6.164154052734375,0.08269999921321869,-0.23389999568462372,-0.2094999998807907
1702689227508154000,6.224154052734375,-0.3553999960422516,-0.15299999713897705,0.3756999969482422
1702689227568154000,6.284154052734375,-0.5277000069618225,-0.17000000178813934,-0.09919999539852142
1702689227628154000,6.344154052734375,0.21729999780654907,0.046799998730421066,0.5694999694824219
1702689227688154000,6.404154052734375,-0.3628000020980835,0.1833999902009964,0.032499998807907104
1702689227748154000,6.464154052734375,0.14329999685287476,-0.013299999758601189,0.11409999430179596
1702689227808154000,6.524154052734375,-0.020499998703598976,-0.2717999815940857,0.04809999838471413
1702689227868154000,6.584154052734375,-0.2692999839782715,-0.2825999855995178,-0.18649999797344208
1702689227928154000,6.644154052734375,-0.0142000000923872,-0.09589999914169312,0.10999999940395355
1702689227988154000,6.704154052734375,0.016599999740719795,-0.19589999318122864,-0.1605999916791916
1702689228048154000,6.764154052734375,-0.006599999964237213,-0.1436000019311905,-0.3325999975204468
1702689228108154000,6.824154052734375,-0.27149999141693115,-0.09019999951124191,-0.11219999939203262
1702689228168154000,6.884154052734375,-0.7324999570846558,-0.04809999838471413,-0.25699999928474426
1702689228228154000,6.944154052734375,0.06610000133514404,0.05419999733567238,-0.1973000019788742
1702689228288154000,7.004154052734375,0.19659999012947083,0.16449999809265137,0.24650000035762787
1702689228348154000,7.064154052734375,-0.08619999885559082,0.019099999219179153,0.38839998841285706
1702689228408154000,7.124154052734375,-0.14350000023841858,-0.3102000057697296,0.3464999794960022
1702689228468154000,7.184154052734375,-0.16459999978542328,-0.1451999992132187,-0.0066999997943639755
1702689228528177400,7.244177490234375,0.24789999425411224,-0.05889999866485596,-0.013100000098347664
1702689228588154000,7.304154052734375,0.010900000110268593,-0.16569998860359192,0.050599999725818634
1702689228648154000,7.364154052734375,0.08749999850988388,-0.010400000028312206,-0.2619999945163727
1702689228708154000,7.424154052734375,-0.006899999920278788,-0.282399982213974,0.3017999827861786
1702689228768154000,7.484154052734375,1.0304999351501465,0.6225999593734741,-0.3764999806880951
1702689228828154000,7.544154052734375,-0.15240000188350677,-0.44859999418258667,-0.031599998474121094
1702689228888154000,7.604154052734375,-0.2547999918460846,-0.10740000009536743,-0.45069998502731323
1702689228948154000,7.664154052734375,-0.8536999821662903,-0.13809999823570251,-0.5817999839782715
1702689229008154000,7.724154052734375,-0.3319999873638153,0.00009999999747378752,-0.16659998893737793
1702689229068154000,7.784154052734375,0.34599998593330383,0.23070000112056732,0.6273999810218811
1702689229128154000,7.844154052734375,0.08219999819993973,-0.12409999966621399,-0.008700000122189522
1702689229188154000,7.904154052734375,-0.43689998984336853,0.005699999630451202,0.20099999010562897
1702689229248154000,7.964154052734375,-0.19280000030994415,-0.18199999630451202,0.45879998803138733
1702689229308154000,8.024154052734374,-0.34689998626708984,0.10089999437332153,0.49869999289512634
1702689229368154000,8.084154052734375,0.22109998762607574,-0.08699999749660492,0.056299999356269836
1702689229428154000,8.144154052734375,0.15029999613761902,-0.10769999772310257,0.07530000060796738
1702689229488154000,8.204154052734374,-0.13769999146461487,0.013399999588727951,0.27140000462532043
1702689229548154000,8.264154052734375,-0.25119999051094055,-0.21279999613761902,-0.7428999543190002
1702689229608154000,8.324154052734375,1.2038999795913696,0.6802999973297119,1.6004999876022339
1702689229668154000,8.384154052734376,-0.36910000443458557,-0.4909999966621399,-0.8443999886512756
1702689229728154000,8.444154052734374,-0.2937999963760376,-0.2750000059604645,-0.8346999883651733
1702689229788154000,8.504154052734375,-0.38040000200271606,-0.013899999670684338,-0.22789999842643738
1702689229848154000,8.564154052734375,0.3027999997138977,0.04399999976158142,0.05339999869465828
1702689229908154000,8.624154052734376,0.3894999921321869,-0.055799998342990875,0.36069998145103455
1702689229968154000,8.684154052734375,-0.3552999794483185,-0.1508999913930893,0.018299998715519905
1702689230028154000,8.744154052734375,-0.120899997651577,-0.11539999395608902,0.1517999917268753
1702689230088154000,8.804154052734376,-0.14720000326633453,-0.07360000163316727,-0.08429999649524689
1702689230148154000,8.864154052734374,-0.046799998730421066,0.006399999838322401,0.06319999694824219
1702689230208154000,8.924154052734375,0.5803999900817871,-0.21229998767375946,-0.14190000295639038
1702689230268154000,8.984154052734375,-0.3260999917984009,-0.08469999581575394,0.03189999982714653
1702689230328154000,9.044154052734376,0.054999999701976776,0.0026000000070780516,-0.18679998815059662
1702689230388154000,9.104154052734375,-0.20659999549388885,-0.33159998059272766,0.45409998297691345
1702689230448154000,9.164154052734375,-0.3560999929904938,-0.3369999825954437,-1.0842000246047974
1702689230508154000,9.224154052734375,0.5432000160217285,-0.1290999948978424,0.47759997844696045
1702689230568154000,9.284154052734374,0.2531999945640564,0.00419999985024333,-0.121799997985363
1702689230628177400,9.344177490234374,0.05949999764561653,0.09239999949932098,-0.08609999716281891
1702689230688155600,9.40415576171875,-0.3125,0.006099999882280827,-0.02149999886751175
1702689230748154000,9.464154052734376,-0.09669999778270721,-0.09749999642372131,-0.03749999776482582
1702689230808154000,9.524154052734374,-0.5654999613761902,-0.03480000048875809,0.27649998664855957
1702689230868154000,9.584154052734375,-0.06659999489784241,-0.2433999925851822,0.0284000001847744
1702689230928154000,9.644154052734375,-0.09009999781847,-0.08240000158548355,0.06109999865293503
1702689230988154000,9.704154052734374,-0.019500000402331352,-0.056299999356269836,0.1727999895811081
1702689231048154000,9.764154052734375,-0.3798999786376953,-0.1915999948978424,0.06469999998807907
1702689231108154000,9.824154052734375,-0.2126999944448471,-0.20189999043941498,-0.046699997037649155
1702689231168154000,9.884154052734376,-0.1777999997138977,-0.18400000035762787,-0.19839999079704285
1702689231228154000,9.944154052734374,0.11719999462366104,-0.07319999486207962,-0.2531000077724457
1702689231288154000,10.004154052734375,0.06589999794960022,-0.04270000010728836,-0.015399999916553497
1702689231348154000,10.064154052734375,-0.14949999749660492,-0.22139999270439148,-0.3529999852180481
1702689231408154000,10.124154052734376,-0.1006999984383583,-0.03989999741315842,-0.010999999940395355
1702689231468154000,10.184154052734375,0.07800000160932541,-0.0486999973654747,-0.07829999923706055
1702689231528154000,10.244154052734375,0.010300000198185444,-0.026499999687075615,-0.5101000070571899
1702689231588154000,10.304154052734376,-0.2653999924659729,-0.10260000079870224,-0.036399997770786285
1702689231648154000,10.364154052734374,0.02029999904334545,-0.0811999961733818,0.19059999287128448
1702689231708154000,10.424154052734375,0.0794999971985817,-0.12459999322891235,-0.02669999934732914
1702689231768154000,10.484154052734375,0.08989999443292618,-0.03839999809861183,0.018400000408291817
1702689231828154000,10.544154052734376,0.24459999799728394,-0.32749998569488525,0.04209999740123749
1702689231888154000,10.604154052734375,0.45809999108314514,-0.36229997873306274,-0.5512999892234802
1702689231948154000,10.664154052734375,-0.7066999673843384,-0.02539999969303608,0.08219999819993973
1702689232008154000,10.724154052734375,0.046799998730421066,-0.09829999506473541,-0.08089999854564667
1702689232068154000,10.784154052734374,0.1476999968290329,-0.034299999475479126,0.2401999980211258
1702689232128154000,10.844154052734375,-0.48339998722076416,-0.19979999959468842,-0.32909998297691345
1702689232188154000,10.904154052734375,-0.1761000007390976,-0.26190000772476196,-0.20099999010562897
1702689232248154000,10.964154052734376,0.26759999990463257,-0.06340000033378601,0.06960000097751617
1702689232308154000,11.024154052734374,0.12189999967813492,-0.12099999934434891,-0.2741999924182892
1702689232368154000,11.084154052734375,-0.09479999542236328,-0.44119998812675476,-0.39149999618530273
1702689232428154000,11.144154052734375,0.06449999660253525,-0.3181999921798706,-0.2029999941587448
1702689232488154000,11.204154052734374,-0.2401999980211258,-0.00699999975040555,-0.012199999764561653
1702689232548154000,11.264154052734375,-0.09929999709129333,0.1922999918460846,0.0867999941110611
1702689232608154000,11.324154052734375,-0.3181999921798706,0.14239999651908875,-0.03229999914765358
1702689232668154000,11.384154052734376,-0.24089999496936798,0.09309999644756317,0.03969999775290489
1702689232728177400,11.444177490234376,-0.3179999887943268,0.016599999740719795,-0.11329999566078186
1702689232788154000,11.504154052734375,-0.16359999775886536,0.002300000051036477,-0.12870000302791595
1702689232848154000,11.564154052734375,-0.13660000264644623,-0.14329999685287476,-0.07739999890327454
1702689232908154000,11.624154052734376,-0.23649999499320984,-0.16679999232292175,-0.002699999837204814
1702689232968154000,11.684154052734375,0.04470000043511391,-0.11369999498128891,0.017899999395012856
1702689233028154000,11.744154052734375,-0.07759999483823776,-0.18689998984336853,0.005499999970197678
1702689233088154000,11.804154052734376,0.08309999853372574,-0.09769999980926514,-0.07400000095367432
1702689233148154000,11.864154052734374,0.0210999995470047,-0.12109999358654022,-0.09479999542236328
1702689233208154000,11.924154052734375,-0.04639999940991402,-0.03500000014901161,-0.07649999856948853
1702689233268154000,11.984154052734375,-0.015199999324977398,-0.12999999523162842,-0.0916999951004982
1702689233328154000,12.044154052734376,-0.033799998462200165,-0.08219999819993973,0.0478999987244606
1702689233388154000,12.104154052734375,-0.10409999638795853,-0.20170000195503235,-0.1655000001192093
1702689233448154000,12.164154052734375,-0.094200000166893,-0.023099999874830246,0.10199999809265137
1702689233508154000,12.224154052734375,-0.12929999828338623,-0.035599999129772186,-0.09589999914169312
1702689233568154000,12.284154052734374,-0.15809999406337738,-0.0017999999690800905,-0.22999998927116394
1702689233628154000,12.344154052734375,-0.1703999936580658,0.12709999084472656,-0.5604999661445618
1702689233688154000,12.404154052734375,-0.592199981212616,0.5670999884605408,-0.920799970626831
1702689233748154000,12.464154052734376,-0.11259999871253967,0.32109999656677246,-0.19380000233650208
1702689233808154000,12.524154052734374,-0.684499979019165,-0.43789997696876526,-0.44259998202323914
1702689233868154000,12.584154052734375,-1.1941999197006226,-0.7717999815940857,-0.24269999563694
1702689233928154000,12.644154052734375,-0.17329999804496765,-1.0954999923706055,0.4052000045776367
1702689233988154000,12.704154052734374,0.21209999918937683,-0.3263999819755554,1.5922999382019043
1702689234048154000,12.764154052734375,0.5178999900817871,0.2043999880552292,1.4895999431610107
1702689234108154000,12.824154052734375,0.08649999648332596,0.07530000060796738,0.4306999742984772
1702689234168154000,12.884154052734376,-0.722000002861023,0.08959999680519104,-0.666700005531311
1702689234228154000,12.944154052734374,0.17059999704360962,-0.2320999950170517,-0.036399997770786285
1702689234288154000,13.004154052734375,-0.2996000051498413,-0.18289999663829803,-0.45669999718666077
1702689234348154000,13.064154052734375,-0.3555999994277954,-0.17180000245571136,-0.6911999583244324
1702689234408154000,13.124154052734376,0.2947999835014343,-0.05959999933838844,0.14229999482631683
1702689234468154000,13.184154052734375,-1.5195000171661377,-0.17549999058246613,0.000699999975040555
1702689234528154000,13.244154052734375,0.4764999747276306,0.09349999576807022,-0.33149999380111694
