time,seconds_elapsed,z,y,x
1705061416095432700,0.0604326171875,-0.18079999089241028,-0.2654999792575836,-0.08899999409914017
1705061416155432700,0.1204326171875,0.08169999718666077,0.09160000085830688,-0.065700002014637
1705061416215432700,0.1804326171875,0.11809999495744705,-0.030499998480081558,0.0032999999821186066
1705061416275432700,0.2404326171875,0.06260000169277191,0.11639999598264694,-0.03689999878406525
1705061416335432700,0.3004326171875,0.20069999992847443,-0.021900000050663948,0.1265999972820282
1705061416395432700,0.3604326171875,0.06610000133514404,-0.219200000166893,0.17739999294281006
1705061416455432700,0.4204326171875,0.3278999924659729,-0.12189999967813492,0.18979999423027039
1705061416515432700,0.4804326171875,-0.19919998943805695,0.0010999999940395355,-0.06149999797344208
1705061416575432700,0.5404326171875,0.04439999908208847,-0.08219999819993973,-0.9514999985694885
1705061416635432700,0.6004326171875,-0.22929999232292175,0.3831000030040741,-0.6175999641418457
1705061416695432700,0.6604326171875,-0.05260000005364418,0.7060999870300293,-1.26829993724823
1705061416755432700,0.7204326171875,-0.46050000190734863,0.4448999762535095,-2.898900032043457
1705061416815432700,0.7804326171875,-0.4359999895095825,0.1703999936580658,-2.415299892425537
1705061416875432700,0.8404326171875,2.011399984359741,0.09549999982118607,-1.552799940109253
1705061416935432700,0.9004326171875,1.6089999675750732,0.01599999889731407,-0.06870000064373016
1705061416995432700,0.9604326171875,1.8199999332427979,0.3127000033855438,2.7448999881744385
1705061417055432700,1.0204326171875,2.07069993019104,0.5899999737739563,2.248800039291382
1705061417115432700,1.0804326171875,1.732800006866455,0.5884999632835388,3.4951999187469482
1705061417175432700,1.1404326171875,1.5450999736785889,0.22039999067783356,3.561199903488159
1705061417235432700,1.2004326171875,0.2653000056743622,0.8973999619483948,3.330699920654297
1705061417295432700,1.2604326171875,1.5181999206542969,-1.243499994277954,0.5321999788284302
1705061417355432700,1.3204326171875,0.538599967956543,-1.5166999101638794,-1.1678999662399292
1705061417415432700,1.3804326171875,0.25920000672340393,-1.6667999029159546,-2.5446999073028564
1705061417475432700,1.4404326171875,-0.5115999579429626,-1.605199933052063,-2.4944000244140625
1705061417535432700,1.5004326171875,-0.29109999537467957,-0.8908999562263489,-1.9027999639511108
1705061417595432700,1.5604326171875,-0.7504000067710876,0.032499998807907104,-1.7494999170303345
1705061417655432700,1.6204326171875,0.5121999979019165,0.8012999892234802,-1.2211999893188477
1705061417715432700,1.6804326171875,-0.3247999846935272,0.5027999877929688,-0.9376999735832214
1705061417775432700,1.7404326171875,-0.7562999725341797,-1.8822999000549316,0.457099974155426
1705061417835432700,1.8004326171875,-0.22630000114440918,-2.108799934387207,1.225000023841858
1705061417895432700,1.8604326171875,1.007099986076355,-0.37369999289512634,1.5931999683380127
1705061417955432700,1.9204326171875,0.29159998893737793,-0.8797000050544739,0.9157999753952026
1705061418015432700,1.9804326171875,-0.008100000210106373,-0.606499969959259,0.4396999776363373
1705061418075432700,2.0404326171875,-0.2709999978542328,-0.9731999635696411,-0.7468999624252319
1705061418135432700,2.1004326171875,0.27889999747276306,-0.6929999589920044,-0.9918999671936035
1705061418195432700,2.1604326171875,-0.4170999825000763,-1.2503999471664429,-0.43449997901916504
1705061418255432700,2.2204326171875,1.013100028038025,-0.7616999745368958,0.4514999985694885
1705061418315432700,2.2804326171875,0.23969998955726624,-0.9172999858856201,0.836899995803833
1705061418375432700,2.3404326171875,-0.019600000232458115,0.23479999601840973,1.6029999256134033
1705061418435432700,2.4004326171875,0.5455999970436096,0.4447000026702881,0.5246999859809875
1705061418495432700,2.4604326171875,0.8925999999046326,-0.014399999752640724,-1.1628999710083008
1705061418555432700,2.5204326171875,-0.10239999741315842,-0.18439999222755432,-2.578699827194214
1705061418615432700,2.5804326171875,0.09529999643564224,-0.36239999532699585,-2.4763998985290527
1705061418675432700,2.6404326171875,-0.01549999974668026,-0.7601999640464783,-1.5393999814987183
1705061418735432700,2.7004326171875,0.5163999795913696,-0.8819999694824219,0.02199999988079071
1705061418795432700,2.7604326171875,0.4287000000476837,0.11759999394416809,0.6435999870300293
1705061418855432700,2.8204326171875,0.5001999735832214,0.5691999793052673,0.8294999599456787
1705061418915432700,2.8804326171875,0.1225999966263771,0.770799994468689,0.676800012588501
1705061418975432700,2.9404326171875,-0.09529999643564224,0.6080999970436096,-0.3693999946117401
1705061419035432700,3.0004326171875,-0.7382999658584595,0.2224999964237213,-0.4404999911785126
1705061419095432700,3.0604326171875,-0.13830000162124634,0.3610999882221222,-0.7502999901771545
1705061419155432700,3.1204326171875,-0.3856000006198883,0.19689999520778656,-0.27570000290870667
1705061419215434200,3.180434326171875,-0.24819999933242798,0.5709999799728394,0.26350000500679016
1705061419275432700,3.2404326171875,0.1753999888896942,1.5547000169754028,0.6078000068664551
1705061419335432700,3.3004326171875,0.11559999734163284,0.8301999568939209,0.5877999663352966
1705061419395432700,3.3604326171875,0.385699987411499,0.4518999755382538,1.4193999767303467
1705061419455432700,3.4204326171875,1.2609999179840088,1.003600001335144,1.9581999778747559
1705061419515432700,3.4804326171875,-0.05859999731183052,-1.0368999242782593,1.9519999027252197
1705061419575432700,3.5404326171875,-0.04699999839067459,-2.361599922180176,0.36399999260902405
1705061419635432700,3.6004326171875,-0.5310999751091003,-2.316699981689453,-2.6547000408172607
1705061419695432700,3.6604326171875,-0.8035999536514282,-0.7827999591827393,-2.753199815750122
1705061419755432700,3.7204326171875,0.13759998977184296,0.35199999809265137,-0.8450999855995178
1705061419815432700,3.7804326171875,-0.010999999940395355,-0.9091999530792236,0.6757000088691711
1705061419875432700,3.8404326171875,1.0473999977111816,-1.0570999383926392,0.48659998178482056
1705061419935432700,3.9004326171875,0.28459998965263367,-0.8075000047683716,-0.013599999248981476
1705061419995432700,3.9604326171875,1.0648999214172363,-0.10170000046491623,-1.0536999702453613
1705061420055432700,4.0204326171875,-0.2313999980688095,-0.10419999808073044,-0.9422000050544739
1705061420115432700,4.0804326171875,-0.16110000014305115,0.2620999813079834,0.024399999529123306
1705061420175432700,4.1404326171875,-0.16259999573230743,1.8299999237060547,0.3612000048160553
1705061420235432700,4.2004326171875,0.611799955368042,1.5058999061584473,-0.04989999905228615
1705061420295432700,4.2604326171875,-0.2491999864578247,0.5058000087738037,0.24219998717308044
1705061420355432700,4.3204326171875,-0.36010000109672546,-0.5006999969482422,1.131500005722046
1705061420415432700,4.3804326171875,0.5424000024795532,-0.04659999907016754,0.6380000114440918
1705061420475432700,4.4404326171875,-0.018699999898672104,0.12780000269412994,-0.8004999756813049
1705061420535432700,4.5004326171875,0.7285999655723572,0.11019999533891678,0.14479999244213104
1705061420595432700,4.5604326171875,0.15079998970031738,-0.20899999141693115,0.029199998825788498
1705061420655432700,4.6204326171875,0.2728999853134155,-0.04189999774098396,0.3955000042915344
1705061420715432700,4.6804326171875,-0.030899999663233757,-0.5401999950408936,-0.42969998717308044
1705061420775432700,4.7404326171875,-0.15879999101161957,-1.792799949645996,-0.8441999554634094
1705061420835432700,4.8004326171875,-0.1453000009059906,-2.0908000469207764,-1.7462999820709229
1705061420895432700,4.8604326171875,1.0089999437332153,-1.2060999870300293,-2.0456998348236084
1705061420955432700,4.9204326171875,0.859499990940094,-0.8614999651908875,-2.612299919128418
1705061421015432700,4.9804326171875,1.3960999250411987,0.11629999428987503,-0.4359000027179718
1705061421075432700,5.0404326171875,-0.04360000044107437,0.0916999951004982,3.7707998752593994
1705061421135432700,5.1004326171875,1.6414999961853027,2.418799877166748,8.90310001373291
1705061421195432700,5.1604326171875,1.2181999683380127,5.28439998626709,6.706500053405762
1705061421255432700,5.2204326171875,1.9398999214172363,2.5571999549865723,-0.2708999812602997
1705061421315432700,5.2804326171875,-0.04439999908208847,-0.5396999716758728,-5.134999752044678
1705061421375432700,5.3404326171875,0.47679999470710754,-1.298699975013733,-4.443599700927734
1705061421435432700,5.4004326171875,0.5800999999046326,-0.19900000095367432,-1.704699993133545
1705061421495432700,5.4604326171875,0.8947999477386475,0.599399983882904,1.1240999698638916
1705061421555432700,5.5204326171875,0.9767999649047852,0.1623999923467636,-0.45719999074935913
1705061421615432700,5.5804326171875,-0.04939999803900719,-0.5597999691963196,-0.1996999979019165
1705061421675432700,5.6404326171875,-0.5740999579429626,0.06589999794960022,-0.5950999855995178
1705061421735432700,5.7004326171875,0.01589999906718731,0.06209999695420265,-0.03920000046491623
1705061421795432700,5.7604326171875,-0.11659999936819077,0.2254999876022339,-0.34769999980926514
1705061421855432700,5.8204326171875,0.00029999998514540493,1.74809992313385,-1.2049000263214111
1705061421915432700,5.8804326171875,0.3353999853134155,1.2963999509811401,-0.7950999736785889
1705061421975432700,5.9404326171875,0.28669998049736023,-1.1141999959945679,0.6071000099182129
1705061422035432700,6.0004326171875,-0.5343999862670898,-2.528899908065796,1.0489000082015991
1705061422095432700,6.0604326171875,-0.6980999708175659,-0.4652999937534332,0.7671999931335449
1705061422155432700,6.1204326171875,0.002699999837204814,0.4039999842643738,0.6292999982833862
1705061422215432700,6.1804326171875,-1.2789000272750854,-0.2110999971628189,0.5378000140190125
1705061422275432700,6.2404326171875,0.32199999690055847,-0.598800003528595,0.7193999886512756
1705061422335432700,6.3004326171875,-0.33309999108314514,-0.3199000060558319,0.557699978351593
1705061422395432700,6.3604326171875,-0.670199990272522,-0.5941999554634094,0.2061000019311905
1705061422455432700,6.4204326171875,0.08899999409914017,-0.14669999480247498,0.12700000405311584
1705061422515432700,6.4804326171875,0.029199998825788498,-0.6730999946594238,0.4487999975681305
1705061422575432700,6.5404326171875,0.3685999810695648,-0.30140000581741333,-0.4343999922275543
1705061422635432700,6.6004326171875,-0.013899999670684338,0.28939998149871826,-0.2443999946117401
1705061422695432700,6.6604326171875,-0.015599999576807022,-0.5503999590873718,-0.03519999980926514
1705061422755432700,6.7204326171875,-0.06639999896287918,-0.43209999799728394,0.11050000041723251
1705061422815432700,6.7804326171875,-0.33889999985694885,-0.218299999833107,-0.03779999911785126
1705061422875432700,6.8404326171875,0.002199999988079071,-0.04939999803900719,0.3709999918937683
1705061422935432700,6.9004326171875,-0.2815999984741211,-0.5547999739646912,0.44419997930526733
1705061422995460900,6.9604609375,-0.11429999768733978,-0.04649999737739563,0.15889999270439148
1705061423055432700,7.0204326171875,0.0032999999821186066,-0.5428999662399292,0.17399999499320984
1705061423115432700,7.0804326171875,-0.16619999706745148,-0.4047999978065491,0.10830000042915344
1705061423175432700,7.1404326171875,0.31610000133514404,0.36489999294281006,-0.05779999867081642
1705061423235432700,7.2004326171875,0.015099999494850636,0.12060000002384186,0.045099999755620956
1705061423295432700,7.2604326171875,-0.028099998831748962,0.011399999260902405,0.2069000005722046
1705061423355432700,7.3204326171875,-0.1403999924659729,-0.17149999737739563,0.20659999549388885
1705061423415432700,7.3804326171875,0.12879998981952667,-0.45179998874664307,-0.13689999282360077
1705061423475432700,7.4404326171875,-0.07569999992847443,0.03590000048279762,0.08749999850988388
1705061423535432700,7.5004326171875,0.04619999974966049,-0.3416999876499176,0.29249998927116394
1705061423595432700,7.5604326171875,0.01489999983459711,0.010599999688565731,0.1331000030040741
1705061423655432700,7.6204326171875,0.17549999058246613,-0.3263999819755554,0.29989999532699585
1705061423715432700,7.6804326171875,-0.17669999599456787,-0.14419999718666077,0.3652999997138977
1705061423775432700,7.7404326171875,0.02539999969303608,-0.21629999577999115,-0.44679999351501465
1705061423835432700,7.8004326171875,-0.32919999957084656,-0.024699999019503593,0.04639999940991402
1705061423895432700,7.8604326171875,0.2206999957561493,-0.22039999067783356,0.23119999468326569
1705061423955432700,7.9204326171875,-0.10189999639987946,-0.17260000109672546,-0.0737999975681305
1705061424015432700,7.9804326171875,-0.21459999680519104,-0.186599999666214,0.5220999717712402
1705061424075432700,8.0404326171875,0.20399999618530273,-0.06359999626874924,0.30320000648498535
1705061424135432700,8.1004326171875,0.0885000005364418,-0.48959997296333313,-0.21069999039173126
1705061424195432700,8.1604326171875,0.4412999749183655,-0.8410999774932861,-0.8813999891281128
1705061424255432700,8.2204326171875,0.447299987077713,-0.29409998655319214,-0.486299991607666
1705061424315432700,8.2804326171875,-0.4967999756336212,-0.8660999536514282,-0.9077000021934509
1705061424375432700,8.3404326171875,0.6171999573707581,-0.00839999970048666,-0.9401999711990356
1705061424435432700,8.4004326171875,-0.10289999842643738,-1.7131999731063843,0.23829999566078186
1705061424495432700,8.4604326171875,-0.24719999730587006,1.1049000024795532,1.861899971961975
1705061424555432700,8.5204326171875,0.5654999613761902,-0.05920000001788139,3.1240999698638916
1705061424615432700,8.5804326171875,0.15359999239444733,-1.0025999546051025,0.5241999626159668
1705061424675432700,8.6404326171875,0.6469999551773071,0.3019999861717224,0.3400999903678894
1705061424735432700,8.7004326171875,-1.7113999128341675,-0.21899999678134918,0.6222999691963196
1705061424795432700,8.7604326171875,-0.38179999589920044,-0.5056999921798706,0.5325999855995178
1705061424855432700,8.8204326171875,0.2726999819278717,0.13159999251365662,0.4424999952316284
1705061424915432700,8.8804326171875,-0.6943999528884888,-1.1347999572753906,-1.1384999752044678
1705061424975432700,8.9404326171875,-0.4372999966144562,-0.2345999926328659,-0.3276999890804291
1705061425035432700,9.0004326171875,0.49079999327659607,-0.6879000067710876,0.22259999811649323
1705061425095432700,9.0604326171875,-0.2791000008583069,0.5570999979972839,0.3978999853134155
1705061425155432700,9.1204326171875,-0.37779998779296875,1.1180999279022217,0.46129998564720154
1705061425215432700,9.1804326171875,1.3282999992370605,-0.952299952507019,0.73499995470047
1705061425275432700,9.2404326171875,-0.5188999772071838,-2.9038000106811523,-0.19550000131130219
1705061425335432700,9.3004326171875,1.6477999687194824,3.183199882507324,0.6309999823570251
1705061425395432700,9.3604326171875,-0.1648000031709671,1.869499921798706,2.3387999534606934
1705061425455432700,9.4204326171875,-0.3555999994277954,-0.9225999712944031,0.5940999984741211
1705061425515432700,9.4804326171875,0.010699999518692493,0.7353000044822693,1.2590999603271484
1705061425575432700,9.5404326171875,0.20819999277591705,1.7680999040603638,-0.334199994802475
1705061425635432700,9.6004326171875,-0.17350000143051147,0.2565999925136566,-0.64410001039505
1705061425695432700,9.6604326171875,0.24279999732971191,-0.7680000066757202,0.1143999993801117
1705061425755432700,9.7204326171875,0.3527999818325043,-2.1347999572753906,0.5479999780654907
1705061425815432700,9.7804326171875,-0.5870000123977661,-3.795099973678589,0.4487999975681305
1705061425875432700,9.8404326171875,-0.5489000082015991,-0.9526999592781067,-0.4828999936580658
1705061425935432700,9.9004326171875,1.6301000118255615,-0.5209000110626221,-0.1662999987602234
1705061425995432700,9.9604326171875,0.524899959564209,-0.8657000064849854,-1.1002999544143677
1705061426055432700,10.0204326171875,-0.4818999767303467,-2.183199882507324,0.7473999857902527
1705061426115432700,10.0804326171875,-1.2020999193191528,-0.5500999689102173,0.5622999668121338
1705061426175432700,10.1404326171875,-0.8467999696731567,-1.2745999097824097,-0.3691999912261963
1705061426235432700,10.2004326171875,1.904599905014038,-3.336099863052368,-0.8478999733924866
1705061426295432700,10.2604326171875,-0.32729998230934143,2.9923999309539795,0.31679999828338623
1705061426355432700,10.3204326171875,1.9858999252319336,11.210599899291992,2.2476999759674072
1705061426415432700,10.3804326171875,1.402400016784668,2.6816999912261963,-0.13249999284744263
1705061426475432700,10.4404326171875,-0.9195999503135681,-1.3085999488830566,-0.44020000100135803
1705061426535432700,10.5004326171875,-1.0156999826431274,-2.5699000358581543,0.2773999869823456
1705061426595432700,10.5604326171875,-0.9498999714851379,-1.2001999616622925,0.2502000033855438
1705061426655432700,10.6204326171875,-1.7352999448776245,0.3497999906539917,-0.5680999755859375
1705061426715432700,10.6804326171875,-0.37950000166893005,0.03500000014901161,0.8057999610900879
1705061426775432700,10.7404326171875,1.8707000017166138,-0.9603999853134155,-0.014800000004470348
1705061426835432700,10.8004326171875,-0.4836999773979187,-1.45579993724823,-0.32420000433921814
1705061426895432700,10.8604326171875,0.8080999851226807,-0.9124999642372131,1.2508999109268188
1705061426955432700,10.9204326171875,-0.3326999843120575,0.21480000019073486,-0.5194000005722046
1705061427015432700,10.9804326171875,-1.3150999546051025,-0.8521999716758728,0.30959999561309814
1705061427075432700,11.0404326171875,-1.5018999576568604,1.139799952507019,1.1431000232696533
1705061427135432700,11.1004326171875,-0.6816999912261963,2.5541999340057373,0.8047999739646912
1705061427195432700,11.1604326171875,-0.1006999984383583,0.5661999583244324,1.6151999235153198
1705061427255432700,11.2204326171875,1.5336999893188477,-2.579399824142456,1.2347999811172485
1705061427315432700,11.2804326171875,3.925299882888794,-3.656899929046631,1.1776000261306763
1705061427375432700,11.3404326171875,0.09889999777078629,-2.3997998237609863,1.1280999183654785
1705061427435432700,11.4004326171875,-0.8021000027656555,-2.8666999340057373,-8.43690013885498
1705061427495432700,11.4604326171875,1.2982999086380005,-0.12150000035762787,0.24379999935626984
1705061427555432700,11.5204326171875,-2.1636998653411865,-0.8357999920845032,-3.364300012588501
1705061427615432700,11.5804326171875,-2.2856998443603516,1.3779000043869019,-4.286399841308594
1705061427675432700,11.6404326171875,-1.973099946975708,-1.94979989528656,1.2960000038146973
1705061427735432700,11.7004326171875,0.9412999749183655,2.119999885559082,1.833400011062622
1705061427795432700,11.7604326171875,-0.9864999651908875,0.28299999237060547,0.5859000086784363
1705061427855432700,11.8204326171875,-3.0351998805999756,-1.6765999794006348,5.573800086975098
1705061427915432700,11.8804326171875,-1.0066999197006226,3.2610998153686523,-9.055500030517578
1705061427975432700,11.9404326171875,-0.7949000000953674,-2.474799871444702,-1.1469999551773071
1705061428035432700,12.0004326171875,-3.2348999977111816,-1.1276999711990356,-0.8491999506950378
1705061428095432700,12.0604326171875,-1.272499918937683,-0.9005999565124512,-1.6387999057769775
1705061428155432700,12.1204326171875,-0.2069000005722046,0.21490000188350677,-3.2988998889923096
1705061428215432700,12.1804326171875,-1.661099910736084,-1.0800999402999878,-2.062000036239624
1705061428275432700,12.2404326171875,-1.298200011253357,-6.000699996948242,1.8248999118804932
1705061428335432700,12.3004326171875,0.8115999698638916,-1.5710999965667725,-3.075699806213379
1705061428395432700,12.3604326171875,3.6534998416900635,2.2114999294281006,0.7200999855995178
1705061428455432700,12.4204326171875,0.6078999638557434,2.6703999042510986,-1.5221999883651733
1705061428515432700,12.4804326171875,-1.500599980354309,0.9624999761581421,3.2985999584198
1705061428575432700,12.5404326171875,3.885699987411499,-3.1812000274658203,3.248499870300293
1705061428635432700,12.6004326171875,-1.9275000095367432,-2.2137999534606934,-1.6297999620437622
1705061428695432700,12.6604326171875,1.1519999504089355,0.1647000014781952,2.3611998558044434
1705061428755432700,12.7204326171875,1.1984000205993652,2.851099967956543,-2.0260000228881836
1705061428815432700,12.7804326171875,0.7366999983787537,4.2428998947143555,-0.8587999939918518
1705061428875432700,12.8404326171875,2.5028998851776123,-0.8513000011444092,-1.0479999780654907
1705061428935432700,12.9004326171875,-1.8459999561309814,2.0551998615264893,0.31349998712539673
1705061428995432700,12.9604326171875,-0.6570000052452087,-3.40559983253479,1.4550999402999878
1705061429055432700,13.0204326171875,-1.1253999471664429,-0.9592999815940857,0.0851999968290329
1705061429115432700,13.0804326171875,-3.0505998134613037,-3.5642998218536377,0.6893999576568604
1705061429175432700,13.1404326171875,-2.810499906539917,-2.1582000255584717,0.5970999598503113
1705061429235432700,13.2004326171875,-2.3661999702453613,0.45009997487068176,0.11249999701976776
1705061429295432700,13.2604326171875,-0.7459999918937683,0.8726999759674072,-0.8495000004768372
1705061429355432700,13.3204326171875,-0.8460999727249146,-1.746899962425232,-0.8158999681472778
1705061429415432700,13.3804326171875,0.91839998960495,-1.2996000051498413,-0.7364999651908875
1705061429475432700,13.4404326171875,-0.07289999723434448,-1.6904000043869019,-2.4684998989105225
1705061429535432700,13.5004326171875,-1.548200011253357,-1.711300015449524,-0.8616999983787537
1705061429595432700,13.5604326171875,-0.780299961566925,-1.559899926185608,-0.9889999628067017
1705061429655432700,13.6204326171875,0.6643999814987183,3.6987998485565186,-2.0571000576019287
1705061429715432700,13.6804326171875,0.46609997749328613,1.4369999170303345,-0.3093000054359436
1705061429775432700,13.7404326171875,1.924299955368042,1.3600000143051147,0.5008000135421753
1705061429835432700,13.8004326171875,-0.29580000042915344,0.39899998903274536,2.0192999839782715
1705061429895432700,13.8604326171875,0.0284000001847744,-1.280900001525879,1.6836999654769897
1705061429955432700,13.9204326171875,0.09309999644756317,-2.2123000621795654,3.3351998329162598
1705061430015432700,13.9804326171875,0.3224000036716461,-1.1409999132156372,1.3702999353408813
1705061430075432700,14.0404326171875,2.1187000274658203,0.03680000081658363,-1.2381999492645264
1705061430135432700,14.1004326171875,-0.7818999886512756,1.9924999475479126,-3.720099925994873
1705061430195432700,14.1604326171875,0.6240999698638916,0.2976999878883362,-0.04820000007748604
1705061430255432700,14.2204326171875,0.6243999600410461,1.1578999757766724,0.02709999866783619
1705061430315432700,14.2804326171875,-0.7008999586105347,2.259199857711792,-0.11169999837875366
1705061430375432700,14.3404326171875,0.6825999617576599,-0.7109000086784363,-1.108199954032898
1705061430435432700,14.4004326171875,-0.7479999661445618,-2.555799961090088,1.0293999910354614
1705061430495432700,14.4604326171875,-1.632200002670288,-3.086199998855591,1.7884999513626099
1705061430555432700,14.5204326171875,-1.778999924659729,-2.3355000019073486,0.6407999992370605
1705061430615432700,14.5804326171875,-1.5219999551773071,-0.8432999849319458,-0.8407999873161316
1705061430675432700,14.6404326171875,-0.9817000031471252,-1.1354999542236328,-1.2355999946594238
1705061430735432700,14.7004326171875,-1.0607999563217163,-2.1684999465942383,-0.9957999587059021
1705061430795432700,14.7604326171875,0.14169999957084656,-1.7329999208450317,-3.2269999980926514
1705061430855432700,14.8204326171875,0.4478999972343445,-0.7908999919891357,-1.581299901008606
1705061430915432700,14.8804326171875,1.3657000064849854,-2.969599962234497,-0.1459999978542328
1705061430975432700,14.9404326171875,2.00849986076355,-2.8113999366760254,2.5845999717712402
1705061431035432700,15.0004326171875,2.4313998222351074,-1.2414000034332275,2.3093998432159424
1705061431095432700,15.0604326171875,2.7990000247955322,3.4564998149871826,3.1546998023986816
1705061431155432700,15.1204326171875,-1.0770999193191528,8.105400085449219,2.6663999557495117
1705061431215432700,15.1804326171875,-0.30379998683929443,2.604300022125244,2.5699000358581543
1705061431275432700,15.2404326171875,0.6733999848365784,3.48580002784729,-0.4713999927043915
1705061431335432700,15.3004326171875,-1.7513999938964844,1.2019000053405762,2.0904998779296875
1705061431395432700,15.3604326171875,-3.1375999450683594,0.5144999623298645,1.2619999647140503
1705061431455432700,15.4204326171875,-0.4615999758243561,0.5827000141143799,0.9660999774932861
1705061431515432700,15.4804326171875,0.25589999556541443,1.5,-0.9959999918937683
1705061431575434200,15.540434326171875,0.2825999855995178,-1.6917999982833862,0.9837999939918518
1705061431635432700,15.6004326171875,2.2700998783111572,-3.885699987411499,0.5963999629020691
1705061431695432700,15.6604326171875,1.704699993133545,-3.0521998405456543,-0.8431999683380127
1705061431755432700,15.7204326171875,0.14319999516010284,-2.232499837875366,-2.170599937438965
1705061431815432700,15.7804326171875,-0.2831999957561493,-2.532399892807007,-3.089900016784668
1705061431875432700,15.8404326171875,0.5525000095367432,-2.809999942779541,-3.4059998989105225
1705061431935432700,15.9004326171875,1.1022999286651611,-0.05379999801516533,-2.644700050354004
1705061431995432700,15.9604326171875,0.41429999470710754,6.331199645996094,-1.1632999181747437
1705061432055432700,16.0204326171875,-0.6342999935150146,4.363199710845947,0.01899999938905239
1705061432115432700,16.0804326171875,0.31849998235702515,-2.39739990234375,1.6466999053955078
1705061432175432700,16.1404326171875,0.8511999845504761,-4.680699825286865,2.5974998474121094
1705061432235432700,16.2004326171875,1.3834999799728394,-4.563399791717529,2.902899980545044
1705061432295432700,16.2604326171875,2.060999870300293,0.4583999812602997,1.8934999704360962
1705061432355432700,16.3204326171875,-0.33719998598098755,3.3152999877929688,2.1273000240325928
1705061432415432700,16.3804326171875,0.044599998742341995,3.389400005340576,0.6060999631881714
1705061432475432700,16.4404326171875,-3.3671000003814697,3.4719998836517334,4.875999927520752
1705061432535432700,16.5004326171875,-1.233199954032898,4.834399700164795,4.781899929046631
1705061432595432700,16.5604326171875,-0.1428999900817871,4.248899936676025,3.4169998168945312
1705061432655432700,16.6204326171875,1.3665000200271606,-0.6948999762535095,1.0896999835968018
1705061432715432700,16.6804326171875,2.37719988822937,-2.0848000049591064,-2.081699848175049
1705061432775432700,16.7404326171875,2.339099884033203,-0.457099974155426,-5.3090996742248535
1705061432835432700,16.8004326171875,0.6952999830245972,-0.6651999950408936,-8.267899513244629
1705061432895432700,16.8604326171875,1.3278999328613281,-0.5935999751091003,-8.686299324035645
1705061432955432700,16.9204326171875,1.1160999536514282,-0.4708999991416931,-7.925899982452393
1705061433015432700,16.9804326171875,1.7878999710083008,0.3009999990463257,-6.661799907684326
1705061433075432700,17.0404326171875,2.1138999462127686,5.37939977645874,-4.708899974822998
1705061433135432700,17.1004326171875,0.2653000056743622,8.156299591064453,-0.5300999879837036
1705061433195432700,17.1604326171875,2.1572999954223633,5.780999660491943,1.8716999292373657
1705061433255432700,17.2204326171875,1.6881999969482422,2.041599988937378,3.8738999366760254
1705061433315432700,17.2804326171875,2.4368999004364014,1.8004999160766602,4.77269983291626
1705061433375432700,17.3404326171875,2.9681999683380127,2.47979998588562,6.114500045776367
1705061433435432700,17.4004326171875,2.0058999061584473,3.769699811935425,6.634799957275391
1705061433495432700,17.4604326171875,-0.14190000295639038,3.214599847793579,4.910399913787842
1705061433555432700,17.5204326171875,-2.450500011444092,4.898699760437012,3.1294000148773193
1705061433615432700,17.5804326171875,-3.756699800491333,4.375,1.5425000190734863
1705061433675432700,17.6404326171875,-0.9860000014305115,5.843499660491943,1.9970999956130981
1705061433735432700,17.7004326171875,-0.692799985408783,2.624699831008911,0.18930000066757202
1705061433795432700,17.7604326171875,0.5083000063896179,-0.02199999988079071,-0.727899968624115
1705061433855432700,17.8204326171875,2.1366000175476074,1.2472000122070312,-0.9303999543190002
1705061433915432700,17.8804326171875,3.3516998291015625,1.7143999338150024,-2.4730000495910645
1705061433975432700,17.9404326171875,4.14709997177124,-0.8201999664306641,-5.602099895477295
1705061434035432700,18.0004326171875,3.488999843597412,-1.135599970817566,-6.793900012969971
1705061434095432700,18.0604326171875,3.0546000003814697,0.4893999993801117,-6.261699676513672
1705061434155432700,18.1204326171875,1.9774999618530273,3.7351999282836914,-4.977999687194824
1705061434215432700,18.1804326171875,1.1445000171661377,3.6656999588012695,-3.025599956512451
1705061434275432700,18.2404326171875,1.3619999885559082,3.359799861907959,-0.9979999661445618
1705061434335432700,18.3004326171875,1.6186999082565308,0.34860000014305115,1.4529999494552612
1705061434395432700,18.3604326171875,2.3030998706817627,1.6090999841690063,3.2022998332977295
1705061434455432700,18.4204326171875,2.419600009918213,2.4228999614715576,4.486199855804443
1705061434515432700,18.4804326171875,2.753199815750122,2.920799970626831,4.632699966430664
1705061434575434200,18.540434326171876,1.3019999265670776,3.4872000217437744,4.948599815368652
1705061434635432700,18.6004326171875,-0.15459999442100525,2.452699899673462,4.096799850463867
1705061434695432700,18.6604326171875,-1.6169999837875366,2.766199827194214,1.3697999715805054
1705061434755432700,18.7204326171875,-1.8016999959945679,2.130699872970581,1.1938999891281128
1705061434815432700,18.7804326171875,-1.7741999626159668,1.9010999202728271,0.7450000047683716
1705061434875432700,18.8404326171875,-0.9226999878883362,-2.1633999347686768,-0.057499997317790985
1705061434935432700,18.9004326171875,0.5861999988555908,-2.433300018310547,-1.0338000059127808
1705061434995432700,18.9604326171875,0.16579999029636383,-0.3301999866962433,-1.688099980354309
1705061435055432700,19.0204326171875,0.18940000236034393,-0.5476999878883362,-2.7562999725341797
1705061435115432700,19.0804326171875,1.1830999851226807,-0.6614999771118164,-3.5045998096466064
1705061435175432700,19.1404326171875,1.2243999242782593,-1.105299949645996,-3.841899871826172
1705061435235432700,19.2004326171875,1.3658000230789185,0.7536999583244324,-3.296299934387207
1705061435295432700,19.2604326171875,0.044099997729063034,4.462299823760986,-0.08259999752044678
1705061435355432700,19.3204326171875,0.7545999884605408,3.6529998779296875,0.8948999643325806
1705061435415432700,19.3804326171875,1.1833000183105469,1.046199917793274,0.9350000023841858
1705061435475432700,19.4404326171875,1.1335999965667725,-1.7048999071121216,2.2238998413085938
1705061435535432700,19.5004326171875,1.6246999502182007,-2.5261998176574707,3.5697999000549316
1705061435595432700,19.5604326171875,2.2367000579833984,-1.8251999616622925,2.739799976348877
1705061435655432700,19.6204326171875,1.1952999830245972,1.2242000102996826,2.757200002670288
1705061435715432700,19.6804326171875,-0.4975999891757965,5.075799942016602,2.7677998542785645
1705061435775432700,19.7404326171875,-1.4854999780654907,3.6847000122070312,2.1380999088287354
1705061435835432700,19.8004326171875,-0.9225999712944031,2.2535998821258545,0.5885999798774719
1705061435895432700,19.8604326171875,-1.674399971961975,0.07019999623298645,3.465399980545044
1705061435955432700,19.9204326171875,1.761699914932251,3.5451998710632324,1.6811000108718872
1705061436015432700,19.9804326171875,1.4794999361038208,3.2500998973846436,1.4470999240875244
1705061436075432700,20.0404326171875,2.532899856567383,-0.800599992275238,1.9297999143600464
1705061436135432700,20.1004326171875,4.075699806213379,-1.8326998949050903,1.4763000011444092
1705061436195432700,20.1604326171875,4.949599742889404,-0.3649999797344208,-0.062199998646974564
1705061436255432700,20.2204326171875,3.443699836730957,2.077199935913086,-3.191699981689453
1705061436315432700,20.2804326171875,3.22979998588562,2.9781999588012695,-5.775899887084961
1705061436375432700,20.3404326171875,4.271399974822998,-1.003000020980835,-9.186699867248535
1705061436435432700,20.4004326171875,1.0773999691009521,2.3766000270843506,-6.859699726104736
1705061436495432700,20.4604326171875,-1.035599946975708,2.8345999717712402,-3.7993998527526855
1705061436555432700,20.5204326171875,0.094200000166893,3.819199800491333,-2.0088000297546387
1705061436615432700,20.5804326171875,1.0666999816894531,-0.32420000433921814,0.21529999375343323
1705061436675432700,20.6404326171875,1.3980000019073486,-2.394199848175049,2.0794999599456787
1705061436735432700,20.7004326171875,2.0072999000549316,-0.3147999942302704,3.184299945831299
1705061436795432700,20.7604326171875,2.53059983253479,3.299999952316284,4.142899990081787
1705061436855432700,20.8204326171875,-0.4666999876499176,5.827699661254883,5.2704997062683105
1705061436915432700,20.8804326171875,-1.084299921989441,3.579399824142456,5.640399932861328
1705061436975432700,20.9404326171875,-1.3416999578475952,2.935499906539917,2.480299949645996
1705061437035432700,21.0004326171875,-2.1231000423431396,3.4196999073028564,1.9276999235153198
1705061437095432700,21.0604326171875,-1.383099913597107,6.303199768066406,0.42289999127388
1705061437155432700,21.1204326171875,-1.2597999572753906,1.2351999282836914,0.3296000063419342
1705061437215432700,21.1804326171875,1.5038999319076538,-2.2202999591827393,0.17489999532699585
1705061437275432700,21.2404326171875,3.4270999431610107,-2.876499891281128,-1.5396000146865845
1705061437335432700,21.3004326171875,3.543799877166748,-2.16129994392395,-3.2337000370025635
1705061437395432700,21.3604326171875,3.427299976348877,0.11169999837875366,-4.756700038909912
1705061437455432700,21.4204326171875,2.095900058746338,1.8323999643325806,-5.428400039672852
1705061437515432700,21.4804326171875,4.229700088500977,-0.18239998817443848,-7.660799980163574
1705061437575432700,21.5404326171875,1.3522999286651611,3.913599967956543,-4.2764997482299805
1705061437635432700,21.6004326171875,0.44509997963905334,6.637699604034424,-2.544299840927124
1705061437695432700,21.6604326171875,1.2199000120162964,3.6638998985290527,-0.7386999726295471
1705061437755432700,21.7204326171875,1.223599910736084,-0.11079999804496765,1.7354999780654907
1705061437815432700,21.7804326171875,1.806999921798706,-0.9136999845504761,3.3569998741149902
1705061437875432700,21.8404326171875,2.343400001525879,-0.008999999612569809,4.657599925994873
1705061437935432700,21.9004326171875,3.592099905014038,3.159600019454956,4.277699947357178
1705061437995432700,21.9604326171875,1.188099980354309,4.998899936676025,5.956199645996094
1705061438055432700,22.0204326171875,-2.1631999015808105,3.114499807357788,7.262199878692627
1705061438115432700,22.0804326171875,-2.6880998611450195,3.3987998962402344,5.714099884033203
1705061438175432700,22.1404326171875,0.2069999873638153,8.291699409484863,0.31779998540878296
1705061438235432700,22.2004326171875,-1.277400016784668,5.029399871826172,0.2669999897480011
1705061438295432700,22.2604326171875,1.2494999170303345,0.1428999900817871,0.07369999587535858
1705061438355460900,22.3204609375,2.304999828338623,0.34450000524520874,-2.5146000385284424
1705061438415432700,22.3804326171875,3.5642998218536377,0.6208999752998352,-4.962299823760986
1705061438475432700,22.4404326171875,4.2617998123168945,-0.36980000138282776,-7.2941999435424805
1705061438535432700,22.5004326171875,3.4532999992370605,0.40230000019073486,-7.908899784088135
1705061438595432700,22.5604326171875,3.857100009918213,0.09929999709129333,-9.083099365234375
1705061438655432700,22.6204326171875,2.8255999088287354,4.920000076293945,-6.237400054931641
1705061438715432700,22.6804326171875,1.2777999639511108,7.728399753570557,-4.22130012512207
1705061438775432700,22.7404326171875,1.1145999431610107,6.433399677276611,-2.381700038909912
1705061438835432700,22.8004326171875,1.3250999450683594,3.2836999893188477,1.0102999210357666
1705061438895432700,22.8604326171875,1.9270999431610107,3.3485000133514404,3.969399929046631
1705061438955432700,22.9204326171875,2.003700017929077,5.045199871063232,5.906300067901611
1705061439015432700,22.9804326171875,2.194200038909912,6.768199920654297,6.493799686431885
1705061439075432700,23.0404326171875,0.07859999686479568,3.7839999198913574,8.29580020904541
1705061439135432700,23.1004326171875,-2.3828999996185303,3.7635998725891113,6.7129998207092285
1705061439195432700,23.1604326171875,-0.36309999227523804,7.693399906158447,3.0127999782562256
1705061439255432700,23.2204326171875,-0.09619999676942825,8.460399627685547,2.052299976348877
1705061439315432700,23.2804326171875,-1.219499945640564,3.7289998531341553,1.1122000217437744
1705061439375432700,23.3404326171875,0.6223999857902527,1.591499924659729,0.7872999906539917
1705061439435432700,23.4004326171875,2.2409000396728516,2.7657999992370605,-2.002699851989746
1705061439495432700,23.4604326171875,4.295000076293945,2.315999984741211,-4.721199989318848
1705061439555432700,23.5204326171875,5.137599945068359,-0.33889999985694885,-6.477200031280518
1705061439615432700,23.5804326171875,4.609999656677246,0.21889999508857727,-7.305099964141846
1705061439675432700,23.6404326171875,4.59499979019165,-0.16599999368190765,-7.340099811553955
1705061439735432700,23.7004326171875,2.9133999347686768,6.017399787902832,-5.602599620819092
1705061439795432700,23.7604326171875,0.6836999654769897,6.852599620819092,-3.1414999961853027
1705061439855432700,23.8204326171875,0.820099949836731,3.1382999420166016,-1.2644000053405762
1705061439915432700,23.8804326171875,0.6327999830245972,0.45669999718666077,1.6207000017166138
1705061439975432700,23.9404326171875,1.4448000192642212,1.2924000024795532,2.957399845123291
1705061440035432700,24.0004326171875,2.5565998554229736,3.291800022125244,3.4268999099731445
1705061440095432700,24.0604326171875,3.1366000175476074,5.919099807739258,4.405600070953369
1705061440155432700,24.1204326171875,-0.43359997868537903,4.0671000480651855,8.119199752807617
1705061440215432700,24.1804326171875,-1.0784999132156372,5.003399848937988,5.936100006103516
1705061440275432700,24.2404326171875,-1.0963000059127808,5.90339994430542,3.0409998893737793
1705061440335432700,24.3004326171875,-0.8792999982833862,5.397299766540527,3.3241000175476074
1705061440395503000,24.360503173828125,0.16779999434947968,1.6482999324798584,1.0765999555587769
1705061440455432700,24.4204326171875,0.7549999952316284,-0.5598999857902527,0.11490000039339066
1705061440515432700,24.4804326171875,2.128200054168701,1.1721999645233154,-1.2423999309539795
1705061440575432700,24.5404326171875,2.852799892425537,1.4976999759674072,-2.53629994392395
1705061440635432700,24.6004326171875,4.578499794006348,1.2531999349594116,-5.163399696350098
1705061440695432700,24.6604326171875,4.56119966506958,-0.14559999108314514,-6.17140007019043
1705061440755432700,24.7204326171875,4.7829999923706055,-0.5715999603271484,-8.128199577331543
1705061440815432700,24.7804326171875,3.3529000282287598,3.0100998878479004,-5.924099922180176
1705061440875432700,24.8404326171875,1.0430999994277954,7.848299980163574,-3.7757999897003174
1705061440935432700,24.9004326171875,0.9644999504089355,4.679299831390381,-1.0124999284744263
1705061440995432700,24.9604326171875,1.5184999704360962,-0.7548999786376953,1.0504000186920166
1705061441055432700,25.0204326171875,1.878499984741211,-1.3299999237060547,2.7481000423431396
1705061441115432700,25.0804326171875,2.0149998664855957,1.0358999967575073,3.8235998153686523
1705061441175432700,25.1404326171875,2.706699848175049,3.776599884033203,3.953699827194214
1705061441235432700,25.2004326171875,2.055000066757202,6.651000022888184,5.603499889373779
1705061441295432700,25.2604326171875,-1.3722000122070312,5.957399845123291,6.824999809265137
1705061441355432700,25.3204326171875,-0.9741999506950378,6.486299991607666,2.934299945831299
1705061441415432700,25.3804326171875,-1.5479999780654907,4.873899936676025,1.7329999208450317
1705061441475432700,25.4404326171875,-0.776199996471405,-1.6901999711990356,1.0364999771118164
1705061441535432700,25.5004326171875,-0.3111000061035156,-3.1403000354766846,-0.16179999709129333
1705061441595434200,25.560434326171876,1.334399938583374,-0.19039998948574066,-1.125999927520752
1705061441655432700,25.6204326171875,0.17790000140666962,3.2196998596191406,-2.8287999629974365
1705061441715432700,25.6804326171875,2.1877999305725098,0.9681999683380127,-5.473399639129639
1705061441775432700,25.7404326171875,4.98859977722168,-0.4087999761104584,-7.256700038909912
1705061441835432700,25.8004326171875,4.350299835205078,2.485100030899048,-5.604099750518799
1705061441895432700,25.8604326171875,1.9208999872207642,6.72599983215332,-3.7797999382019043
1705061441955432700,25.9204326171875,1.805799961090088,3.4206998348236084,-2.2237000465393066
1705061442015432700,25.9804326171875,1.4632999897003174,-0.7737999558448792,0.2190999984741211
1705061442075432700,26.0404326171875,2.3446998596191406,-1.1124999523162842,1.5784999132156372
1705061442135432700,26.1004326171875,3.600399971008301,1.7209999561309814,2.2258999347686768
1705061442195432700,26.1604326171875,3.01639986038208,6.26230001449585,3.394199848175049
1705061442255432700,26.2204326171875,0.28939998149871826,7.009399890899658,6.727200031280518
1705061442315432700,26.2804326171875,-1.0880999565124512,4.503200054168701,7.570199966430664
1705061442375432700,26.3404326171875,-0.911300003528595,1.805899977684021,4.506999969482422
1705061442435432700,26.4004326171875,0.6020999550819397,5.257199764251709,3.462399959564209
1705061442495432700,26.4604326171875,0.5518999695777893,2.9041998386383057,1.9962999820709229
1705061442555432700,26.5204326171875,1.5556999444961548,-0.16939999163150787,0.3243999779224396
1705061442615432700,26.5804326171875,2.229099988937378,0.4668999910354614,-0.5220999717712402
1705061442675432700,26.6404326171875,2.2416999340057373,2.793099880218506,-3.240499973297119
1705061442735432700,26.7004326171875,1.8686999082565308,1.1237000226974487,-7.02209997177124
1705061442795432700,26.7604326171875,1.7152999639511108,-0.73089998960495,-8.642399787902832
1705061442855432700,26.8204326171875,4.196300029754639,0.5654000043869019,-8.790299415588379
1705061442915432700,26.8804326171875,3.84060001373291,3.2303998470306396,-5.89769983291626
1705061442975432700,26.9404326171875,2.718899965286255,6.977799892425537,-4.469299793243408
1705061443035432700,27.0004326171875,2.9159998893737793,5.083699703216553,-1.767699956893921
1705061443095432700,27.0604326171875,2.687700033187866,1.6114999055862427,0.9705999493598938
1705061443155432700,27.1204326171875,3.5037999153137207,2.652099847793579,3.082399845123291
1705061443215432700,27.1804326171875,3.3687000274658203,5.184799671173096,3.7777998447418213
1705061443275432700,27.2404326171875,3.032899856567383,7.562099933624268,4.606899738311768
1705061443335432700,27.3004326171875,0.13609999418258667,5.802999973297119,8.682899475097656
1705061443395432700,27.3604326171875,-1.4685999155044556,3.94569993019104,6.787099838256836
1705061443455432700,27.4204326171875,-1.1971999406814575,4.840099811553955,3.231599807739258
1705061443515432700,27.4804326171875,-0.007400000002235174,6.857699871063232,2.6856000423431396
1705061443575432700,27.5404326171875,0.4770999848842621,3.474799871444702,0.7414000034332275
1705061443635432700,27.6004326171875,1.8471999168395996,0.6462999582290649,-0.9724999666213989
1705061443695432700,27.6604326171875,2.471099853515625,2.686800003051758,-3.44789981842041
1705061443755432700,27.7204326171875,0.8335999846458435,2.083199977874756,-6.8227996826171875
1705061443815432700,27.7804326171875,0.6340999603271484,0.743399977684021,-9.353099822998047
1705061443875432700,27.8404326171875,-0.18199999630451202,-1.4337999820709229,-9.421899795532227
1705061443935432700,27.9004326171875,0.9973999857902527,-0.12399999797344208,-7.704899787902832
1705061443995432700,27.9604326171875,0.41269999742507935,3.4646999835968018,-4.5903000831604
1705061444055432700,28.0204326171875,1.9774999618530273,5.633499622344971,-3.658900022506714
1705061444115432700,28.0804326171875,2.356099843978882,7.587899684906006,-0.7105000019073486
1705061444175432700,28.1404326171875,2.765899896621704,1.878499984741211,3.1633999347686768
1705061444235432700,28.2004326171875,4.056699752807617,0.029199998825788498,3.756199836730957
1705061444295432700,28.2604326171875,4.7017998695373535,2.4495999813079834,3.4175000190734863
1705061444355432700,28.3204326171875,3.3825998306274414,4.580899715423584,4.967700004577637
1705061444415432700,28.3804326171875,0.47849997878074646,4.565399646759033,6.671499729156494
1705061444475432700,28.4404326171875,-1.3947999477386475,3.941699981689453,5.738999843597412
1705061444535432700,28.5004326171875,-1.7019000053405762,3.3142998218536377,1.9101999998092651
1705061444595432700,28.5604326171875,0.20579999685287476,6.560799598693848,3.005699872970581
1705061444655432700,28.6204326171875,-0.5530999898910522,2.8825998306274414,0.8580999970436096
1705061444715432700,28.6804326171875,1.0293999910354614,-0.11050000041723251,0.5048999786376953
1705061444775432700,28.7404326171875,2.4768998622894287,1.9106999635696411,-0.11089999973773956
1705061444835432700,28.8004326171875,3.229300022125244,3.5199999809265137,-1.260200023651123
1705061444895432700,28.8604326171875,6.202600002288818,1.1830999851226807,-3.0146000385284424
1705061444955432700,28.9204326171875,5.793499946594238,2.176300048828125,-5.00629997253418
1705061445015432700,28.9804326171875,3.1848998069763184,0.9365999698638916,-6.013400077819824
1705061445075432700,29.0404326171875,3.7542998790740967,-0.10170000046491623,-6.283599853515625
1705061445135432700,29.1004326171875,1.4404000043869019,3.6420998573303223,-4.196000099182129
1705061445195432700,29.1604326171875,0.4554999768733978,3.7562999725341797,-3.4609999656677246
1705061445255432700,29.2204326171875,0.5566999912261963,0.15699999034404755,-0.9972999691963196
1705061445315432700,29.2804326171875,0.44259998202323914,-0.7402999997138977,1.0512999296188354
1705061445375432700,29.3404326171875,2.171099901199341,1.0774999856948853,1.9494999647140503
1705061445435432700,29.4004326171875,2.0295000076293945,2.5279998779296875,3.7383999824523926
1705061445495432700,29.4604326171875,0.9944999814033508,4.302999973297119,4.6707000732421875
1705061445555432700,29.5204326171875,-0.9763999581336975,1.9526000022888184,6.380899906158447
1705061445615432700,29.5804326171875,-2.2216999530792236,2.4674999713897705,4.383299827575684
1705061445675432700,29.6404326171875,-1.7552999258041382,5.710599899291992,2.6019999980926514
1705061445735432700,29.7004326171875,-0.9830999970436096,3.6387999057769775,1.5633000135421753
1705061445795432700,29.7604326171875,1.0277999639511108,-1.3120999336242676,1.2526999711990356
1705061445855432700,29.8204326171875,2.711599826812744,-1.5108000040054321,-0.14169999957084656
1705061445915432700,29.8804326171875,3.128700017929077,1.358199954032898,-1.8716999292373657
1705061445975432700,29.9404326171875,2.627699851989746,0.7102000117301941,-4.034599781036377
1705061446035432700,30.0004326171875,3.6933999061584473,0.626800000667572,-6.137499809265137
1705061446095432700,30.0604326171875,3.467399835586548,0.3091999888420105,-6.880300045013428
1705061446155432700,30.1204326171875,2.8145999908447266,5.5229997634887695,-5.466899871826172
1705061446215432700,30.1804326171875,1.8025000095367432,5.438699722290039,-3.5261998176574707
1705061446275432700,30.2404326171875,2.2100000381469727,0.49079999327659607,-1.3514999151229858
1705061446335432700,30.3004326171875,2.046799898147583,-0.0348999984562397,1.0658999681472778
1705061446395432700,30.3604326171875,2.049999952316284,0.7287999987602234,2.609499931335449
1705061446455432700,30.4204326171875,2.1664998531341553,2.1389999389648438,3.6303999423980713
1705061446515432700,30.4804326171875,2.068199872970581,4.943699836730957,4.295199871063232
1705061446575432700,30.5404326171875,-0.6247000098228455,4.281799793243408,7.34499979019165
1705061446635432700,30.6004326171875,-1.7322999238967896,3.008999824523926,5.957299709320068
1705061446695432700,30.6604326171875,-0.8639999628067017,5.403899669647217,2.067499876022339
1705061446755432700,30.7204326171875,-0.48330000042915344,5.007800102233887,1.5472999811172485
1705061446815432700,30.7804326171875,-0.10209999978542328,0.28949999809265137,0.21319998800754547
1705061446875432700,30.8404326171875,3.244799852371216,-1.1261999607086182,0.8000999689102173
1705061446935432700,30.9004326171875,2.8601999282836914,0.6060999631881714,-1.5703999996185303
1705061446995432700,30.9604326171875,3.379499912261963,1.7137999534606934,-2.547299861907959
1705061447055432700,31.0204326171875,4.4679999351501465,0.30859997868537903,-4.025899887084961
1705061447115432700,31.0804326171875,4.126899719238281,0.08899999409914017,-5.984999656677246
1705061447175432700,31.1404326171875,2.8259999752044678,2.4113998413085938,-6.765199661254883
1705061447235432700,31.2004326171875,1.4839999675750732,4.31850004196167,-4.508699893951416
1705061447295432700,31.2604326171875,2.4549999237060547,3.4758999347686768,-4.089200019836426
1705061447355432700,31.3204326171875,2.162799835205078,0.19749999046325684,-1.3391000032424927
1705061447415432700,31.3804326171875,2.3720998764038086,-0.25920000672340393,0.6376000046730042
1705061447475432700,31.4404326171875,3.709199905395508,2.8524999618530273,1.5592999458312988
1705061447535432700,31.5004326171875,2.9784998893737793,4.404599666595459,3.018899917602539
1705061447595432700,31.5604326171875,2.901899814605713,4.99399995803833,5.158799648284912
1705061447655432700,31.6204326171875,1.0134999752044678,3.240799903869629,5.544099807739258
1705061447715432700,31.6804326171875,-1.702799916267395,3.4463000297546387,5.955599784851074
1705061447775432700,31.7404326171875,-1.1545000076293945,5.8267998695373535,2.7154998779296875
1705061447835432700,31.8004326171875,-0.551800012588501,6.4421000480651855,2.901899814605713
1705061447895432700,31.8604326171875,-0.21689999103546143,0.5925999879837036,1.4142999649047852
1705061447955432700,31.9204326171875,0.09160000085830688,-2.34060001373291,-0.4668999910354614
1705061448015432700,31.9804326171875,3.0346999168395996,-0.3127000033855438,0.7572999596595764
1705061448075432700,32.0404326171875,0.6323999762535095,4.804599761962891,-3.006999969482422
1705061448135432700,32.1004326171875,2.361599922180176,2.1664998531341553,-4.435499668121338
1705061448195432700,32.1604326171875,3.8680999279022217,-0.019700000062584877,-9.379399299621582
1705061448255432700,32.2204326171875,2.6947999000549316,-1.3399999141693115,-9.220499992370605
1705061448315432700,32.2804326171875,1.8701999187469482,6.03939962387085,-5.2571001052856445
1705061448375432700,32.3404326171875,1.0187000036239624,5.6402997970581055,-4.619100093841553
1705061448435432700,32.4004326171875,2.368499994277954,1.8210999965667725,-2.495800018310547
1705061448495432700,32.4604326171875,3.102599859237671,1.529099941253662,1.6834999322891235
1705061448555432700,32.5204326171875,3.0641000270843506,2.825899839401245,3.6823999881744385
1705061448615432700,32.5804326171875,2.734499931335449,5.099099636077881,3.7946999073028564
1705061448675432700,32.6404326171875,0.5958999991416931,6.154699802398682,7.649600028991699
1705061448735432700,32.7004326171875,-1.3609999418258667,6.0702996253967285,7.627199649810791
1705061448795432700,32.7604326171875,-2.2783000469207764,4.7789998054504395,5.503799915313721
1705061448855432700,32.8204326171875,-0.8294999599456787,5.900300025939941,1.569000005722046
1705061448915432700,32.8804326171875,-1.4620000123977661,1.7494999170303345,0.3280999958515167
1705061448975432700,32.9404326171875,0.2881999909877777,-0.9443999528884888,1.2990000247955322
1705061449035432700,33.0004326171875,2.325199842453003,2.549799919128418,0.2662000060081482
1705061449095432700,33.0604326171875,2.4567999839782715,3.678299903869629,-3.631999969482422
1705061449155432700,33.1204326171875,5.929100036621094,0.8102999925613403,-5.164499759674072
1705061449215432700,33.1804326171875,6.117599964141846,1.4745999574661255,-6.092599868774414
1705061449275432700,33.2404326171875,6.403599739074707,1.1342999935150146,-6.339399814605713
1705061449335432700,33.3004326171875,4.866099834442139,3.9751999378204346,-4.48259973526001
1705061449395432700,33.3604326171875,3.1741998195648193,7.025699615478516,-3.6706998348236084
1705061449455432700,33.4204326171875,1.3884999752044678,5.033199787139893,-0.8258000016212463
1705061449515432700,33.4804326171875,-0.23179998993873596,1.235700011253357,0.9853999614715576
1705061449575432700,33.5404326171875,1.4569000005722046,2.2314999103546143,3.1457998752593994
1705061449635432700,33.6004326171875,2.146899938583374,4.010200023651123,4.43179988861084
1705061449695432700,33.6604326171875,1.6233999729156494,1.9890999794006348,6.397799968719482
1705061449755432700,33.7204326171875,0.6631999611854553,0.7304999828338623,7.703199863433838
1705061449815432700,33.7804326171875,-1.1977999210357666,4.338099956512451,5.684599876403809
1705061449875432700,33.8404326171875,-0.44179999828338623,9.411699295043945,2.4457998275756836
1705061449935434200,33.900434326171876,-0.7843999862670898,8.217000007629395,2.527899980545044
1705061449995432700,33.9604326171875,0.8111000061035156,3.0364999771118164,0.8696999549865723
1705061450055432700,34.0204326171875,2.8653998374938965,0.00559999980032444,-0.8351999521255493
1705061450115432700,34.0804326171875,2.759199857711792,1.0850999355316162,-2.4270999431610107
1705061450175432700,34.1404326171875,2.955199956893921,0.8096999526023865,-4.815899848937988
1705061450235432700,34.2004326171875,5.304299831390381,-0.2602999806404114,-6.275099754333496
1705061450295432700,34.2604326171875,5.823599815368652,-0.06209999695420265,-7.197700023651123
1705061450355432700,34.3204326171875,6.502699851989746,0.7208999991416931,-8.222800254821777
1705061450415432700,34.3804326171875,2.8451998233795166,7.970399856567383,-3.7407000064849854
1705061450475432700,34.4404326171875,1.8010998964309692,8.015399932861328,-2.188699960708618
1705061450535432700,34.5004326171875,1.2318999767303467,2.105599880218506,-0.4339999854564667
1705061450595432700,34.5604326171875,1.7454999685287476,-0.7155999541282654,2.472599983215332
1705061450655432700,34.6204326171875,2.4226999282836914,0.1841999888420105,2.7007999420166016
1705061450715432700,34.6804326171875,3.1011998653411865,3.19569993019104,2.865499973297119
1705061450775432700,34.7404326171875,4.147200107574463,5.980400085449219,3.622799873352051
1705061450835432700,34.8004326171875,-0.5151000022888184,4.0808000564575195,7.333099842071533
1705061450895432700,34.8604326171875,-2.0185999870300293,3.327699899673462,7.066299915313721
1705061450955432700,34.9204326171875,-0.4504999816417694,5.00499963760376,2.6703999042510986
1705061451015432700,34.9804326171875,-0.4957999885082245,5.94980001449585,2.2091000080108643
1705061451075432700,35.0404326171875,-0.12429999560117722,0.5758999586105347,0.7669999599456787
1705061451135432700,35.1004326171875,2.7254998683929443,-0.8034999966621399,-0.3506999909877777
1705061451195432700,35.1604326171875,3.0088000297546387,1.1845999956130981,-2.512699842453003
1705061451255432700,35.2204326171875,2.54830002784729,1.6870999336242676,-5.102200031280518
1705061451315432700,35.2804326171875,3.7816998958587646,0.7870999574661255,-6.49399995803833
1705061451375432700,35.3404326171875,4.37969970703125,1.4089000225067139,-7.902899742126465
1705061451435432700,35.4004326171875,3.6229000091552734,0.9666000008583069,-6.835299968719482
1705061451495432700,35.4604326171875,1.7967000007629395,6.540099620819092,-4.399799823760986
1705061451555432700,35.5204326171875,1.7450999021530151,4.927199840545654,-2.912400007247925
1705061451615432700,35.5804326171875,1.7345999479293823,1.3889999389648438,-0.7443999648094177
1705061451675432700,35.6404326171875,1.6546999216079712,0.1832999885082245,1.3715999126434326
1705061451735432700,35.7004326171875,3.6848998069763184,2.1873998641967773,3.009500026702881
1705061451795432700,35.7604326171875,3.5929999351501465,4.36299991607666,4.058099746704102
1705061451855432700,35.8204326171875,2.675999879837036,5.508999824523926,5.71019983291626
1705061451915432700,35.8804326171875,-0.7940999865531921,4.240999698638916,8.263199806213379
1705061451975432700,35.9404326171875,-0.9501000046730042,2.906899929046631,5.948099613189697
1705061452035432700,36.0004326171875,-0.11649999767541885,4.52869987487793,2.586699962615967
1705061452095432700,36.0604326171875,0.08649999648332596,5.12529993057251,0.4316999912261963
1705061452155432700,36.1204326171875,0.6079999804496765,0.6275999546051025,0.5795999765396118
1705061452215432700,36.1804326171875,1.737299919128418,1.580899953842163,-0.8919000029563904
1705061452275432700,36.2404326171875,1.340399980545044,2.4502999782562256,-5.258399963378906
1705061452335432700,36.3004326171875,3.1366000175476074,-0.07000000029802322,-8.596199989318848
1705061452395432700,36.3604326171875,5.413699626922607,0.4098999798297882,-8.960899353027344
1705061452455432700,36.4204326171875,4.428499698638916,1.3494999408721924,-8.442099571228027
1705061452515432700,36.4804326171875,4.731599807739258,4.124199867248535,-5.383199691772461
1705061452575432700,36.5404326171875,3.2609000205993652,8.045999526977539,-3.770399808883667
1705061452635432700,36.6004326171875,1.1572999954223633,7.017999649047852,-1.2918999195098877
1705061452695432700,36.6604326171875,-0.19569998979568481,2.3160998821258545,1.715399980545044
1705061452755432700,36.7204326171875,1.3221999406814575,1.1368999481201172,3.653599977493286
1705061452815432700,36.7804326171875,2.5660998821258545,1.6705999374389648,5.147900104522705
1705061452875432700,36.8404326171875,3.3371999263763428,2.635200023651123,6.620199680328369
1705061452935432700,36.9004326171875,0.9698999524116516,3.0032999515533447,7.61870002746582
1705061452995432700,36.9604326171875,-0.8197999596595764,4.2256999015808105,5.888299942016602
1705061453055432700,37.0204326171875,-0.8703999519348145,7.224400043487549,1.6834999322891235
1705061453115432700,37.0804326171875,-1.11899995803833,8.64680004119873,1.9957998991012573
1705061453175432700,37.1404326171875,-0.30660000443458557,3.684000015258789,1.8708999156951904
1705061453235432700,37.2004326171875,1.8846999406814575,0.24869999289512634,0.24049998819828033
1705061453295432700,37.2604326171875,3.3910000324249268,-0.22209998965263367,-2.70989990234375
1705061453355432700,37.3204326171875,3.105299949645996,1.833299994468689,-5.267199993133545
1705061453415432700,37.3804326171875,4.797100067138672,1.2899999618530273,-5.328499794006348
1705061453475432700,37.4404326171875,5.869499683380127,0.6962999701499939,-6.552199840545654
1705061453535432700,37.5004326171875,4.960400104522705,0.8851999640464783,-7.064499855041504
1705061453595432700,37.5604326171875,3.3695998191833496,6.180899620056152,-4.1682000160217285
1705061453655432700,37.6204326171875,1.9257999658584595,6.756199836730957,-2.6791000366210938
1705061453715460900,37.6804609375,0.2750999927520752,5.395899772644043,-0.20269998908042908
1705061453775432700,37.7404326171875,-0.210099995136261,0.03659999743103981,1.1592999696731567
1705061453835432700,37.8004326171875,1.9894999265670776,-0.08789999783039093,3.184000015258789
1705061453895432700,37.8604326171875,3.1763999462127686,1.309499979019165,4.247099876403809
1705061453955432700,37.9204326171875,3.2328999042510986,3.768199920654297,5.663099765777588
1705061454015432700,37.9804326171875,0.5539999604225159,3.335899829864502,6.716399669647217
1705061454075432700,38.0404326171875,-0.06149999797344208,5.138299942016602,3.1072998046875
1705061454135432700,38.1004326171875,-0.8793999552726746,4.137599945068359,2.8880999088287354
1705061454195432700,38.1604326171875,0.34880000352859497,6.213500022888184,2.1073999404907227
1705061454255432700,38.2204326171875,-1.1150000095367432,1.4650999307632446,0.8077999949455261
1705061454315432700,38.2804326171875,-0.5831999778747559,-1.317699909210205,-0.8822000026702881
1705061454375432700,38.3404326171875,3.1927998065948486,-3.1232998371124268,-0.6474999785423279
1705061454435432700,38.4004326171875,2.63319993019104,-0.4404999911785126,-4.210999965667725
1705061454495432700,38.4604326171875,3.1771998405456543,3.7578999996185303,-2.7196998596191406
1705061454555432700,38.5204326171875,6.187299728393555,2.6741998195648193,-3.5274999141693115
1705061454615432700,38.5804326171875,6.156099796295166,1.4528999328613281,-3.8155999183654785
1705061454675432700,38.6404326171875,3.455899953842163,5.419899940490723,-3.1589999198913574
1705061454735432700,38.7004326171875,1.331399917602539,4.258899688720703,-0.9419999718666077
1705061454795432700,38.7604326171875,0.6667999625205994,1.5821999311447144,-1.0855000019073486
1705061454855432700,38.8204326171875,0.6132000088691711,-2.424099922180176,0.21979999542236328
1705061454915432700,38.8804326171875,2.7151999473571777,-2.507200002670288,2.8897998332977295
1705061454975432700,38.9404326171875,3.5784997940063477,-1.1917999982833862,3.194499969482422
1705061455035432700,39.0004326171875,3.374199867248535,2.1972999572753906,2.9407999515533447
1705061455095432700,39.0604326171875,1.8504999876022339,4.604499816894531,4.1717000007629395
1705061455155432700,39.1204326171875,-1.3579999208450317,4.052799701690674,4.962100028991699
1705061455215432700,39.1804326171875,-0.4810999929904938,1.24809992313385,1.645900011062622
1705061455275432700,39.2404326171875,-0.06949999928474426,6.429999828338623,2.6761999130249023
1705061455335432700,39.3004326171875,-0.6951999664306641,2.949199914932251,0.14869999885559082
1705061455395432700,39.3604326171875,1.7626999616622925,-1.5867999792099,0.06019999831914902
1705061455455432700,39.4204326171875,3.8825998306274414,-1.905900001525879,-0.46459999680519104
1705061455515432700,39.4804326171875,3.621799945831299,-0.31219998002052307,-2.2846999168395996
1705061455575432700,39.5404326171875,2.927500009536743,-1.0503000020980835,-4.1138997077941895
1705061455635432700,39.6004326171875,3.5707998275756836,0.6377999782562256,-5.946499824523926
1705061455695432700,39.6604326171875,3.61080002784729,0.4343999922275543,-5.991600036621094
1705061455755432700,39.7204326171875,2.991799831390381,4.768699645996094,-5.9344000816345215
1705061455815432700,39.7804326171875,0.8931999802589417,6.505399703979492,-2.759999990463257
1705061455875432700,39.8404326171875,1.1567999124526978,3.3457999229431152,-1.9124000072479248
1705061455935432700,39.9004326171875,0.996999979019165,-0.5842999815940857,-0.1370999962091446
1705061455995432700,39.9604326171875,1.9333999156951904,-2.1987998485565186,1.5518999099731445
1705061456055432700,40.0204326171875,3.5949997901916504,-1.0115000009536743,2.5765998363494873
1705061456115432700,40.0804326171875,3.51039981842041,2.658099889755249,2.3504998683929443
1705061456175432700,40.1404326171875,2.2997000217437744,4.905699729919434,4.024399757385254
1705061456235432700,40.2004326171875,-0.9583999514579773,1.8944998979568481,7.230299949645996
1705061456295432700,40.2604326171875,-0.9115999937057495,3.8616998195648193,5.039299964904785
1705061456355432700,40.3204326171875,-0.21529999375343323,4.761099815368652,2.648200035095215
1705061456415432700,40.3804326171875,-0.010199999436736107,6.87999963760376,1.1563999652862549
1705061456475432700,40.4404326171875,0.2401999980211258,0.7712000012397766,0.03399999812245369
1705061456535432700,40.5004326171875,2.29830002784729,-2.490799903869629,0.11710000038146973
1705061456595432700,40.5604326171875,3.1740000247955322,0.5401999950408936,-1.2050999402999878
1705061456655432700,40.6204326171875,3.097599983215332,0.785099983215332,-3.641199827194214
1705061456715432700,40.6804326171875,4.437900066375732,2.0292999744415283,-5.120699882507324
1705061456775432700,40.7404326171875,4.1566996574401855,0.5458999872207642,-7.4614996910095215
1705061456835432700,40.8004326171875,3.5558998584747314,1.9575999975204468,-6.929999828338623
1705061456895432700,40.8604326171875,1.9680999517440796,4.678699970245361,-4.589200019836426
1705061456955432700,40.9204326171875,1.9469999074935913,3.9336998462677,-3.402599811553955
1705061457015432700,40.9804326171875,1.9971998929977417,0.8075000047683716,-1.511299967765808
1705061457075432700,41.0404326171875,2.0680999755859375,0.6601999998092651,1.5259000062942505
1705061457135432700,41.1004326171875,2.52839994430542,2.1670000553131104,3.143399953842163
1705061457195432700,41.1604326171875,2.7846999168395996,4.425699710845947,3.2581000328063965
1705061457255432700,41.2204326171875,1.3172999620437622,4.896100044250488,6.217599868774414
1705061457315432700,41.2804326171875,-0.8473999500274658,1.913699984550476,8.018199920654297
1705061457375432700,41.3404326171875,-2.385999917984009,1.6166999340057373,6.581699848175049
1705061457435432700,41.4004326171875,-1.396299958229065,8.693599700927734,2.0146000385284424
1705061457495432700,41.4604326171875,-2.3792998790740967,5.3491997718811035,-0.7005999684333801
1705061457555432700,41.5204326171875,2.109499931335449,0.9682999849319458,1.8259999752044678
1705061457615432700,41.5804326171875,3.975399971008301,0.19759999215602875,-1.125999927520752
1705061457675432700,41.6404326171875,4.493099689483643,1.222100019454956,-3.589200019836426
1705061457735432700,41.7004326171875,5.352999687194824,1.3604999780654907,-4.826699733734131
1705061457795432700,41.7604326171875,5.1479997634887695,0.960599958896637,-6.239799976348877
1705061457855432700,41.8204326171875,5.394199848175049,0.3222000002861023,-8.298799514770508
1705061457915432700,41.8804326171875,4.013499736785889,3.846299886703491,-6.333199977874756
1705061457975432700,41.9404326171875,0.6241999864578247,8.789599418640137,-3.6148998737335205
1705061458035432700,42.0004326171875,1.9154999256134033,4.773099899291992,-1.9882999658584595
1705061458095432700,42.0604326171875,1.5439000129699707,1.0507999658584595,0.6753000020980835
1705061458155432700,42.1204326171875,2.2667999267578125,0.974399983882904,3.2651000022888184
1705061458215432700,42.1804326171875,3.2953999042510986,3.781399965286255,3.629499912261963
1705061458275432700,42.2404326171875,3.694399833679199,4.5991997718811035,5.6194000244140625
1705061458335432700,42.3004326171875,2.7625999450683594,4.205599784851074,6.43589973449707
1705061458395432700,42.3604326171875,0.4293999969959259,1.2231999635696411,5.921799659729004
1705061458455432700,42.4204326171875,-2.507999897003174,4.807300090789795,5.404999732971191
1705061458515432700,42.4804326171875,-0.4213999807834625,8.019499778747559,1.483699917793274
1705061458575432700,42.5404326171875,0.12289999425411224,5.361700057983398,1.5236999988555908
1705061458635432700,42.6004326171875,0.8777999877929688,0.030399998649954796,-0.6496999859809875
1705061458695432700,42.6604326171875,2.1092000007629395,-0.5335999727249146,-1.7833999395370483
1705061458755432700,42.7204326171875,2.5390000343322754,2.468400001525879,-3.907399892807007
1705061458815432700,42.7804326171875,3.80049991607666,0.9589999914169312,-6.180299758911133
1705061458875432700,42.8404326171875,3.626999855041504,0.8376999497413635,-8.781499862670898
1705061458935432700,42.9004326171875,4.565999984741211,1.1648999452590942,-7.63569974899292
1705061458995432700,42.9604326171875,3.541299819946289,3.4415998458862305,-5.749899864196777
1705061459055432700,43.0204326171875,2.2326998710632324,6.598999977111816,-3.402400016784668
1705061459115432700,43.0804326171875,2.2411999702453613,4.4079999923706055,-1.8065999746322632
1705061459175432700,43.1404326171875,2.199199914932251,1.4347000122070312,0.529699981212616
1705061459235432700,43.2004326171875,2.1914000511169434,0.659500002861023,2.9848999977111816
1705061459295432700,43.2604326171875,3.1058998107910156,2.348299980163574,3.793599843978882
1705061459355432700,43.3204326171875,3.295099973678589,4.3501996994018555,4.669699668884277
1705061459415432700,43.3804326171875,1.7525999546051025,3.5498998165130615,5.6880998611450195
1705061459475432700,43.4404326171875,-0.6169999837875366,2.3548998832702637,6.338299751281738
1705061459535432700,43.5004326171875,-2.5737998485565186,4.227299690246582,4.243499755859375
1705061459595432700,43.5604326171875,-0.740399956703186,6.104300022125244,3.005699872970581
1705061459655432700,43.6204326171875,0.375,4.117700099945068,0.13130000233650208
1705061459715432700,43.6804326171875,1.3832999467849731,0.13089999556541443,0.10029999911785126
1705061459775432700,43.7404326171875,3.3499999046325684,1.1282999515533447,-0.5877000093460083
1705061459835432700,43.8004326171875,4.456999778747559,2.723099946975708,-3.297600030899048
1705061459895432700,43.8604326171875,5.152299880981445,0.776199996471405,-6.273599624633789
1705061459955432700,43.9204326171875,4.901700019836426,1.0267999172210693,-6.6468000411987305
1705061460015432700,43.9804326171875,5.717099666595459,0.8048999905586243,-7.197199821472168
1705061460075432700,44.0404326171875,2.7991998195648193,6.866199970245361,-4.184799671173096
1705061460135432700,44.1004326171875,0.9717999696731567,7.1651997566223145,-2.5929999351501465
1705061460195432700,44.1604326171875,1.8351999521255493,2.2786998748779297,-1.872999906539917
1705061460255432700,44.2204326171875,1.844499945640564,-0.7651999592781067,0.32979997992515564
1705061460315432700,44.2804326171875,2.9563000202178955,-0.47909998893737793,2.1952998638153076
1705061460375432700,44.3404326171875,3.9368999004364014,3.3504998683929443,2.3178999423980713
1705061460435432700,44.4004326171875,2.398399829864502,8.118199348449707,3.922799825668335
1705061460495432700,44.4604326171875,-1.4491000175476074,4.112299919128418,8.085899353027344
1705061460555432700,44.5204326171875,-0.1727999895811081,2.48829984664917,6.0341997146606445
1705061460615432700,44.5804326171875,-0.13019999861717224,4.445199966430664,4.473199844360352
1705061460675432700,44.6404326171875,0.015799999237060547,6.3180999755859375,2.31469988822937
1705061460735432700,44.7004326171875,0.4236999750137329,1.3904999494552612,1.1503000259399414
1705061460795432700,44.7604326171875,2.1305999755859375,-1.2599999904632568,-0.28380000591278076
1705061460855432700,44.8204326171875,2.9621999263763428,0.8374999761581421,-2.2505998611450195
1705061460915432700,44.8804326171875,2.3519999980926514,2.131500005722046,-4.646500110626221
1705061460975432700,44.9404326171875,3.958099842071533,1.3937000036239624,-7.101099967956543
1705061461035432700,45.0004326171875,4.2866997718811035,0.3522000014781952,-8.962900161743164
1705061461095432700,45.0604326171875,5.3877997398376465,0.4389999806880951,-8.81619930267334
1705061461155432700,45.1204326171875,3.722299814224243,5.916599750518799,-5.552499771118164
1705061461215432700,45.1804326171875,3.1108999252319336,8.823699951171875,-3.1963999271392822
1705061461275432700,45.2404326171875,1.5992000102996826,5.352099895477295,-0.49219998717308044
1705061461335432700,45.3004326171875,0.8402000069618225,2.485499858856201,2.808199882507324
1705061461395432700,45.3604326171875,1.08079993724823,1.191100001335144,3.7856998443603516
1705061461455432700,45.4204326171875,2.669800043106079,3.1103999614715576,4.788599967956543
1705061461515432700,45.4804326171875,2.5016000270843506,3.325199842453003,6.139499664306641
1705061461575432700,45.5404326171875,-0.3172999918460846,2.321199893951416,6.3242998123168945
1705061461635432700,45.6004326171875,-2.0114998817443848,5.649699687957764,3.444399833679199
1705061461695432700,45.6604326171875,-0.5493999719619751,8.321599960327148,4.878499984741211
1705061461755434200,45.720434326171876,0.6900999546051025,6.101500034332275,3.8148999214172363
1705061461815432700,45.7804326171875,1.6806999444961548,2.394899845123291,-0.23579999804496765
1705061461875432700,45.8404326171875,2.33270001411438,0.8747999668121338,-1.0013999938964844
1705061461935432700,45.9004326171875,3.391700029373169,0.7838000059127808,-3.302999973297119
1705061461995432700,45.9604326171875,4.3165998458862305,1.5841000080108643,-4.832099914550781
1705061462055432700,46.0204326171875,7.827899932861328,2.065199851989746,-5.09060001373291
1705061462115432700,46.0804326171875,6.217899799346924,0.21449999511241913,-7.483299732208252
1705061462175432700,46.1404326171875,6.105599880218506,1.8923999071121216,-6.466699600219727
1705061462235432700,46.2004326171875,3.5490000247955322,7.824100017547607,-3.431999921798706
1705061462295432700,46.2604326171875,1.5365999937057495,7.7114996910095215,-1.7876999378204346
1705061462355432700,46.3204326171875,1.2232999801635742,2.400099992752075,-0.16349999606609344
1705061462415432700,46.3804326171875,1.6689999103546143,0.6297000050544739,2.284600019454956
1705061462475432700,46.4404326171875,2.7207999229431152,1.4600999355316162,4.065499782562256
1705061462535432700,46.5004326171875,2.8264999389648438,3.674999952316284,4.872299671173096
1705061462595432700,46.5604326171875,1.3112999200820923,4.984899997711182,6.83929967880249
1705061462655432700,46.6204326171875,0.5918999910354614,2.1796998977661133,5.963899612426758
1705061462715432700,46.6804326171875,-1.3601999282836914,3.911099910736084,4.712100028991699
1705061462775432700,46.7404326171875,0.8201999664306641,8.308099746704102,2.679999828338623
1705061462835432700,46.8004326171875,1.1697999238967896,4.172100067138672,1.7963999509811401
1705061462895432700,46.8604326171875,0.8050000071525574,0.6783999800682068,-1.654099941253662
1705061462955432700,46.9204326171875,3.192699909210205,0.7432999610900879,-0.5918999910354614
1705061463015432700,46.9804326171875,3.895599842071533,2.4098000526428223,-2.5035998821258545
1705061463075432700,47.0404326171875,5.463799953460693,1.3964999914169312,-5.031300067901611
1705061463135432700,47.1004326171875,5.008999824523926,2.150099992752075,-7.518899917602539
1705061463195432700,47.1604326171875,4.7708001136779785,1.0091999769210815,-7.275199890136719
1705061463255432700,47.2204326171875,4.51669979095459,3.2976999282836914,-6.045300006866455
1705061463315432700,47.2804326171875,0.8986999988555908,7.141599655151367,-3.3895998001098633
1705061463375432700,47.3404326171875,1.4280999898910522,4.0055999755859375,-1.278499960899353
1705061463435432700,47.4004326171875,1.4643999338150024,0.023799998685717583,0.7718999981880188
1705061463495432700,47.4604326171875,2.0571999549865723,-0.6574999690055847,1.6818000078201294
1705061463555432700,47.5204326171875,4.263299942016602,1.6488999128341675,2.335700035095215
1705061463615432700,47.5804326171875,3.8504998683929443,5.892099857330322,2.7293999195098877
1705061463675432700,47.6404326171875,-0.49549999833106995,4.265399932861328,7.275799751281738
1705061463735432700,47.7004326171875,0.9177999496459961,2.7792999744415283,7.1697998046875
1705061463795432700,47.7604326171875,0.7455999851226807,3.207199811935425,4.138700008392334
1705061463855432700,47.8204326171875,0.44609999656677246,6.625699996948242,2.4866998195648193
1705061463915432700,47.8804326171875,0.48979997634887695,2.0922000408172607,1.2310999631881714
1705061463975432700,47.9404326171875,1.4228999614715576,-1.9466999769210815,0.21519999206066132
1705061464035432700,48.0004326171875,2.841599941253662,-1.911099910736084,-2.0934998989105225
1705061464095432700,48.0604326171875,0.49079999327659607,2.083199977874756,-5.463599681854248
1705061464155432700,48.1204326171875,0.8646000027656555,1.152400016784668,-5.030200004577637
1705061464215432700,48.1804326171875,4.615900039672852,0.6456999778747559,-5.735199928283691
1705061464275432700,48.2404326171875,4.925899982452393,0.7932999730110168,-7.035699844360352
1705061464335432700,48.3004326171875,3.197199821472168,5.252500057220459,-4.451699733734131
1705061464395432700,48.3604326171875,0.8668999671936035,6.7328996658325195,-1.6983999013900757
1705061464455432700,48.4204326171875,1.7867000102996826,0.7335000038146973,-0.9634999632835388
1705061464515432700,48.4804326171875,1.2314000129699707,-2.1368000507354736,1.1596999168395996
1705061464575432700,48.5404326171875,2.3657000064849854,-0.9617999792098999,3.150599956512451
1705061464635432700,48.6004326171875,2.6745998859405518,1.8012999296188354,3.1389999389648438
1705061464695432700,48.6604326171875,1.9914000034332275,4.319299697875977,4.165899753570557
1705061464755432700,48.7204326171875,-0.5198000073432922,3.4635000228881836,5.640399932861328
1705061464815432700,48.7804326171875,0.29889997839927673,6.014400005340576,3.578699827194214
1705061464875432700,48.8404326171875,-0.8941999673843384,5.312900066375732,2.766199827194214
1705061464935432700,48.9004326171875,0.5210999846458435,5.069200038909912,1.3752999305725098
1705061464995432700,48.9604326171875,1.2095999717712402,-1.038599967956543,0.635699987411499
1705061465055432700,49.0204326171875,2.253700017929077,-3.322000026702881,-0.09799999743700027
1705061465115432700,49.0804326171875,2.9375998973846436,-1.7101999521255493,-2.0184998512268066
1705061465175432700,49.1404326171875,1.2805999517440796,2.011199951171875,-3.6768999099731445
1705061465235432700,49.2004326171875,2.0184998512268066,1.6440999507904053,-4.460000038146973
1705061465295434200,49.260434326171875,3.4412999153137207,0.7631999850273132,-5.879299640655518
1705061465355432700,49.3204326171875,3.1780998706817627,0.9928999543190002,-5.469899654388428
1705061465415432700,49.3804326171875,2.529099941253662,3.606799840927124,-2.732800006866455
1705061465475432700,49.4404326171875,1.9959999322891235,4.136499881744385,-2.0713000297546387
1705061465535432700,49.5004326171875,1.3674999475479126,0.4072999954223633,-0.6730999946594238
1705061465595432700,49.5604326171875,1.284500002861023,-1.838499903678894,1.3246999979019165
1705061465655432700,49.6204326171875,2.044999837875366,-1.5548999309539795,2.2476999759674072
1705061465715432700,49.6804326171875,3.0309998989105225,1.1674000024795532,1.7448999881744385
1705061465775432700,49.7404326171875,1.7188999652862549,4.3684000968933105,2.940999984741211
1705061465835432700,49.8004326171875,-1.20579993724823,4.7677998542785645,4.862599849700928
1705061465895432700,49.8604326171875,-1.3615000247955322,7.086699962615967,4.96429967880249
1705061465955432700,49.9204326171875,-4.113699913024902,3.3413000106811523,5.170599937438965
1705061466015432700,49.9804326171875,-3.321899890899658,2.2026000022888184,3.597599983215332
1705061466075432700,50.0404326171875,-0.11490000039339066,0.712399959564209,1.6449999809265137
1705061466135432700,50.1004326171875,3.290299892425537,2.227799892425537,-0.5164999961853027
1705061466195432700,50.1604326171875,5.544600009918213,2.6873998641967773,-1.490299940109253
1705061466255432700,50.2204326171875,7.717700004577637,2.795799970626831,-2.2451000213623047
1705061466315432700,50.2804326171875,9.5472993850708,2.9004998207092285,-1.7551000118255615
1705061466375432700,50.3404326171875,9.066100120544434,5.633299827575684,-4.08459997177124
1705061466435432700,50.4004326171875,3.9890999794006348,8.295899391174316,-3.421099901199341
1705061466495432700,50.4604326171875,1.1790999174118042,3.382399797439575,-2.3083999156951904
1705061466555432700,50.5204326171875,0.34039998054504395,-1.6073999404907227,-0.9296000003814697
1705061466615432700,50.5804326171875,1.2625999450683594,-1.6225999593734741,-0.3418999910354614
1705061466675432700,50.6404326171875,3.3695998191833496,1.9107999801635742,0.20639999210834503
1705061466735432700,50.7004326171875,2.7654998302459717,8.304200172424316,2.797799825668335
1705061466795432700,50.7604326171875,-2.4514999389648438,6.297399997711182,8.172200202941895
1705061466855432700,50.8204326171875,-0.984499990940094,3.5009000301361084,5.370100021362305
1705061466915432700,50.8804326171875,-0.7269999980926514,6.791100025177002,3.6338999271392822
1705061466975432700,50.9404326171875,1.0842000246047974,4.833600044250488,2.566999912261963
1705061467035432700,51.0004326171875,2.565700054168701,0.36419999599456787,1.6265000104904175
1705061467095432700,51.0604326171875,3.007499933242798,-0.861299991607666,-0.5715999603271484
1705061467155432700,51.1204326171875,2.734799861907959,1.0848000049591064,-2.635200023651123
1705061467215432700,51.1804326171875,2.4609999656677246,0.09059999883174896,-4.688299655914307
1705061467275432700,51.2404326171875,5.396899700164795,0.4189999997615814,-6.028199672698975
1705061467335432700,51.3004326171875,5.571899890899658,-0.4413999915122986,-7.158199787139893
1705061467395432700,51.3604326171875,4.371799945831299,2.902899980545044,-5.60129976272583
1705061467455432700,51.4204326171875,1.4763000011444092,9.880999565124512,-1.5410999059677124
1705061467515432700,51.4804326171875,0.8312000036239624,6.102599620819092,-0.30329999327659607
1705061467575432700,51.5404326171875,1.4991999864578247,0.3504999876022339,0.6929999589920044
1705061467635432700,51.6004326171875,0.8938999772071838,-1.4107999801635742,3.212599992752075
1705061467695432700,51.6604326171875,2.17330002784729,-0.33079999685287476,4.305200099945068
1705061467755432700,51.7204326171875,2.8715999126434326,1.5619999170303345,4.322499752044678
1705061467815432700,51.7804326171875,2.6984000205993652,4.24370002746582,4.6778998374938965
1705061467875432700,51.8404326171875,-1.035499930381775,3.0443999767303467,6.182600021362305
1705061467935432700,51.9004326171875,-2.4330999851226807,4.109399795532227,4.7328996658325195
1705061467995432700,51.9604326171875,-1.0829999446868896,7.5802998542785645,1.2098000049591064
1705061468055432700,52.0204326171875,-1.6735999584197998,4.807799816131592,0.9908999800682068
1705061468115432700,52.0804326171875,1.917199969291687,0.8343999981880188,0.3271999955177307
1705061468175432700,52.1404326171875,4.207499980926514,1.1664999723434448,-1.0613999366760254
1705061468235432700,52.2004326171875,3.687699794769287,2.142899990081787,-2.1554999351501465
1705061468295432700,52.2604326171875,4.878900051116943,-0.3001999855041504,-5.995299816131592
1705061468355432700,52.3204326171875,6.086999893188477,1.246999979019165,-7.6255998611450195
1705061468415432700,52.3804326171875,6.285099983215332,2.1476998329162598,-8.114799499511719
1705061468475432700,52.4404326171875,3.698499917984009,5.881099700927734,-4.938999652862549
1705061468535432700,52.5004326171875,2.2727999687194824,8.23289966583252,-3.0850000381469727
1705061468595432700,52.5604326171875,2.00219988822937,4.819799900054932,-1.7216999530792236
1705061468655432700,52.6204326171875,2.1160998344421387,1.928999900817871,0.677299976348877
1705061468715432700,52.6804326171875,3.6747000217437744,2.467599868774414,2.969399929046631
1705061468775432700,52.7404326171875,3.644199848175049,3.849900007247925,3.834199905395508
1705061468835432700,52.8004326171875,4.019000053405762,6.450699806213379,5.064899921417236
1705061468895432700,52.8604326171875,0.31919997930526733,3.1621999740600586,8.60789966583252
1705061468955432700,52.9204326171875,-0.5572999715805054,4.000199794769287,5.917500019073486
1705061469015432700,52.9804326171875,-1.2223999500274658,5.722099781036377,3.8205997943878174
1705061469075432700,53.0404326171875,0.4350000023841858,8.31659984588623,2.712899923324585
1705061469135432700,53.1004326171875,0.20749999582767487,2.3724000453948975,1.2024999856948853
1705061469195432700,53.1604326171875,1.7490999698638916,-0.44259998202323914,-1.445199966430664
1705061469255432700,53.2204326171875,0.8267999887466431,2.5427000522613525,-3.9786999225616455
1705061469315432700,53.2804326171875,1.1832000017166138,1.6032999753952026,-3.9289000034332275
1705061469375432700,53.3404326171875,6.571499824523926,2.988799810409546,-4.199699878692627
1705061469435432700,53.4004326171875,6.535799980163574,1.0578999519348145,-4.075799942016602
1705061469495432700,53.4604326171875,4.047699928283691,3.718400001525879,-5.64739990234375
1705061469555432700,53.5204326171875,3.8882999420166016,3.5251998901367188,-2.955699920654297
1705061469615432700,53.5804326171875,2.2284998893737793,4.285399913787842,-1.6239999532699585
1705061469675432700,53.6404326171875,1.7965999841690063,-0.5631999969482422,-0.7013999819755554
1705061469735432700,53.7004326171875,2.5525999069213867,-2.0009000301361084,0.902899980545044
1705061469795432700,53.7604326171875,3.5269999504089355,-0.9138000011444092,2.1898999214172363
1705061469855432700,53.8204326171875,3.5123000144958496,1.9815999269485474,2.513700008392334
1705061469915432700,53.8804326171875,1.2659999132156372,6.083199977874756,4.509099960327148
1705061469975432700,53.9404326171875,-1.0950000286102295,4.615600109100342,6.508599758148193
1705061470035432700,54.0004326171875,-0.7829999923706055,2.25,3.8646998405456543
1705061470095432700,54.0604326171875,-0.9365999698638916,7.718400001525879,2.2423999309539795
1705061470155432700,54.1204326171875,-0.13449999690055847,3.624799966812134,1.7892999649047852
1705061470215432700,54.1804326171875,1.678999900817871,-0.6732999682426453,0.2669000029563904
1705061470275432700,54.2404326171875,3.2624998092651367,-0.8030999898910522,-0.45819997787475586
1705061470335432700,54.3004326171875,3.053299903869629,0.7720999717712402,-2.146899938583374
1705061470395432700,54.3604326171875,4.038599967956543,0.18410000205039978,-4.128399848937988
1705061470455432700,54.4204326171875,6.003399848937988,1.6441999673843384,-4.711400032043457
1705061470515432700,54.4804326171875,4.8420000076293945,3.0274999141693115,-4.542200088500977
1705061470575432700,54.5404326171875,4.264199733734131,2.2082998752593994,-4.621799945831299
1705061470635432700,54.6004326171875,1.7644999027252197,5.850499629974365,-2.6034998893737793
1705061470695432700,54.6604326171875,0.10489999502897263,3.261199951171875,-0.8237999677658081
1705061470755432700,54.7204326171875,0.8441999554634094,-1.6749999523162842,0.0015999999595806003
1705061470815432700,54.7804326171875,1.8598999977111816,-2.714599847793579,1.125499963760376
1705061470875432700,54.8404326171875,3.347599983215332,-0.9523999691009521,2.331699848175049
1705061470935432700,54.9004326171875,3.7298998832702637,4.3856000900268555,1.6466000080108643
1705061470995432700,54.9604326171875,-1.136299967765808,5.327199935913086,6.952099800109863
1705061471055432700,55.0204326171875,-1.2460999488830566,3.906599998474121,6.802199840545654
1705061471115432700,55.0804326171875,-1.3048999309539795,3.190500020980835,3.2040998935699463
1705061471175432700,55.1404326171875,-1.3737999200820923,6.705899715423584,1.5645999908447266
1705061471235432700,55.2004326171875,-0.30230000615119934,1.8082998991012573,0.5871999859809875
1705061471295432700,55.2604326171875,2.741299867630005,-1.9478999376296997,0.826200008392334
1705061471355432700,55.3204326171875,3.5423998832702637,-2.252699851989746,-1.753600001335144
1705061471415432700,55.3804326171875,3.5088000297546387,1.0250999927520752,-3.3183000087738037
1705061471475432700,55.4404326171875,3.532399892807007,2.076900005340576,-3.8252999782562256
1705061471535432700,55.5004326171875,5.048199653625488,0.23179998993873596,-5.010499954223633
1705061471595434200,55.56043432617187,5.520199775695801,1.9731999635696411,-5.077499866485596
1705061471655432700,55.6204326171875,2.3969998359680176,5.9440999031066895,-1.6562999486923218
1705061471715432700,55.6804326171875,2.6282999515533447,6.669699668884277,-2.390199899673462
1705061471775432700,55.7404326171875,1.2580000162124634,1.9519999027252197,0.053199999034404755
1705061471835432700,55.8004326171875,0.2678000032901764,-0.7172999978065491,1.9614999294281006
1705061471895432700,55.8604326171875,2.034899950027466,-0.13269999623298645,3.314499855041504
1705061471955432700,55.9204326171875,2.5518999099731445,1.2541999816894531,4.191400051116943
1705061472015432700,55.9804326171875,3.0082998275756836,3.2256999015808105,4.335299968719482
1705061472075432700,56.0404326171875,-0.020899999886751175,2.112299919128418,4.980999946594238
1705061472135432700,56.1004326171875,-1.5608999729156494,3.310299873352051,3.496500015258789
1705061472195432700,56.1604326171875,0.15919999778270721,7.790999889373779,1.0973999500274658
1705061472255432700,56.2204326171875,-0.17149999737739563,5.875799655914307,2.199399948120117
1705061472315432700,56.2804326171875,-0.04339999705553055,0.9690999984741211,0.515999972820282
1705061472375432700,56.3404326171875,2.7509000301361084,-1.2394999265670776,0.5115000009536743
1705061472435432700,56.4004326171875,3.6972999572753906,0.41439998149871826,-0.8682999610900879
1705061472495432700,56.4604326171875,3.9182000160217285,1.2073999643325806,-2.324399948120117
1705061472555432700,56.5204326171875,4.555599689483643,1.3299999237060547,-4.496099948883057
1705061472615432700,56.5804326171875,4.666500091552734,0.25769999623298645,-5.110599994659424
1705061472675432700,56.6404326171875,4.447299957275391,2.3899998664855957,-5.3516998291015625
1705061472735432700,56.7004326171875,2.583199977874756,5.626399993896484,-3.0421998500823975
1705061472795432700,56.7604326171875,1.3628000020980835,4.361599922180176,-1.7810999155044556
1705061472855432700,56.8204326171875,1.5751999616622925,0.09019999951124191,-0.957099974155426
1705061472915432700,56.8804326171875,1.9843999147415161,-2.091099977493286,0.6371999979019165
1705061472975432700,56.9404326171875,3.5381999015808105,-0.6958000063896179,1.7144999504089355
1705061473035432700,57.0004326171875,3.982800006866455,2.1338999271392822,2.0837998390197754
1705061473095432700,57.0604326171875,2.8620998859405518,6.6763997077941895,3.1917998790740967
1705061473155432700,57.1204326171875,-0.0771000012755394,4.1844000816345215,6.581199645996094
1705061473215432700,57.1804326171875,0.2696000039577484,2.518399953842163,5.106599807739258
1705061473275432700,57.2404326171875,0.5321999788284302,4.697000026702881,2.171299934387207
1705061473335432700,57.3004326171875,-0.6272000074386597,5.666800022125244,2.5130999088287354
1705061473395432700,57.3604326171875,0.786899983882904,0.18459999561309814,1.2634999752044678
1705061473455432700,57.4204326171875,3.043599843978882,-2.674999952316284,0.6162999868392944
1705061473515432700,57.4804326171875,3.6138999462127686,-1.809899926185608,-1.345099925994873
1705061473575432700,57.5404326171875,3.0757999420166016,1.7596999406814575,-2.017699956893921
1705061473635432700,57.6004326171875,3.2214999198913574,3.3748998641967773,-3.2428998947143555
1705061473695432700,57.6604326171875,3.9868998527526855,0.5654999613761902,-5.320099830627441
1705061473755432700,57.7204326171875,6.290999889373779,-0.538599967956543,-7.359499931335449
1705061473815432700,57.7804326171875,0.7057999968528748,6.884099960327148,-2.6338999271392822
1705061473875432700,57.8404326171875,1.4287999868392944,3.8327999114990234,-2.667099952697754
1705061473935432700,57.9004326171875,1.5425000190734863,1.2703999280929565,-1.6818000078201294
1705061473995432700,57.9604326171875,1.2653999328613281,-0.7231999635696411,1.3507000207901
1705061474055432700,58.0204326171875,2.829200029373169,-0.09160000085830688,2.3896000385284424
1705061474115432700,58.0804326171875,2.9082000255584717,2.5065999031066895,2.595099925994873
1705061474175432700,58.1404326171875,2.0414998531341553,4.352799892425537,4.157700061798096
1705061474235432700,58.2004326171875,-0.05209999904036522,2.068199872970581,5.895299911499023
1705061474295432700,58.2604326171875,-0.5153999924659729,3.466599941253662,4.127900123596191
1705061474355432700,58.3204326171875,-0.7480999827384949,6.047299861907959,2.3935999870300293
1705061474415432700,58.3804326171875,-1.8536999225616455,6.7179999351501465,1.5791999101638794
1705061474475432700,58.4404326171875,0.42389997839927673,0.3831000030040741,1.265299916267395
1705061474535432700,58.5004326171875,2.3812999725341797,-3.2098000049591064,1.0026999711990356
1705061474595432700,58.5604326171875,3.3962998390197754,-1.6933000087738037,-1.11080002784729
1705061474655432700,58.6204326171875,2.584699869155884,1.5157999992370605,-2.250699996948242
1705061474715432700,58.6804326171875,3.4866998195648193,2.7490999698638916,-3.2348999977111816
1705061474775432700,58.7404326171875,4.65779972076416,1.2526999711990356,-4.4558000564575195
1705061474835432700,58.8004326171875,5.740099906921387,0.6295999884605408,-5.986999988555908
1705061474895432700,58.8604326171875,2.3480000495910645,4.424200057983398,-3.0782999992370605
1705061474955432700,58.9204326171875,0.9355999827384949,6.088199615478516,-1.1510000228881836
1705061475015432700,58.9804326171875,1.3162999153137207,2.378499984741211,-0.9686999917030334
1705061475075432700,59.0404326171875,0.5712999701499939,-1.4198999404907227,1.6062999963760376
1705061475135432700,59.1004326171875,1.4608999490737915,-1.8212000131607056,3.357499837875366
1705061475195432700,59.1604326171875,2.2196998596191406,-0.5390999913215637,3.4875998497009277
1705061475255432700,59.2204326171875,2.63919997215271,3.790299892425537,3.2532999515533447
1705061475315432700,59.2804326171875,0.005499999970197678,4.354499816894531,5.872799873352051
1705061475375432700,59.3404326171875,-1.1682000160217285,4.344799995422363,4.929999828338623
1705061475435432700,59.4004326171875,-1.253999948501587,4.148399829864502,2.3914999961853027
1705061475495432700,59.4604326171875,-1.1007000207901,4.873600006103516,0.5794999599456787
1705061475555432700,59.5204326171875,-0.4781999886035919,1.6658999919891357,1.3593000173568726
1705061475615432700,59.5804326171875,2.345599889755249,-0.5120999813079834,1.6936999559402466
1705061475675432700,59.6404326171875,3.1789000034332275,0.35439997911453247,-0.29659998416900635
1705061475735432700,59.7004326171875,4.223099708557129,-0.23639999330043793,-1.7572999000549316
1705061475795432700,59.7604326171875,5.244800090789795,-0.2970999777317047,-4.343800067901611
1705061475855432700,59.8204326171875,3.819399833679199,0.7985000014305115,-4.576900005340576
1705061475915432700,59.8804326171875,3.5016000270843506,1.5242999792099,-5.389800071716309
1705061475975432700,59.9404326171875,2.69350004196167,6.767600059509277,-3.4707999229431152
1705061476035432700,60.0004326171875,0.3059999942779541,6.642999649047852,-0.9314999580383301
1705061476095432700,60.0604326171875,1.1524999141693115,1.8016999959945679,0.15969999134540558
1705061476155432700,60.1204326171875,1.242900013923645,-2.0190999507904053,2.1919000148773193
1705061476215432700,60.1804326171875,1.643799901008606,-1.7573999166488647,3.4826998710632324
1705061476275432700,60.2404326171875,2.4707000255584717,-0.28619998693466187,4.400399684906006
1705061476335432700,60.3004326171875,2.351099967956543,2.523900032043457,4.209499835968018
1705061476395432700,60.3604326171875,0.8203999996185303,4.316199779510498,4.718999862670898
1705061476455432700,60.4204326171875,-0.582099974155426,4.195300102233887,2.9110000133514404
1705061476515432700,60.4804326171875,-0.4805999994277954,4.449999809265137,1.551800012588501
1705061476575432700,60.5404326171875,-0.13099999725818634,5.557699680328369,0.04989999905228615
1705061476635432700,60.6004326171875,-1.0383999347686768,2.294800043106079,0.6898999810218811
1705061476695432700,60.6604326171875,4.368799686431885,0.2239999920129776,1.1223000288009644
1705061476755432700,60.7204326171875,6.843299865722656,-1.4291999340057373,-2.0434000492095947
1705061476815432700,60.7804326171875,5.019799709320068,-3.5760998725891113,-5.342199802398682
1705061476875432700,60.8404326171875,5.190000057220459,-1.9312999248504639,-4.765599727630615
1705061476935432700,60.9004326171875,2.8873000144958496,-0.19059999287128448,-4.801300048828125
1705061476995432700,60.9604326171875,3.017400026321411,0.3522999882698059,-4.549599647521973
1705061477055432700,61.0204326171875,0.5900999903678894,4.327300071716309,-0.790399968624115
1705061477115432700,61.0804326171875,-0.748699963092804,5.785399913787842,1.202799916267395
1705061477175432700,61.1404326171875,0.4837999939918518,1.9660999774932861,2.831699848175049
1705061477235432700,61.2004326171875,0.5509999990463257,-3.6684999465942383,4.79509973526001
1705061477295432700,61.2604326171875,1.7411999702453613,-5.487099647521973,3.0569000244140625
1705061477355432700,61.3204326171875,2.9077999591827393,-4.428800106048584,0.8256999850273132
1705061477415432700,61.3804326171875,3.5782999992370605,-0.46149998903274536,-1.396299958229065
1705061477475432700,61.4404326171875,-0.11999999731779099,7.268699645996094,-0.21310000121593475
1705061477535432700,61.5004326171875,-1.7752000093460083,7.687699794769287,4.224699974060059
1705061477595432700,61.5604326171875,2.526399850845337,4.7957000732421875,5.95959997177124
1705061477655432700,61.6204326171875,-0.9919999837875366,3.5829999446868896,4.44980001449585
1705061477715432700,61.6804326171875,1.2405999898910522,-0.12319999933242798,2.2925000190734863
1705061477775432700,61.7404326171875,2.47160005569458,-2.8282999992370605,0.3958999812602997
1705061477835432700,61.8004326171875,2.347100019454956,-2.040600061416626,-2.6064000129699707
1705061477895432700,61.8604326171875,1.3492000102996826,-0.3310999870300293,-4.80620002746582
1705061477955432700,61.9204326171875,1.9845999479293823,0.4188999831676483,-6.8805999755859375
1705061478015432700,61.9804326171875,1.7759000062942505,-0.4854999780654907,-6.849899768829346
1705061478075432700,62.0404326171875,2.2363998889923096,-0.8610000014305115,-7.025799751281738
1705061478135432700,62.1004326171875,0.3528999984264374,4.939599990844727,-4.827600002288818
1705061478195432700,62.1604326171875,1.2245999574661255,7.8225998878479,-3.806299924850464
1705061478255432700,62.2204326171875,1.7111999988555908,6.759999752044678,-2.0585999488830566
1705061478315432700,62.2804326171875,2.4876999855041504,2.6816999912261963,1.9358999729156494
1705061478375432700,62.3404326171875,3.739799976348877,1.5304999351501465,4.593699932098389
1705061478435432700,62.4004326171875,3.9843997955322266,2.807499885559082,5.358500003814697
1705061478495432700,62.4604326171875,3.557999849319458,4.311299800872803,6.1031999588012695
1705061478555432700,62.5204326171875,1.146899938583374,2.84689998626709,7.922999858856201
1705061478615432700,62.5804326171875,-1.3425999879837036,4.758999824523926,6.052700042724609
1705061478675432700,62.6404326171875,-0.7487999796867371,8.485599517822266,3.526099920272827
1705061478735432700,62.7004326171875,0.257999986410141,8.866499900817871,3.034600019454956
1705061478795432700,62.7604326171875,-0.06449999660253525,2.9893999099731445,0.4399999976158142
1705061478855432700,62.8204326171875,0.7723999619483948,0.5715000033378601,-0.3536999821662903
1705061478915432700,62.8804326171875,2.426100015640259,3.212100028991699,-2.4402999877929688
1705061478975432700,62.9404326171875,2.2000999450683594,3.3710999488830566,-6.895099639892578
1705061479035432700,63.0004326171875,6.62529993057251,0.45260000228881836,-6.35699987411499
1705061479095432700,63.0604326171875,7.156499862670898,0.8203999996185303,-6.948899745941162
1705061479155432700,63.1204326171875,5.718999862670898,0.9565999507904053,-6.460700035095215
1705061479215432700,63.1804326171875,4.083699703216553,7.604899883270264,-4.111799716949463
1705061479275432700,63.2404326171875,2.176100015640259,6.159899711608887,-1.9621999263763428
1705061479335432700,63.3004326171875,0.702299952507019,3.3172998428344727,-0.24199999868869781
1705061479395432700,63.3604326171875,0.6071999669075012,0.7031999826431274,0.4705999791622162
1705061479455432700,63.4204326171875,3.505999803543091,1.865899920463562,2.200000047683716
1705061479515432700,63.4804326171875,4.343999862670898,3.2891998291015625,3.6118998527526855
1705061479575432700,63.5404326171875,4.3217997550964355,4.816299915313721,4.9101996421813965
1705061479635432700,63.6004326171875,-0.17159999907016754,2.6606998443603516,7.285699844360352
1705061479695432700,63.6604326171875,-3.060999870300293,5.174299716949463,6.464399814605713
1705061479755432700,63.7204326171875,-1.5151000022888184,4.8618998527526855,3.0237998962402344
1705061479815432700,63.7804326171875,0.6884999871253967,6.45359992980957,2.797799825668335
1705061479875432700,63.8404326171875,0.8973999619483948,1.7395999431610107,-0.3985999822616577
1705061479935432700,63.9004326171875,2.6579999923706055,1.0504000186920166,1.2531999349594116
1705061479995432700,63.9604326171875,3.5140998363494873,2.236799955368042,-0.11699999868869781
1705061480055432700,64.0204326171875,4.405900001525879,1.9716999530792236,-2.099400043487549
1705061480115432700,64.0804326171875,5.16379976272583,1.8463999032974243,-5.534499645233154
1705061480175432700,64.1404326171875,4.704699993133545,0.34379997849464417,-7.118499755859375
1705061480235432700,64.2004326171875,4.025000095367432,1.8564999103546143,-6.84689998626709
1705061480295432700,64.2604326171875,2.174999952316284,4.1006999015808105,-3.603600025177002
1705061480355432700,64.3204326171875,2.6404998302459717,3.8424999713897705,-3.4457998275756836
1705061480415432700,64.3804326171875,1.9584999084472656,1.771399974822998,-1.208899974822998
1705061480475432700,64.4404326171875,2.9709999561309814,1.8499000072479248,1.1435999870300293
1705061480535432700,64.5004326171875,3.8550000190734863,3.3050999641418457,2.9736998081207275
1705061480595432700,64.5604326171875,3.4278998374938965,4.472099781036377,3.54229998588562
1705061480655434200,64.62043432617187,3.6783998012542725,4.859299659729004,4.4893999099731445
1705061480715432700,64.6804326171875,1.5425999164581299,3.1088998317718506,7.177199840545654
1705061480775432700,64.7404326171875,-0.7807999849319458,3.3526999950408936,5.444499969482422
1705061480835432700,64.8004326171875,-0.38929998874664307,7.799099922180176,4.134699821472168
1705061480895432700,64.8604326171875,0.7915999889373779,4.736999988555908,3.981599807739258
1705061480955432700,64.9204326171875,1.1646000146865845,0.2248999923467636,0.7512999773025513
1705061481015432700,64.9804326171875,1.125999927520752,-0.09749999642372131,-0.7335999608039856
1705061481075432700,65.0404326171875,2.5332000255584717,2.208899974822998,-1.2344999313354492
1705061481135432700,65.1004326171875,2.3055999279022217,3.079399824142456,-3.1092000007629395
1705061481195432700,65.1604326171875,3.7206997871398926,1.7798999547958374,-6.118299961090088
1705061481255432700,65.2204326171875,4.651400089263916,0.10339999943971634,-7.97659969329834
1705061481315432700,65.2804326171875,2.767400026321411,2.592599868774414,-5.61269998550415
1705061481375432700,65.3404326171875,2.8422000408172607,1.9574999809265137,-5.840699672698975
1705061481435432700,65.4004326171875,2.2925000190734863,4.600500106811523,-4.083699703216553
1705061481495432700,65.4604326171875,2.084699869155884,2.184299945831299,-0.9019999504089355
1705061481555432700,65.5204326171875,2.5515999794006348,0.6676999926567078,0.9587999582290649
1705061481615432700,65.5804326171875,3.749300003051758,1.5227999687194824,2.5678000450134277
1705061481675432700,65.6404326171875,3.983799934387207,3.443199872970581,3.265899896621704
1705061481735432700,65.7004326171875,3.5730998516082764,4.326200008392334,4.574399948120117
1705061481795432700,65.7604326171875,1.2280999422073364,2.4759998321533203,7.497799873352051
1705061481855432700,65.8204326171875,-1.1898000240325928,2.767199993133545,6.387499809265137
1705061481915432700,65.8804326171875,-0.26190000772476196,6.5752997398376465,2.2677998542785645
1705061481975432700,65.9404326171875,-0.43799999356269836,7.156099796295166,2.204200029373169
1705061482035432700,66.0004326171875,-0.05909999832510948,0.8050000071525574,0.17180000245571136
1705061482095432700,66.0604326171875,1.2972999811172485,-1.1740999221801758,-1.1964999437332153
1705061482155432700,66.1204326171875,2.2045998573303223,0.8950999975204468,-2.389699935913086
1705061482215432700,66.1804326171875,0.988099992275238,1.2348999977111816,-4.805200099945068
1705061482275432700,66.2404326171875,2.497299909591675,0.6258000135421753,-7.275599956512451
1705061482335432700,66.3004326171875,3.4419000148773193,-0.7058999538421631,-8.50510025024414
1705061482395432700,66.3604326171875,4.03249979019165,1.6418999433517456,-6.872699737548828
1705061482455432700,66.4204326171875,1.6237999200820923,7.852200031280518,-3.981799840927124
1705061482515432700,66.4804326171875,1.7585999965667725,5.401000022888184,-2.2179999351501465
1705061482575432700,66.5404326171875,2.0699000358581543,1.0928999185562134,-0.29569998383522034
1705061482635432700,66.6004326171875,1.9347999095916748,0.8357999920845032,2.6800999641418457
1705061482695432700,66.6604326171875,2.7291998863220215,1.8046000003814697,3.9472999572753906
1705061482755432700,66.7204326171875,2.9228999614715576,3.690699815750122,4.297499656677246
1705061482815432700,66.7804326171875,2.1766998767852783,3.2523000240325928,5.485799789428711
1705061482875432700,66.8404326171875,0.3531999886035919,1.1898000240325928,4.810499668121338
1705061482935432700,66.9004326171875,-2.0192999839782715,2.7958998680114746,5.532399654388428
1705061482995432700,66.9604326171875,0.22619999945163727,8.557499885559082,2.3095998764038086
1705061483055432700,67.0204326171875,-0.29839998483657837,5.262700080871582,2.5458998680114746
1705061483115432700,67.0804326171875,0.6284999847412109,0.4544000029563904,0.27619999647140503
1705061483175432700,67.1404326171875,3.404899835586548,-1.1000999212265015,0.30889999866485596
1705061483235432700,67.2004326171875,2.884999990463257,0.6193999648094177,-1.8616999387741089
1705061483295432700,67.2604326171875,2.5391998291015625,1.4536999464035034,-4.050699710845947
1705061483355432700,67.3204326171875,4.1041998863220215,1.211899995803833,-6.1392998695373535
1705061483415432700,67.3804326171875,5.58459997177124,-0.42100000381469727,-7.701399803161621
1705061483475432700,67.4404326171875,4.473499774932861,1.1138999462127686,-6.510599613189697
1705061483535432700,67.5004326171875,3.4452998638153076,6.72029972076416,-4.802700042724609
1705061483595432700,67.5604326171875,2.3306000232696533,6.595799922943115,-3.1908998489379883
1705061483655432700,67.6204326171875,1.4966999292373657,2.9804999828338623,-0.2687000036239624
1705061483715432700,67.6804326171875,2,1.147499918937683,2.0439999103546143
1705061483775432700,67.7404326171875,2.836400032043457,1.4716999530792236,3.5020999908447266
1705061483835432700,67.8004326171875,3.056299924850464,2.7094998359680176,4.444499969482422
1705061483895432700,67.8604326171875,2.825500011444092,2.607300043106079,5.9415998458862305
1705061483955432700,67.9204326171875,-0.46239998936653137,1.5658999681472778,6.512699604034424
1705061484015432700,67.9804326171875,-1.2455999851226807,6.420599937438965,4.853600025177002
1705061484075432700,68.0404326171875,0.3206999897956848,8.343599319458008,2.9961998462677
1705061484135432700,68.1004326171875,0.6661999821662903,6.749799728393555,1.5654000043869019
1705061484195432700,68.1604326171875,0.6651999950408936,0.7544999718666077,0.19669999182224274
1705061484255432700,68.2204326171875,3.7421000003814697,-0.6146000027656555,-0.179299995303154
1705061484315432700,68.2804326171875,3.204699993133545,2.1658999919891357,-2.660799980163574
1705061484375432700,68.3404326171875,2.2548999786376953,1.542799949645996,-4.684899806976318
1705061484435432700,68.4004326171875,4.33459997177124,0.8628000020980835,-6.8277997970581055
1705061484495432700,68.4604326171875,5.471799850463867,-1.011799931526184,-8.644299507141113
1705061484555432700,68.5204326171875,4.801499843597412,2.195499897003174,-6.565199851989746
1705061484615432700,68.5804326171875,3.787799835205078,6.958399772644043,-4.573699951171875
1705061484675432700,68.6404326171875,3.128000020980835,7.3588995933532715,-2.386199951171875
1705061484735432700,68.7004326171875,2.267699956893921,2.5570998191833496,0.33480000495910645
1705061484795432700,68.7604326171875,2.5789999961853027,1.4193999767303467,2.7272000312805176
1705061484855432700,68.8204326171875,3.24429988861084,3.324699878692627,3.6008999347686768
1705061484915432700,68.8804326171875,3.441999912261963,5.128299713134766,4.631099700927734
1705061484975432700,68.9404326171875,1.8355000019073486,3.5379998683929443,6.835599899291992
1705061485035432700,69.0004326171875,-0.0786999985575676,3.0139000415802,6.690099716186523
1705061485095432700,69.0604326171875,-1.1416000127792358,7.040799617767334,5.518199920654297
1705061485155432700,69.1204326171875,0.02369999885559082,8.662599563598633,3.2500998973846436
1705061485215432700,69.1804326171875,0.723800003528595,3.5326998233795166,1.8824999332427979
1705061485275432700,69.2404326171875,0.5252000093460083,-0.04829999804496765,-0.953499972820282
1705061485335432700,69.3004326171875,3.2171998023986816,0.11189999431371689,-0.19679999351501465
1705061485395432700,69.3604326171875,2.2818000316619873,2.28410005569458,-3.5152997970581055
1705061485455432700,69.4204326171875,3.993799924850464,1.4785999059677124,-6.411399841308594
1705061485515432700,69.4804326171875,4.771100044250488,1.2089999914169312,-7.4415998458862305
1705061485575432700,69.5404326171875,5.135799884796143,0.8693000078201294,-8.365799903869629
1705061485635432700,69.6004326171875,4.3653998374938965,1.6324999332427979,-5.726099967956543
1705061485695432700,69.6604326171875,1.5716999769210815,8.198299407958984,-2.7637999057769775
1705061485755432700,69.7204326171875,1.5123999118804932,6.916299819946289,-1.4014999866485596
1705061485815432700,69.7804326171875,0.9329999685287476,2.084199905395508,1.323199987411499
1705061485875432700,69.8404326171875,1.3901000022888184,0.2021999955177307,3.8641998767852783
1705061485935432700,69.9004326171875,2.3875999450683594,0.8669999837875366,4.80109977722168
1705061485995432700,69.9604326171875,2.98580002784729,2.3248000144958496,5.074699878692627
1705061486055432700,70.0204326171875,2.6403000354766846,3.776399850845337,5.808700084686279
1705061486115432700,70.0804326171875,-0.16599999368190765,3.021699905395508,5.049999713897705
1705061486175432700,70.1404326171875,-2.099400043487549,4.337399959564209,5.066499710083008
1705061486235432700,70.2004326171875,-0.4276999831199646,8.687799453735352,0.367499977350235
1705061486295432700,70.2604326171875,-1.2706999778747559,5.031199932098389,1.636099934577942
1705061486355432700,70.3204326171875,1.017699956893921,0.6410999894142151,1.0956000089645386
1705061486415432700,70.3804326171875,3.0904998779296875,-0.08749999850988388,0.7263000011444092
1705061486475432700,70.4404326171875,4.6545000076293945,2.124300003051758,-1.1272000074386597
1705061486535432700,70.5004326171875,6.11959981918335,1.4011999368667603,-3.8945000171661377
1705061486595432700,70.5604326171875,6.145299911499023,0.667199969291687,-5.255099773406982
1705061486655432700,70.6204326171875,6.9639997482299805,0.9609999656677246,-5.770199775695801
1705061486715432700,70.6804326171875,6.471299648284912,2.530900001525879,-5.135799884796143
1705061486775432700,70.7404326171875,4.223099708557129,8.443099975585938,-3.4343998432159424
1705061486835432700,70.8004326171875,1.9499999284744263,7.579099655151367,-2.0348000526428223
1705061486895432700,70.8604326171875,-0.638700008392334,2.54830002784729,2.3657000064849854
1705061486955432700,70.9204326171875,0.33660000562667847,0.017099998891353607,2.0214998722076416
1705061487015432700,70.9804326171875,2.4480998516082764,0.9914999604225159,3.223299980163574
1705061487075432700,71.0404326171875,4.059899806976318,2.9440999031066895,4.013599872589111
1705061487135432700,71.1004326171875,2.6322999000549316,2.738999843597412,6.484899997711182
1705061487195432700,71.1604326171875,-0.8601999878883362,2.325700044631958,6.311399936676025
1705061487255432700,71.2204326171875,-1.5389000177383423,5.405299663543701,5.303599834442139
1705061487315432700,71.2804326171875,1.2573000192642212,9.657899856567383,1.0259000062942505
1705061487375432700,71.3404326171875,-0.019700000062584877,6.317699909210205,1.9437999725341797
1705061487435432700,71.4004326171875,0.7674999833106995,1.1201000213623047,0.567799985408783
1705061487495432700,71.4604326171875,3.176999807357788,-0.058799996972084045,-1.237399935722351
1705061487555432700,71.5204326171875,2.460399866104126,1.948599934577942,-4.953700065612793
1705061487615432700,71.5804326171875,4.392199993133545,0.7128999829292297,-4.9238996505737305
1705061487675432700,71.6404326171875,7.494999885559082,1.5037000179290771,-4.974999904632568
1705061487735432700,71.7004326171875,5.836999893188477,0.7709999680519104,-7.577699661254883
1705061487795432700,71.7604326171875,4.979799747467041,3.982100009918213,-4.239500045776367
1705061487855432700,71.8204326171875,1.6502000093460083,9.187899589538574,-1.1145999431610107
1705061487915432700,71.8804326171875,1.2401000261306763,5.177999973297119,-0.7222999930381775
1705061487975432700,71.9404326171875,1.51419997215271,1.4031000137329102,1.1038999557495117
1705061488035432700,72.0004326171875,2.1445000171661377,0.8506999611854553,3.236799955368042
1705061488095432700,72.0604326171875,2.417099952697754,1.6080999374389648,4.746999740600586
1705061488155432700,72.1204326171875,2.3857998847961426,1.8325999975204468,5.776400089263916
1705061488215432700,72.1804326171875,2.224799871444702,2.6233999729156494,6.548699855804443
1705061488275432700,72.2404326171875,-0.8501999974250793,2.9012999534606934,5.564300060272217
1705061488335432700,72.3004326171875,-0.3725999891757965,6.188199996948242,2.6845998764038086
1705061488395432700,72.3604326171875,0.9982999563217163,8.045199394226074,1.7955999374389648
1705061488455432700,72.4204326171875,0.3499999940395355,5.68149995803833,1.8751999139785767
1705061488515432700,72.4804326171875,1.2319999933242798,1.2996000051498413,0.3837999999523163
1705061488575432700,72.5404326171875,3.675999879837036,-0.24539999663829803,-0.5963000059127808
1705061488635432700,72.6004326171875,3.9953999519348145,0.5175999999046326,-1.897499918937683
1705061488695432700,72.6604326171875,4.203799724578857,1.3076999187469482,-3.768399953842163
1705061488755432700,72.7204326171875,4.723599910736084,0.8323999643325806,-5.141900062561035
1705061488815432700,72.7804326171875,4.401299953460693,0.2142999917268753,-6.214099884033203
1705061488875432700,72.8404326171875,4.270199775695801,0.5241000056266785,-5.519899845123291
1705061488935432700,72.9004326171875,3.290099859237671,5.028500080108643,-4.158199787139893
1705061488995432700,72.9604326171875,1.2824000120162964,5.647299766540527,-1.7343999147415161
1705061489055432700,73.0204326171875,1.5936999320983887,2.606799840927124,-0.38769999146461487
1705061489115432700,73.0804326171875,1.9199999570846558,-0.3928000032901764,1.055400013923645
1705061489175432700,73.1404326171875,3.0162999629974365,0.26190000772476196,2.9970998764038086
1705061489235432700,73.2004326171875,3.5627999305725098,2.078399896621704,3.480799913406372
1705061489295432700,73.2604326171875,3.1805999279022217,3.1270999908447266,4.271100044250488
1705061489355432700,73.3204326171875,2.0952000617980957,3.843899965286255,5.428899765014648
1705061489415432700,73.3804326171875,0.4615999758243561,4.296099662780762,3.6203999519348145
1705061489475432700,73.4404326171875,-1.3481999635696411,3.895900011062622,2.1068999767303467
1705061489535432700,73.5004326171875,-0.7116999626159668,6.515500068664551,1.3983999490737915
1705061489595432700,73.5604326171875,-1.1169999837875366,1.4812999963760376,0.75
1705061489655432700,73.6204326171875,1.687600016593933,-2.373699903488159,0.9649999737739563
1705061489715432700,73.6804326171875,3.4948999881744385,-2.265899896621704,-0.6064000129699707
1705061489775432700,73.7404326171875,3.593599796295166,1.168299913406372,-2.754699945449829
1705061489835432700,73.8004326171875,2.9164998531341553,2.0460000038146973,-3.8613998889923096
1705061489895432700,73.8604326171875,3.7919998168945312,0.8465999960899353,-4.921799659729004
1705061489955432700,73.9204326171875,3.859299898147583,0.19269999861717224,-6.271899700164795
1705061490015432700,73.9804326171875,2.6191999912261963,3.1373000144958496,-4.106100082397461
1705061490075432700,74.0404326171875,0.9414999485015869,5.413099765777588,-2.0033998489379883
1705061490135432700,74.1004326171875,1.7202999591827393,2.9804999828338623,-1.1971999406814575
1705061490195432700,74.1604326171875,1.1445999145507812,-0.9729999899864197,0.44579997658729553
1705061490255432700,74.2204326171875,2.1915998458862305,-1.819599986076355,2.274199962615967
1705061490315432700,74.2804326171875,3.6405999660491943,-0.6606000065803528,3.126699924468994
1705061490375432700,74.3404326171875,3.4076998233795166,1.6627999544143677,2.876199960708618
1705061490435432700,74.4004326171875,2.310499906539917,4.8217997550964355,4.057199954986572
1705061490495432700,74.4604326171875,0.2818000018596649,2.872299909591675,5.895999908447266
1705061490555432700,74.5204326171875,-0.661899983882904,3.9472999572753906,3.434299945831299
1705061490615432700,74.5804326171875,-0.4649999737739563,6.911599636077881,1.7632999420166016
1705061490675432700,74.6404326171875,-0.032999999821186066,3.2716000080108643,0.8567000031471252
1705061490735432700,74.7004326171875,1.7673999071121216,-1.6252999305725098,0.6481999754905701
1705061490795432700,74.7604326171875,3.5075998306274414,-2.659799814224243,-0.22829999029636383
1705061490855432700,74.8204326171875,3.726300001144409,-0.05939999967813492,-1.855199933052063
1705061490915432700,74.8804326171875,3.096099853515625,1.9117000102996826,-2.8501999378204346
1705061490975432700,74.9404326171875,3.210099935531616,0.02279999852180481,-4.650700092315674
1705061491035432700,75.0004326171875,3.3550000190734863,0.9490999579429626,-6.004499912261963
1705061491095432700,75.0604326171875,2.472100019454956,1.3442999124526978,-4.366199970245361
1705061491155432700,75.1204326171875,1.6500999927520752,5.184799671173096,-3.643699884414673
1705061491215432700,75.1804326171875,0.5180999636650085,4.229899883270264,-1.6025999784469604
1705061491275432700,75.2404326171875,0.30969998240470886,0.31839999556541443,0.5171999931335449
1705061491335432700,75.3004326171875,0.6251999735832214,-2.138200044631958,1.378999948501587
1705061491395432700,75.3604326171875,3.2233998775482178,-0.7556999921798706,2.610100030899048
1705061491455432700,75.4204326171875,3.4487998485565186,1.5778999328613281,2.9988999366760254
1705061491515432700,75.4804326171875,2.328199863433838,2.9423999786376953,3.548499822616577
1705061491575432700,75.5404326171875,0.5645999908447266,2.3272998332977295,5.10099983215332
1705061491635432700,75.6004326171875,-0.7119999527931213,2.87749981880188,3.779399871826172
1705061491695432700,75.6604326171875,-0.40459999442100525,6.018099784851074,1.6378999948501587
1705061491755432700,75.7204326171875,-1.2968000173568726,5.188899993896484,1.2768999338150024
1705061491815432700,75.7804326171875,0.3588999807834625,-0.9401999711990356,0.7949999570846558
1705061491875432700,75.8404326171875,3.046999931335449,-3.841599941253662,1.2440999746322632
1705061491935432700,75.9004326171875,3.41129994392395,-2.3001999855041504,-1.2188999652862549
1705061491995432700,75.9604326171875,2.6425998210906982,0.8306999802589417,-3.27839994430542
1705061492055432700,76.0204326171875,2.3949999809265137,2.321199893951416,-3.3668999671936035
1705061492115432700,76.0804326171875,3.413299798965454,-0.25779998302459717,-5.520899772644043
1705061492175432700,76.1404326171875,4.860300064086914,1.5520999431610107,-7.78849983215332
1705061492235432700,76.2004326171875,1.6418999433517456,7.30649995803833,-3.071199893951416
1705061492295432700,76.2604326171875,1.6200999021530151,4.954099655151367,-3.1057000160217285
1705061492355432700,76.3204326171875,1.3485000133514404,1.5266000032424927,-0.9014999866485596
1705061492415432700,76.3804326171875,1.8168998956680298,0.6341999769210815,2.0757999420166016
1705061492475432700,76.4404326171875,2.743799924850464,0.33889999985694885,3.703199863433838
1705061492535432700,76.5004326171875,3.1226999759674072,1.7656999826431274,4.189700126647949
1705061492595432700,76.5604326171875,3.2674999237060547,4.020699977874756,4.725299835205078
1705061492655432700,76.6204326171875,1.0647000074386597,2.534099817276001,5.910899639129639
