time,seconds_elapsed,z,y,x
1702685860077219000,0.062218994140625,-0.6901999711990356,0.0010999999940395355,-0.15379999577999115
1702685860137219000,0.122218994140625,-0.18699999153614044,-0.028299998492002487,0.09640000015497208
1702685860197219000,0.182218994140625,-0.08749999850988388,-0.04969999939203262,0.0786999985575676
1702685860257219000,0.242218994140625,-0.018699999898672104,0.04149999842047691,0.2305999994277954
1702685860317219000,0.302218994140625,0.2955999970436096,0.15760000050067902,0.22949999570846558
1702685860377219000,0.362218994140625,0.23709999024868011,-0.5582000017166138,-0.08509999513626099
1702685860437219000,0.422218994140625,-0.06709999591112137,-0.1404999941587448,-0.2295999974012375
1702685860497219000,0.482218994140625,-0.44859999418258667,0.0997999981045723,-0.33069998025894165
1702685860557219000,0.542218994140625,-0.44509997963905334,0.12189999967813492,-0.3287999927997589
1702685860617219000,0.602218994140625,-0.5408999919891357,-0.15320000052452087,-0.12759999930858612
1702685860677219000,0.662218994140625,-0.17399999499320984,0.26739999651908875,0.12069999426603317
1702685860737219000,0.722218994140625,-0.3270999789237976,-0.026899999007582664,0.023000000044703484
1702685860797219000,0.782218994140625,-0.07930000126361847,0.21369999647140503,-0.28679999709129333
1702685860857219000,0.842218994140625,0.0510999970138073,-0.07459999620914459,-0.26980000734329224
1702685860917219000,0.902218994140625,-0.24889999628067017,0.0013000000035390258,-0.19859999418258667
1702685860977219000,0.962218994140625,0.16019999980926514,-0.2352999895811081,0.1339000016450882
1702685861037219000,1.022218994140625,0.21799999475479126,-0.2619999945163727,0.15230000019073486
1702685861097219000,1.082218994140625,-0.08299999684095383,-0.027899999171495438,0.41009998321533203
1702685861157219000,1.142218994140625,2.728299856185913,0.9771999716758728,0.9905999898910522
1702685861217219000,1.202218994140625,0.2557999789714813,-0.8644999861717224,-0.482699990272522
1702685861277219000,1.262218994140625,0.028199998661875725,-0.5155999660491943,-1.1332999467849731
1702685861337219000,1.322218994140625,-2.069499969482422,-0.9146999716758728,1.317699909210205
1702685861397219000,1.382218994140625,-0.7119999527931213,0.6714999675750732,-0.5309999585151672
1702685861457219000,1.442218994140625,0.2953000068664551,-0.4327999949455261,-0.09690000116825104
1702685861517219000,1.502218994140625,-0.38979998230934143,-0.15689998865127563,-0.1340000033378601
1702685861577219000,1.562218994140625,0.1623999923467636,0.40119999647140503,0.8041999936103821
1702685861637219000,1.622218994140625,0.39489999413490295,-0.36159998178482056,0.09129999577999115
1702685861697219000,1.682218994140625,-0.6850999593734741,-0.13409999012947083,0.25040000677108765
1702685861757219000,1.742218994140625,-0.12489999830722809,-0.09730000048875809,0.06449999660253525
1702685861817219000,1.802218994140625,-0.22999998927116394,0.1979999989271164,0.06859999895095825
1702685861877219000,1.862218994140625,-0.5454999804496765,-0.042799998074769974,-0.36969998478889465
1702685861937219000,1.922218994140625,-0.25429999828338623,-0.18850000202655792,0.3666999936103821
1702685861997219000,1.982218994140625,0.08339999616146088,0.05429999902844429,0.4235999882221222
1702685862057219000,2.042218994140625,-0.757099986076355,0.017500000074505806,0.43309998512268066
1702685862117219000,2.102218994140625,0.4967999756336212,0.2052999883890152,0.9889999628067017
1702685862177219000,2.162218994140625,-0.5715999603271484,-0.14899998903274536,-0.6208999752998352
1702685862237219000,2.222218994140625,-0.5900999903678894,-0.39419999718666077,-0.5254999995231628
1702685862297219000,2.282218994140625,-0.289900004863739,-0.18459999561309814,-0.029999999329447746
1702685862357219000,2.342218994140625,-0.15850000083446503,0.0867999941110611,-0.336899995803833
1702685862417219000,2.402218994140625,0.20679999887943268,0.2541999816894531,-0.06449999660253525
1702685862477219000,2.462218994140625,0.11569999903440475,-0.022299999371170998,-0.31379997730255127
1702685862537219000,2.522218994140625,-0.33640000224113464,-0.08329999446868896,-0.09449999779462814
1702685862597219000,2.582218994140625,-0.22379998862743378,-0.25849997997283936,-0.06839999556541443
1702685862657219000,2.642218994140625,-0.13269999623298645,0.06059999763965607,0.38189998269081116
1702685862717219000,2.702218994140625,-0.2458999902009964,0,0.17149999737739563
1702685862777219000,2.762218994140625,-0.1225999966263771,-0.10199999809265137,0.359499990940094
1702685862837219000,2.822218994140625,-0.16579999029636383,-0.007400000002235174,0.5792999863624573
1702685862897219000,2.882218994140625,-0.056699998676776886,-0.1614999920129776,0.48429998755455017
1702685862957219000,2.942218994140625,0.4333999752998352,0.03839999809861183,1.042199969291687
1702685863017219000,3.002218994140625,-0.49789997935295105,0.09239999949932098,0.460099995136261
1702685863077219000,3.062218994140625,-0.726099967956543,-0.02319999970495701,0.5917999744415283
1702685863137219000,3.122218994140625,-0.35359999537467957,-0.38850000500679016,-0.7651999592781067
1702685863197219000,3.182218994140625,-0.7942999601364136,0.07149999588727951,-1.0676000118255615
1702685863257219000,3.242218994140625,-0.9080999493598938,0.5493999719619751,-1.3919999599456787
1702685863317219000,3.302218994140625,-0.08179999887943268,0.24129998683929443,-0.7384999990463257
1702685863377219000,3.362218994140625,-0.18519999086856842,-0.25040000677108765,-0.09279999881982803
1702685863437219000,3.422218994140625,-0.3991999924182892,-0.15079998970031738,0.005699999630451202
1702685863497219000,3.482218994140625,-0.2793999910354614,0.1233999952673912,-0.21369999647140503
1702685863557219000,3.542218994140625,-0.26499998569488525,0.2157999873161316,-0.15219999849796295
1702685863617219000,3.602218994140625,-0.21469999849796295,0.120899997651577,1.0648000240325928
1702685863677219000,3.662218994140625,0.2157999873161316,-0.06449999660253525,0.7828999757766724
1702685863737219000,3.722218994140625,-0.48909997940063477,-0.07829999923706055,0.7785999774932861
1702685863797219000,3.782218994140625,0.1703999936580658,-0.04969999939203262,0.8711999654769897
1702685863857219000,3.842218994140625,0.10569999366998672,0.0737999975681305,0.48569998145103455
1702685863917219000,3.902218994140625,-0.3012999892234802,-0.14959999918937683,0.17479999363422394
1702685863977219000,3.962218994140625,-0.5351999998092651,0.04999999701976776,0.06189999729394913
1702685864037219000,4.022218994140625,-0.06579999625682831,-0.006300000008195639,0.47360000014305115
1702685864097219000,4.082218994140625,-0.5212999582290649,-0.046799998730421066,-0.4821999967098236
1702685864157219000,4.142218994140625,-0.5949999690055847,0.050999999046325684,-0.6649999618530273
1702685864217219000,4.202218994140625,-0.3402999937534332,0.056299999356269836,-0.6722999811172485
1702685864277219000,4.262218994140625,-0.13729999959468842,-0.05549999698996544,-0.2742999792098999
1702685864337219000,4.322218994140625,-0.5950999855995178,-0.0016999999061226845,-0.664900004863739
1702685864397219000,4.382218994140625,-0.2865000069141388,0.10119999945163727,-0.5259999632835388
1702685864457219000,4.442218994140625,-0.4242999851703644,0.015199999324977398,-0.314300000667572
1702685864517219000,4.502218994140625,-0.29249998927116394,-0.025499999523162842,-0.26429998874664307
1702685864577219000,4.562218994140625,-1.2030999660491943,-0.249099999666214,-0.43459999561309814
1702685864637219000,4.622218994140625,0.241799995303154,0.06159999966621399,2.068699836730957
1702685864697219000,4.682218994140625,0.11739999800920486,0.3895999789237976,1.0894999504089355
1702685864757219000,4.742218994140625,-0.07239999622106552,-0.1914999932050705,0.5783999562263489
1702685864817219000,4.802218994140625,-0.13019999861717224,0.04099999740719795,0.5855000019073486
1702685864877219000,4.862218994140625,0.1297999918460846,0.04050000011920929,0.10989999771118164
1702685864937219000,4.922218994140625,-0.29580000042915344,0.10599999874830246,0.07559999823570251
1702685864997219000,4.982218994140625,-0.10749999433755875,-0.04079999774694443,-0.24799999594688416
1702685865057219000,5.042218994140625,0.01679999940097332,-0.07209999859333038,0.29420000314712524
1702685865117219000,5.102218994140625,-0.41200000047683716,0.05119999870657921,-0.13740000128746033
1702685865177219000,5.162218994140625,-0.030700000002980232,0.05419999733567238,0.07649999856948853
1702685865237219000,5.222218994140625,-0.7874999642372131,-0.1753000020980835,-0.20409999787807465
1702685865297219000,5.282218994140625,0.2150999903678894,-0.25949999690055847,0.10700000077486038
1702685865357219000,5.342218994140625,-0.44669997692108154,0.44119998812675476,-0.6985999941825867
1702685865417219000,5.402218994140625,-0.42669999599456787,0.06279999762773514,-0.7975999712944031
1702685865477219000,5.462218994140625,0.03749999776482582,0.16539999842643738,0.033799998462200165
1702685865537219000,5.522218994140625,0.33309999108314514,-0.17270000278949738,-0.33789998292922974
1702685865597219000,5.582218994140625,-0.3467999994754791,-0.24239999055862427,-0.6757000088691711
1702685865657219000,5.642218994140625,-0.11840000003576279,0.06289999932050705,0.08779999613761902
1702685865717219000,5.702218994140625,-0.35510000586509705,-0.1809999942779541,0.46230000257492065
1702685865777219000,5.762218994140625,0.39649999141693115,-0.131400004029274,0.661300003528595
1702685865837219000,5.822218994140625,0.13979999721050262,-0.041200000792741776,0.45260000228881836
1702685865897219000,5.882218994140625,0.031700000166893005,-0.2736999988555908,0.17819999158382416
1702685865957219000,5.942218994140625,0.12150000035762787,-0.13359999656677246,0.6953999996185303
1702685866017219000,6.002218994140625,0,-0.14350000023841858,0.2574999928474426
1702685866077219000,6.062218994140625,-0.0828000009059906,0.013199999928474426,0.6545999646186829
1702685866137219000,6.122218994140625,-0.36229997873306274,0.11779999732971191,0.5447999835014343
1702685866197219000,6.182218994140625,-0.4666000008583069,0.319599986076355,0.7465999722480774
1702685866257219000,6.242218994140625,-0.5029000043869019,0.21079999208450317,0.041600000113248825
1702685866317219000,6.302218994140625,-0.5787999629974365,-0.04699999839067459,-0.16189999878406525
1702685866377219000,6.362218994140625,-0.1331000030040741,0.03139999881386757,-0.11409999430179596
1702685866437219000,6.422218994140625,-0.43469998240470886,-0.22579999268054962,-0.30489999055862427
1702685866497219000,6.482218994140625,-0.6207999587059021,0.04749999940395355,-0.6168999671936035
1702685866557219000,6.542218994140625,-0.9625999927520752,0.738099992275238,-1.2513999938964844
1702685866617219000,6.602218994140625,-0.7462999820709229,0.38839998841285706,-1.1825000047683716
1702685866677219000,6.662218994140625,-0.23510000109672546,0.17979998886585236,-0.468999981880188
1702685866737219000,6.722218994140625,-0.6793999671936035,-0.11219999939203262,-0.0697999969124794
1702685866797219000,6.782218994140625,-0.07679999619722366,-0.21059998869895935,0.2687999904155731
1702685866857219000,6.842218994140625,0.09719999879598618,-0.13910000026226044,1.386699914932251
1702685866917219000,6.902218994140625,0.30059999227523804,-0.23359999060630798,0.733299970626831
1702685866977219000,6.962218994140625,-0.1964000016450882,-0.1030999943614006,0.5669999718666077
1702685867037219000,7.022218994140625,-0.032999999821186066,-0.11829999834299088,0.6825000047683716
1702685867097219000,7.082218994140625,0.4382999837398529,-0.12860000133514404,0.5701000094413757
1702685867157219000,7.142218994140625,-0.008499999530613422,0.01589999906718731,0.38109999895095825
1702685867217219000,7.202218994140625,-0.2638999819755554,-0.1889999955892563,-0.03219999745488167
1702685867277219000,7.262218994140625,-0.3243999779224396,0.20809999108314514,0.5620999932289124
1702685867337219000,7.322218994140625,-0.16949999332427979,0.3188000023365021,0.032499998807907104
1702685867397219000,7.382218994140625,-1.1589999198913574,-0.4989999830722809,-0.5356000065803528
1702685867457219000,7.442218994140625,1.379599928855896,0.5127999782562256,0.7608000040054321
1702685867517219000,7.502218994140625,-0.9957999587059021,-0.2214999943971634,-1.1085000038146973
1702685867577219000,7.562218994140625,-0.4309999942779541,-0.034699998795986176,-0.8655999898910522
1702685867637219000,7.622218994140625,-0.5090999603271484,0.2935999929904938,-0.3917999863624573
1702685867697219000,7.682218994140625,0.20829999446868896,-0.08500000089406967,-0.0414000004529953
1702685867757219000,7.742218994140625,0.07769999653100967,-0.15600000321865082,0.45979997515678406
1702685867817219000,7.802218994140625,-0.2369999885559082,-0.10639999806880951,0.09070000052452087
1702685867877219000,7.862218994140625,-0.16599999368190765,0.048899997025728226,0.30149999260902405
1702685867937219000,7.922218994140625,0.33139997720718384,-0.00009999999747378752,0.4675999879837036
1702685867997219000,7.982218994140625,-0.17159999907016754,-0.06689999997615814,-0.17099998891353607
1702685868057219000,8.042218994140624,-0.04690000042319298,-0.08069999516010284,0.10499999672174454
1702685868117219000,8.102218994140625,-0.1256999969482422,-0.05089999735355377,0.054099999368190765
1702685868177219000,8.162218994140625,0.06269999593496323,-0.004999999888241291,0.24279999732971191
1702685868237219000,8.222218994140626,-0.36980000138282776,-0.07750000059604645,0.08899999409914017
1702685868297219000,8.282218994140624,0.21229998767375946,0.06309999525547028,0.38519999384880066
1702685868357219000,8.342218994140625,-0.24079999327659607,0.1955999881029129,-0.05790000036358833
1702685868417219000,8.402218994140625,-0.10009999573230743,0.2554999887943268,-0.0011999999405816197
1702685868477219000,8.462218994140626,-0.05269999802112579,0.06610000133514404,0.0794999971985817
1702685868537219000,8.522218994140625,-0.2102999985218048,0.056299999356269836,0.11109999567270279
1702685868597219000,8.582218994140625,-0.18519999086856842,-0.10649999976158142,0.16269999742507935
1702685868657219000,8.642218994140626,-0.2760999798774719,-0.14329999685287476,0.05939999967813492
1702685868717219000,8.702218994140624,-0.21079999208450317,-0.08540000021457672,0.14010000228881836
1702685868777219000,8.762218994140625,-0.3782999813556671,-0.0066999997943639755,-0.15629999339580536
1702685868837219000,8.822218994140625,-0.3163999915122986,0.06459999829530716,-0.10909999907016754
1702685868897219000,8.882218994140626,-0.12449999898672104,0.08370000123977661,-0.04999999701976776
1702685868957219000,8.942218994140624,0.11089999973773956,0.04910000041127205,0.12809999287128448
1702685869017219000,9.002218994140625,-0.02199999988079071,-0.09699999541044235,-0.24449999630451202
1702685869077219000,9.062218994140625,-0.23359999060630798,-0.34450000524520874,-0.5376999974250793
1702685869137219000,9.122218994140624,0.18559999763965607,-0.1216999962925911,-0.181099995970726
1702685869197219000,9.182218994140625,0.1582999974489212,0.1574999988079071,0.4397999942302704
1702685869257219000,9.242218994140625,0.04089999943971634,0.05079999938607216,0.41589999198913574
1702685869317219000,9.302218994140626,-0.2638999819755554,-0.027799999341368675,0.3610999882221222
1702685869377219000,9.362218994140624,-0.2930999994277954,-0.09959999471902847,0.2531000077724457
1702685869437219000,9.422218994140625,-0.20340000092983246,-0.1428999900817871,0.2587999999523163
1702685869497219000,9.482218994140625,-0.11749999970197678,-0.09679999947547913,0.12370000034570694
1702685869557219000,9.542218994140624,-0.11089999973773956,0.03579999879002571,-0.14989998936653137
1702685869617219000,9.602218994140625,0.031599998474121094,0.15889999270439148,-0.1014999970793724
1702685869677219000,9.662218994140625,-0.9195999503135681,-0.2321999967098236,-0.007899999618530273
1702685869737219000,9.722218994140626,0.42649999260902405,0.2272999882698059,0.08460000157356262
