time,seconds_elapsed,z,y,x
1705060351195432700,0.0574326171875,0.21359999477863312,-0.030899999663233757,-0.262800008058548
1705060351255432700,0.1174326171875,0.05920000001788139,-0.1062999963760376,-0.18299999833106995
1705060351315432700,0.1774326171875,0.0908999964594841,-0.20149999856948853,-0.11400000005960464
1705060351375432700,0.2374326171875,0.048499997705221176,-0.13759998977184296,-0.1656000018119812
1705060351435432700,0.2974326171875,0.003999999724328518,0.030399998649954796,-0.2345999926328659
1705060351495432700,0.3574326171875,0.12299999594688416,-0.20999999344348907,-0.11409999430179596
1705060351555432700,0.4174326171875,-0.004799999762326479,-0.23019999265670776,-0.00699999975040555
1705060351615432700,0.4774326171875,-0.14459998905658722,0.07180000096559525,-0.3434000015258789
1705060351675432700,0.5374326171875,-0.4244000017642975,0.11509999632835388,-0.3730999827384949
1705060351735432700,0.5974326171875,1.3320000171661377,0.08649999648332596,0.21649999916553497
1705060351795432700,0.6574326171875,1.226699948310852,-0.715399980545044,0.6319999694824219
1705060351855432700,0.7174326171875,1.205199956893921,-0.6022999882698059,0.04959999769926071
1705060351915432700,0.7774326171875,0.0771000012755394,-0.9990999698638916,0.179299995303154
1705060351975432700,0.8374326171875,-1.1129000186920166,0.7542999982833862,-1.2648999691009521
1705060352035432700,0.8974326171875,-1.1121000051498413,0.7497000098228455,-1.4858999252319336
1705060352095432700,0.9574326171875,-0.3549000024795532,-0.12309999763965607,-0.7310999631881714
1705060352155432700,1.0174326171875,1.0637999773025513,-0.32189998030662537,0.16349999606609344
1705060352215432700,1.0774326171875,-0.20549999177455902,-1.0806000232696533,1.0959999561309814
1705060352275432700,1.1374326171875,-0.26479998230934143,0.27300000190734863,-0.41920000314712524
1705060352335432700,1.1974326171875,-0.41449999809265137,0.28859999775886536,-0.09139999747276306
1705060352395432700,1.2574326171875,-0.3798999786376953,0.7742999792098999,-2.7318999767303467
1705060352455432700,1.3174326171875,-0.986299991607666,-0.23849999904632568,-1.243399977684021
1705060352515432700,1.3774326171875,0.8313999772071838,-0.4372999966144562,-0.32249999046325684
1705060352575432700,1.4374326171875,2.3431999683380127,0.3637999892234802,1.0716999769210815
1705060352635432700,1.4974326171875,3.2463998794555664,1.9814999103546143,0.6996999979019165
1705060352695432700,1.5574326171875,2.038599967956543,2.950700044631958,1.6520999670028687
1705060352755432700,1.6174326171875,1.4132999181747437,1.392799973487854,1.3554999828338623
1705060352815432700,1.6774326171875,0.42170000076293945,0.7626000046730042,1.2145999670028687
1705060352875432700,1.7374326171875,0.42329999804496765,0.16979999840259552,-1.1420999765396118
1705060352935432700,1.7974326171875,0.13930000364780426,0.03579999879002571,0.4934999942779541
1705060352995432700,1.8574326171875,0.4275999963283539,-2.341599941253662,-1.3817999362945557
1705060353055432700,1.9174326171875,-0.3114999830722809,-2.8618998527526855,-0.7651000022888184
1705060353115432700,1.9774326171875,1.3518999814987183,-2.009000062942505,-2.9890999794006348
1705060353175432700,2.0374326171875,-0.11189999431371689,-1.0680999755859375,-1.5060999393463135
1705060353235432700,2.0974326171875,-0.444599986076355,-0.9294999837875366,-0.6093999743461609
1705060353295432700,2.1574326171875,-0.8751999735832214,-1.351099967956543,-2.0144999027252197
1705060353355432700,2.2174326171875,-1.8975999355316162,-1.747999906539917,-1.2699999809265137
1705060353415432700,2.2774326171875,-0.889799952507019,-3.316699981689453,-1.317099928855896
1705060353475432700,2.3374326171875,0.09279999881982803,-2.09309983253479,-0.4161999821662903
1705060353535432700,2.3974326171875,-0.21400000154972076,-0.9210999608039856,-0.535099983215332
1705060353595432700,2.4574326171875,0.6866999864578247,-0.5900999903678894,-0.5009999871253967
1705060353655432700,2.5174326171875,0.7040999531745911,-0.9057999849319458,-0.4754999876022339
1705060353715432700,2.5774326171875,1.9924999475479126,-0.031099999323487282,0.8450999855995178
1705060353775432700,2.6374326171875,0.8714999556541443,0.6931999921798706,0.7450000047683716
1705060353835432700,2.6974326171875,0.5587999820709229,-0.016699999570846558,0.11209999769926071
1705060353895432700,2.7574326171875,-0.15639999508857727,0.7594000101089478,-0.5626999735832214
1705060353955432700,2.8174326171875,-0.3114999830722809,-0.5509999990463257,0.48639997839927673
1705060354015432700,2.8774326171875,-0.42499998211860657,0.7530999779701233,-0.048899997025728226
1705060354075432700,2.9374326171875,-0.4926999807357788,0.003499999875202775,-0.5058000087738037
1705060354135432700,2.9974326171875,-0.35429999232292175,-0.45889997482299805,-0.7198999524116516
1705060354195432700,3.0574326171875,0.243599995970726,0.024000000208616257,-0.3068999946117401
1705060354255434200,3.117434326171875,-1.2346999645233154,-0.7763999700546265,-0.6086999773979187
1705060354315432700,3.1774326171875,-0.5663999915122986,-1.3701000213623047,-0.15029999613761902
1705060354375432700,3.2374326171875,-0.25929999351501465,-1.171299934387207,0.29440000653266907
1705060354435432700,3.2974326171875,-0.9416999816894531,-0.3173999786376953,0.0925000011920929
1705060354495432700,3.3574326171875,0.27649998664855957,-0.47269999980926514,-0.6821999549865723
1705060354555432700,3.4174326171875,0.12159999459981918,0.39640000462532043,-0.6669999957084656
1705060354615432700,3.4774326171875,0.5473999977111816,0.8405999541282654,-0.06300000101327896
1705060354675432700,3.5374326171875,0.7411999702453613,0.08410000056028366,0.08219999819993973
1705060354735432700,3.5974326171875,0.7698000073432922,0.06159999966621399,0.6358000040054321
1705060354795432700,3.6574326171875,0.7990999817848206,0.6025999784469604,0.7149999737739563
1705060354855432700,3.7174326171875,0.6620999574661255,0.7432999610900879,0.39259999990463257
1705060354915432700,3.7774326171875,1.367900013923645,0.29889997839927673,1.3774999380111694
1705060354975432700,3.8374326171875,2.7293999195098877,0.271699994802475,2.092099905014038
1705060355035432700,3.8974326171875,2.170799970626831,0.24459999799728394,1.0953999757766724
1705060355095432700,3.9574326171875,0.8474999666213989,-0.44739997386932373,1.24399995803833
1705060355155432700,4.0174326171875,0.9865999817848206,1.8356999158859253,0.03370000049471855
1705060355215432700,4.0774326171875,0.13379999995231628,1.330399990081787,0.4697999954223633
1705060355275432700,4.1374326171875,0.06279999762773514,0.5582000017166138,0.0037999998312443495
1705060355335432700,4.1974326171875,-0.4702000021934509,-0.3626999855041504,-0.01719999872148037
1705060355395432700,4.2574326171875,-0.36890000104904175,-0.1289999932050705,0.19059999287128448
1705060355455432700,4.3174326171875,-0.4553000032901764,-0.21979999542236328,-0.767300009727478
1705060355515432700,4.3774326171875,-0.7766000032424927,-0.42739999294281006,-0.27410000562667847
1705060355575432700,4.4374326171875,-0.7493000030517578,-0.7085999846458435,-0.5616999864578247
1705060355635432700,4.4974326171875,-0.23629999160766602,-1.517199993133545,-0.4495999813079834
1705060355695432700,4.5574326171875,-0.7041999697685242,-0.5882999897003174,-0.43039998412132263
1705060355755432700,4.6174326171875,-0.2150999903678894,-0.28999999165534973,-0.5769999623298645
1705060355815432700,4.6774326171875,0.09869999438524246,-0.299699991941452,0.24459999799728394
1705060355875432700,4.7374326171875,-0.4300999939441681,-0.4770999848842621,0.5101999640464783
1705060355935432700,4.7974326171875,0.11800000071525574,-1.1096999645233154,-0.19089999794960022
1705060355995432700,4.8574326171875,-0.5048999786376953,-0.9750999808311462,-0.31450000405311584
1705060356055432700,4.9174326171875,-0.27730000019073486,-0.444599986076355,0.2954999804496765
1705060356115432700,4.9774326171875,0.2368999868631363,-1.0652999877929688,-0.29600000381469727
1705060356175432700,5.0374326171875,-0.2782999873161316,-0.05009999871253967,-0.35040000081062317
1705060356235432700,5.0974326171875,-0.1127999946475029,0.12860000133514404,0.05900000035762787
1705060356295432700,5.1574326171875,-0.38769999146461487,-0.7350999712944031,-0.7838999629020691
1705060356355432700,5.2174326171875,-0.3955000042915344,-0.0284000001847744,-0.8718000054359436
1705060356415432700,5.2774326171875,-0.9340999722480774,-0.4799000024795532,-1.1154999732971191
1705060356475432700,5.3374326171875,0.2727999985218048,-0.5196999907493591,0.015199999324977398
1705060356535432700,5.3974326171875,0.6862999796867371,-1.6519999504089355,0.02630000002682209
1705060356595432700,5.4574326171875,0.729200005531311,-0.3920999765396118,1.1125999689102173
1705060356655432700,5.5174326171875,0.29159998893737793,-0.7066999673843384,0.7662000060081482
1705060356715432700,5.5774326171875,0.540399968624115,0.4989999830722809,-0.5443999767303467
1705060356775432700,5.6374326171875,1.4067999124526978,1.8726999759674072,0.14720000326633453
1705060356835432700,5.6974326171875,0.8136000037193298,2.1313998699188232,0.4811999797821045
1705060356895432700,5.7574326171875,1.2659000158309937,1.5999000072479248,2.373199939727783
1705060356955432700,5.8174326171875,-0.3904999792575836,-0.8423999547958374,1.9113999605178833
1705060357015432700,5.8774326171875,-2.289099931716919,-1.4098999500274658,-3.38349986076355
1705060357075432700,5.9374326171875,-1.616499900817871,-2.8947999477386475,-3.5755999088287354
1705060357135432700,5.9974326171875,-0.3206000030040741,-2.8550000190734863,-0.6680999994277954
1705060357195432700,6.0574326171875,2.4250998497009277,-0.07930000126361847,0.024799998849630356
1705060357255432700,6.1174326171875,4.835599899291992,3.4502999782562256,2.7990000247955322
1705060357315432700,6.1774326171875,3.3285999298095703,4.121699810028076,7.258299827575684
1705060357375432700,6.2374326171875,2.2581000328063965,2.121500015258789,3.685999870300293
1705060357435432700,6.2974326171875,0.9818999767303467,-1.5069999694824219,-2.359499931335449
1705060357495432700,6.3574326171875,-2.559999942779541,-2.049099922180176,-9.495200157165527
1705060357555432700,6.4174326171875,1.1129000186920166,1.9164999723434448,-2.243799924850464
1705060357615432700,6.4774326171875,-0.11369999498128891,0.09030000120401382,-0.32429999113082886
1705060357675432700,6.5374326171875,-0.5615999698638916,-1.261299967765808,0.9975000023841858
1705060357735432700,6.5974326171875,-0.2061999887228012,-1.1550999879837036,1.125100016593933
1705060357795432700,6.6574326171875,-0.2232999950647354,-0.661899983882904,-0.21939998865127563
1705060357855432700,6.7174326171875,-0.7944999933242798,-1.1115999221801758,-0.218299999833107
1705060357915432700,6.7774326171875,0.03529999777674675,-0.366599977016449,-0.07149999588727951
1705060357975432700,6.8374326171875,0.09789999574422836,0.9318999648094177,-0.4819999933242798
1705060358035432700,6.8974326171875,0.17379999160766602,0.011299999430775642,0.7055999636650085
1705060358095432700,6.9574326171875,0.713699996471405,-2.2791998386383057,0.53329998254776
1705060358155432700,7.0174326171875,0.5552999973297119,-0.767799973487854,0.31769999861717224
1705060358215432700,7.0774326171875,0.2912999987602234,-0.14319999516010284,-0.9390999674797058
1705060358275432700,7.1374326171875,0.6049999594688416,-0.07539999485015869,-0.7164999842643738
1705060358335432700,7.1974326171875,0.3783999979496002,0.8708999752998352,0.048899997025728226
1705060358395432700,7.2574326171875,-0.04479999840259552,-0.4968999922275543,-0.31529998779296875
1705060358455432700,7.3174326171875,-0.8983999490737915,-0.9156999588012695,0.045499999076128006
1705060358515432700,7.3774326171875,0.262800008058548,0.39079999923706055,-0.2061000019311905
1705060358575432700,7.4374326171875,0.14800000190734863,0.13210000097751617,-0.2709999978542328
1705060358635432700,7.4974326171875,-0.3579999804496765,-1.1375999450683594,0.37610000371932983
1705060358695432700,7.5574326171875,-0.4514999985694885,0.62909996509552,-0.26649999618530273
1705060358755432700,7.6174326171875,0.4156999886035919,1.232699990272522,0.019500000402331352
1705060358815432700,7.6774326171875,-0.5971999764442444,0.6740999817848206,0.8855999708175659
1705060358875432700,7.7374326171875,0.01899999938905239,2.035799980163574,1.0370999574661255
1705060358935432700,7.7974326171875,1.8547999858856201,0.40860000252723694,1.12909996509552
1705060358995432700,7.8574326171875,1.6629999876022339,-2.4779000282287598,1.8174999952316284
1705060359055432700,7.9174326171875,-4.338099956512451,1.4326000213623047,-4.566499710083008
1705060359115432700,7.9774326171875,-1.4967999458312988,-0.2915000021457672,-0.18769998848438263
1705060359175432700,8.0374326171875,-0.335999995470047,1.5157999992370605,1.1690000295639038
1705060359235432700,8.0974326171875,0.382099986076355,1.3806999921798706,-1.3428000211715698
1705060359295432700,8.1574326171875,1.0055999755859375,0.2345999926328659,-2.9921000003814697
1705060359355432700,8.2174326171875,-0.18930000066757202,-1.7186999320983887,-0.33809998631477356
1705060359415432700,8.2774326171875,-1.5641999244689941,-1.958799958229065,1.3258999586105347
1705060359475432700,8.3374326171875,-0.6116999983787537,-5.149399757385254,2.5185999870300293
1705060359535432700,8.3974326171875,-0.7806999683380127,-3.271199941635132,2.3092000484466553
1705060359595432700,8.4574326171875,2.0897998809814453,4.309499740600586,-0.8592000007629395
1705060359655432700,8.5174326171875,1.8920999765396118,2.6333999633789062,-1.305899977684021
1705060359715432700,8.5774326171875,1.4514999389648438,2.428299903869629,-0.8978999853134155
1705060359775432700,8.6374326171875,-0.3125,-0.7182999849319458,1.4352999925613403
1705060359835432700,8.6974326171875,1.3299999237060547,0.4673999845981598,1.7186999320983887
1705060359895432700,8.7574326171875,-3.13349986076355,-1.1713999509811401,3.9931998252868652
1705060359955432700,8.8174326171875,-0.28329998254776,-0.6035000085830688,1.732100009918213
1705060360015432700,8.8774326171875,-1.3844000101089478,-2.2555999755859375,4.1315999031066895
1705060360075432700,8.9374326171875,-1.7310999631881714,0.05179999768733978,-5.359499931335449
1705060360135432700,8.9974326171875,-2.309000015258789,0.011699999682605267,-3.2909998893737793
1705060360195432700,9.0574326171875,0.1386999934911728,-2.123999834060669,3.1531999111175537
1705060360255432700,9.1174326171875,-0.4772999882698059,1.605299949645996,-0.17970000207424164
1705060360315432700,9.1774326171875,2.8541998863220215,0.2622999846935272,-1.6662999391555786
1705060360375432700,9.2374326171875,-1.6523000001907349,0.5480999946594238,0.40709999203681946
1705060360435432700,9.2974326171875,-0.1768999993801117,0.9165999889373779,0.7736999988555908
1705060360495432700,9.3574326171875,0.31039997935295105,0.6026999950408936,-0.7488999962806702
1705060360555432700,9.4174326171875,1.2963999509811401,2.200399875640869,-0.47200000286102295
1705060360615432700,9.4774326171875,-0.028299998492002487,-1.1294000148773193,0.10439999401569366
1705060360675432700,9.5374326171875,-1.6766999959945679,0.4219000041484833,-0.30709999799728394
1705060360735432700,9.5974326171875,1.25409996509552,-0.34939998388290405,-0.8458999991416931
1705060360795432700,9.6574326171875,1.2925000190734863,-1.0800999402999878,1.8133000135421753
1705060360855432700,9.7174326171875,-3.0780999660491943,-1.1401000022888184,-4.003699779510498
1705060360915432700,9.7774326171875,-2.301100015640259,-1.159999966621399,-1.4636999368667603
1705060360975432700,9.8374326171875,3.634500026702881,-2.4059998989105225,0.2705000042915344
1705060361035432700,9.8974326171875,-1.2426999807357788,-1.43559992313385,2.2042999267578125
1705060361095432700,9.9574326171875,2.2757999897003174,0.05719999969005585,-0.11639999598264694
1705060361155432700,10.0174326171875,-4.8850998878479,2.5017998218536377,-1.0074999332427979
1705060361215432700,10.0774326171875,2.2054998874664307,-1.7069000005722046,-0.11659999936819077
1705060361275432700,10.1374326171875,-0.12229999899864197,0.1314999908208847,-2.6885998249053955
1705060361335432700,10.1974326171875,-1.2519999742507935,1.0211999416351318,-0.052299998700618744
1705060361395432700,10.2574326171875,-1.9769999980926514,-0.8115999698638916,0.36890000104904175
1705060361455432700,10.3174326171875,1.1526999473571777,-0.2547999918460846,1.0857999324798584
1705060361515432700,10.3774326171875,0.486299991607666,1.8350999355316162,0.3236999809741974
1705060361575432700,10.4374326171875,-1.2037999629974365,0.3877999782562256,-0.36980000138282776
1705060361635432700,10.4974326171875,-0.9004999995231628,0.36409997940063477,2.4733998775482178
1705060361695432700,10.5574326171875,-1.646799921989441,0.6722999811172485,-0.10119999945163727
1705060361755432700,10.6174326171875,1.32069993019104,-1.3422999382019043,-0.14319999516010284
1705060361815432700,10.6774326171875,-0.2800000011920929,-1.0631999969482422,-0.3050999939441681
1705060361875432700,10.7374326171875,0.28700000047683716,-1.7893999814987183,1.1978999376296997
1705060361935432700,10.7974326171875,0.8779000043869019,-1.2216999530792236,2.168099880218506
1705060361995432700,10.8574326171875,2.031399965286255,1.5857999324798584,-0.48749998211860657
1705060362055432700,10.9174326171875,1.857800006866455,3.1888999938964844,-2.671099901199341
1705060362115432700,10.9774326171875,0.12109999358654022,0.5946999788284302,-1.7635999917984009
1705060362175432700,11.0374326171875,-0.125,-1.1596999168395996,1.4239000082015991
1705060362235432700,11.0974326171875,0.6169999837875366,-2.1559998989105225,1.1664999723434448
1705060362295432700,11.1574326171875,1.3084999322891235,-0.058399997651576996,-0.13300000131130219
1705060362355432700,11.2174326171875,0.31709998846054077,-1.6370999813079834,-0.34759998321533203
1705060362415432700,11.2774326171875,0.6592999696731567,0.5598999857902527,-0.6277999877929688
1705060362475432700,11.3374326171875,0.26350000500679016,-0.2667999863624573,0.5676000118255615
1705060362535432700,11.3974326171875,-0.06260000169277191,-0.2255999892950058,0.011599999852478504
1705060362595432700,11.4574326171875,0.9598000049591064,0.6424999833106995,-0.04099999740719795
1705060362655432700,11.5174326171875,-0.4172999858856201,1.1022000312805176,-1.861799955368042
1705060362715432700,11.5774326171875,-2.891899824142456,-1.4020999670028687,-2.3903000354766846
1705060362775432700,11.6374326171875,1.2006999254226685,-0.7859999537467957,-0.73089998960495
1705060362835432700,11.6974326171875,2.479099988937378,0.2586999833583832,-1.4164999723434448
1705060362895432700,11.7574326171875,3.824699878692627,-0.5153999924659729,5.036299705505371
1705060362955432700,11.8174326171875,3.1888999938964844,1.3464000225067139,0.7551999688148499
1705060363015432700,11.8774326171875,0.18519999086856842,-1.8355000019073486,0.5342999696731567
1705060363075432700,11.9374326171875,-1.4161999225616455,-0.357699990272522,-0.5254999995231628
1705060363135432700,11.9974326171875,0.14139999449253082,0.08299999684095383,-0.761199951171875
1705060363195432700,12.0574326171875,-0.8551999926567078,-0.4343999922275543,1.4622999429702759
1705060363255432700,12.1174326171875,0.42639997601509094,1.6389999389648438,-0.9684999585151672
1705060363315432700,12.1774326171875,0.8353999853134155,1.1556999683380127,0.06520000100135803
1705060363375432700,12.2374326171875,0.07090000063180923,-1.4500999450683594,-0.20469999313354492
1705060363435432700,12.2974326171875,0.7163000106811523,-0.6613999605178833,0.8851999640464783
1705060363495432700,12.3574326171875,1.354200005531311,-0.5795999765396118,1.0778999328613281
1705060363555432700,12.4174326171875,-0.14339999854564667,-0.004900000058114529,-1.0964000225067139
1705060363615432700,12.4774326171875,0.2418999969959259,0.42389997839927673,-1.202299952507019
1705060363675432700,12.5374326171875,-0.9107999801635742,-0.3139999806880951,-0.40950000286102295
1705060363735432700,12.5974326171875,-0.09730000048875809,-0.17999999225139618,-0.16339999437332153
1705060363795432700,12.6574326171875,0.7896999716758728,-0.02969999983906746,-0.6028000116348267
1705060363855432700,12.7174326171875,-0.3247999846935272,-0.5127999782562256,-0.005799999926239252
1705060363915432700,12.7774326171875,0.13859999179840088,-1.1783000230789185,0.43059998750686646
1705060363975432700,12.8374326171875,0.5415999889373779,-0.4919999837875366,0.07079999893903732
1705060364035432700,12.8974326171875,0.38839998841285706,0.5787000060081482,-0.3328999876976013
1705060364095432700,12.9574326171875,-0.2969000041484833,0.2465999871492386,-0.699400007724762
1705060364155432700,13.0174326171875,-0.3990999758243561,-0.5895000100135803,-0.07229999452829361
1705060364215432700,13.0774326171875,0.15029999613761902,0.004299999680370092,-0.6362999677658081
1705060364275432700,13.1374326171875,-3.5443999767303467,-4.923599720001221,-0.7486000061035156
1705060364335432700,13.1974326171875,-0.3464999794960022,-0.407399982213974,-4.21019983291626
1705060364395432700,13.2574326171875,1.434499979019165,4.02209997177124,1.6141999959945679
1705060364455432700,13.3174326171875,0.17109999060630798,1.7278000116348267,1.5888999700546265
1705060364515432700,13.3774326171875,-0.15699999034404755,-0.5952000021934509,0.43959999084472656
1705060364575432700,13.4374326171875,-0.4925999939441681,-1.5454999208450317,-0.8495000004768372
1705060364635432700,13.4974326171875,-0.2838999927043915,-2.3350000381469727,0.32510000467300415
1705060364695432700,13.5574326171875,-0.2529999911785126,-2.0262999534606934,0.120899997651577
1705060364755432700,13.6174326171875,0.9081999659538269,-0.2920999825000763,0.7378000020980835
1705060364815432700,13.6774326171875,-0.5133000016212463,-0.6431999802589417,-0.9745000004768372
1705060364875432700,13.7374326171875,-0.29679998755455017,-1.0494999885559082,0.22859999537467957
1705060364935432700,13.7974326171875,0.7360000014305115,-0.2717999815940857,-1.406599998474121
1705060364995432700,13.8574326171875,0.3310000002384186,-0.3418999910354614,-0.5005999803543091
1705060365055432700,13.9174326171875,0.49139997363090515,1.5246999263763428,-1.2250999212265015
1705060365115432700,13.9774326171875,0.9170999526977539,1.0670000314712524,-0.10520000010728836
1705060365175432700,14.0374326171875,0.6954999566078186,1.9470999240875244,-1.4962999820709229
1705060365235432700,14.0974326171875,-0.030700000002980232,0.10109999775886536,-1.2635999917984009
1705060365295432700,14.1574326171875,-0.7120999693870544,-2.765199899673462,0.5485999584197998
1705060365355432700,14.2174326171875,-0.4512999951839447,-3.920499801635742,0.38359999656677246
1705060365415432700,14.2774326171875,-0.6514999866485596,-4.285999774932861,0.2733999788761139
1705060365475432700,14.3374326171875,-0.526199996471405,-3.177999973297119,-0.17639999091625214
1705060365535432700,14.3974326171875,1.7936999797821045,-0.021299999207258224,-2.716099977493286
1705060365595432700,14.4574326171875,0.5503000020980835,-0.05900000035762787,-2.810699939727783
1705060365655432700,14.5174326171875,0.9878999590873718,3.0354998111724854,-0.8513999581336975
1705060365715432700,14.5774326171875,0.19370000064373016,4.025399684906006,-0.17629998922348022
1705060365775432700,14.6374326171875,1.3097000122070312,3.293599843978882,0.9226999878883362
1705060365835432700,14.6974326171875,1.0964000225067139,-0.7882999777793884,3.273900032043457
1705060365895432700,14.7574326171875,0.2613999843597412,-4.201099872589111,0.9837999939918518
1705060365955432700,14.8174326171875,0.5175999999046326,-5.246699810028076,2.357100009918213
1705060366015432700,14.8774326171875,2.1117000579833984,-0.7522000074386597,-0.16030000150203705
1705060366075432700,14.9374326171875,0.8991000056266785,3.13349986076355,-0.5697000026702881
1705060366135432700,14.9974326171875,0.2190999984741211,0.1388999968767166,-0.22049999237060547
1705060366195432700,15.0574326171875,0.3452000021934509,0.5335999727249146,0.398499995470047
1705060366255432700,15.1174326171875,-0.7058999538421631,2.707200050354004,0.2639999985694885
1705060366315432700,15.1774326171875,-2.0508999824523926,3.748199939727783,-1.942699909210205
1705060366375432700,15.2374326171875,1.347599983215332,-5.0329999923706055,-0.47849997878074646
1705060366435432700,15.2974326171875,2.193199872970581,-8.075900077819824,-0.26499998569488525
1705060366495432700,15.3574326171875,2.783799886703491,-4.776599884033203,-0.9562000036239624
1705060366555432700,15.4174326171875,2.878499984741211,1.0338000059127808,-1.809399962425232
1705060366615432700,15.4774326171875,-1.101599931716919,2.171799898147583,1.1399999856948853
1705060366675432700,15.5374326171875,-1.625499963760376,1.3632999658584595,5.451099872589111
1705060366735432700,15.5974326171875,1.6304999589920044,7.822299957275391,3.819199800491333
1705060366795432700,15.6574326171875,-0.8563999533653259,9.851799964904785,3.9026999473571777
1705060366855432700,15.7174326171875,-1.0773999691009521,7.757199764251709,3.1419999599456787
1705060366915432700,15.7774326171875,-1.0514999628067017,2.8215999603271484,3.7767999172210693
1705060366975432700,15.8374326171875,-0.45339998602867126,-0.5845000147819519,-1.591399908065796
1705060367035432700,15.8974326171875,0.13040000200271606,-1.7989000082015991,-6.332099914550781
1705060367095432700,15.9574326171875,-0.008700000122189522,2.7263998985290527,-6.642499923706055
1705060367155432700,16.0174326171875,-0.33159998059272766,3.6793999671936035,-5.7652997970581055
1705060367215432700,16.0774326171875,1.4334999322891235,0.021800000220537186,-7.618599891662598
1705060367275432700,16.1374326171875,0.6085000038146973,-0.8700000047683716,-4.125499725341797
1705060367335432700,16.1974326171875,-1.4608999490737915,3.955199956893921,-2.8691999912261963
1705060367395432700,16.2574326171875,-1.4610999822616577,1.3291000127792358,-3.0748000144958496
1705060367455432700,16.3174326171875,1.3651999235153198,1.1506999731063843,1.8848999738693237
1705060367515432700,16.3774326171875,2.4129998683929443,2.770699977874756,5.154299736022949
1705060367575432700,16.4374326171875,1.0067999362945557,4.521399974822998,5.958099842071533
1705060367635432700,16.4974326171875,0.5306000113487244,4.39300012588501,4.322999954223633
1705060367695432700,16.5574326171875,-0.7313999533653259,1.907099962234497,3.8678998947143555
1705060367755432700,16.6174326171875,0.16359999775886536,1.1555999517440796,1.3770999908447266
1705060367815432700,16.6774326171875,1.2115999460220337,3.1975998878479004,-0.012399999424815178
1705060367875432700,16.7374326171875,0.8309999704360962,3.3934998512268066,1.6899999380111694
1705060367935432700,16.7974326171875,0.05909999832510948,2.7574000358581543,3.7704999446868896
1705060367995432700,16.8574326171875,0.09849999845027924,0.1266999989748001,0.9566999673843384
1705060368055432700,16.9174326171875,0.9133999943733215,-0.8596000075340271,-2.684299945831299
1705060368115432700,16.9774326171875,2.4839999675750732,0.13840000331401825,-5.48769998550415
1705060368175432700,17.0374326171875,1.2619999647140503,3.812199831008911,-5.892999649047852
1705060368235432700,17.0974326171875,-0.43459999561309814,1.3669999837875366,-6.313299655914307
1705060368295432700,17.1574326171875,-0.46140000224113464,-1.9161999225616455,-3.8217999935150146
1705060368355432700,17.2174326171875,-0.4412999749183655,2.1031999588012695,-3.767399787902832
1705060368415432700,17.2774326171875,-2.4656999111175537,3.0652999877929688,-1.171299934387207
1705060368475432700,17.3374326171875,-1.4610999822616577,-0.6793000102043152,-0.8125
1705060368535432700,17.3974326171875,1.3524999618530273,-1.544600009918213,0.8104000091552734
1705060368595432700,17.4574326171875,1.4702999591827393,-1.3523999452590942,1.1862999200820923
1705060368655432700,17.5174326171875,0.203699991106987,1.9763000011444092,2.759199857711792
1705060368715432700,17.5774326171875,0.8761999607086182,5.0594000816345215,2.627699851989746
1705060368775432700,17.6374326171875,1.5679999589920044,2.075399875640869,3.482999801635742
1705060368835432700,17.6974326171875,4.077600002288818,3.2516000270843506,1.8650999069213867
1705060368895432700,17.7574326171875,3.6654999256134033,4.531499862670898,1.278999924659729
1705060368955432700,17.8174326171875,1.923699975013733,4.742300033569336,1.3128999471664429
1705060369015432700,17.8774326171875,-1.0241999626159668,2.4047999382019043,0.9009999632835388
1705060369075432700,17.9374326171875,-1.2251999378204346,1.3500999212265015,-2.561199903488159
1705060369135432700,17.9974326171875,-6.227399826049805,-2.6166000366210938,-6.584799766540527
1705060369195432700,18.0574326171875,-2.437700033187866,-6.50469970703125,-8.37339973449707
1705060369255432700,18.1174326171875,1.5296999216079712,-5.178800106048584,-6.189499855041504
1705060369315432700,18.1774326171875,1.7631999254226685,2.7592999935150146,-4.172699928283691
1705060369375432700,18.2374326171875,-4.673399925231934,11.014199256896973,0.6836000084877014
1705060369435432700,18.2974326171875,-0.9997999668121338,7.690799713134766,5.821699619293213
1705060369495432700,18.3574326171875,4.0630998611450195,-0.16679999232292175,5.770299911499023
1705060369555432700,18.4174326171875,1.1704000234603882,2.551300048828125,4.268599987030029
1705060369615434200,18.477434326171874,-2.3710999488830566,0.17270000278949738,6.6417999267578125
1705060369675432700,18.5374326171875,-0.8920999765396118,-2.5085999965667725,7.8225998878479
1705060369735432700,18.5974326171875,2.2187998294830322,-0.21059998869895935,6.23390007019043
1705060369795432700,18.6574326171875,1.5976999998092651,2.8152999877929688,1.3228999376296997
1705060369855432700,18.7174326171875,1.6675999164581299,5.372200012207031,-0.5546000003814697
1705060369915432700,18.7774326171875,1.5638999938964844,7.650199890136719,-0.0568000003695488
1705060369975432700,18.8374326171875,2.98580002784729,1.2627999782562256,-11.086400032043457
1705060370035432700,18.8974326171875,0.5896999835968018,0.8905999660491943,-8.583000183105469
1705060370095432700,18.9574326171875,-0.0037999998312443495,1.463499903678894,-5.904599666595459
1705060370155432700,19.0174326171875,-1.3252999782562256,1.1798999309539795,-2.93999981880188
1705060370215432700,19.0774326171875,-0.7639999985694885,-0.9438999891281128,-0.003599999938160181
1705060370275432700,19.1374326171875,0.07009999454021454,-0.8283999562263489,-0.04839999973773956
1705060370335432700,19.1974326171875,0.6353999972343445,3.352599859237671,1.5694999694824219
1705060370395432700,19.2574326171875,0.44669997692108154,4.350800037384033,4.646100044250488
1705060370455432700,19.3174326171875,1.305999994277954,3.0276999473571777,2.216099977493286
1705060370515432700,19.3774326171875,-0.717799961566925,1.1828999519348145,3.472399950027466
1705060370575432700,19.4374326171875,-0.2524999976158142,3.6303999423980713,4.240600109100342
1705060370635432700,19.4974326171875,0.8562999963760376,5.741499900817871,4.517099857330322
1705060370695432700,19.5574326171875,-1.0484999418258667,5.096299648284912,0.6087999939918518
1705060370755432700,19.6174326171875,-0.6736999750137329,2.232300043106079,0.9425999522209167
1705060370815432700,19.6774326171875,1.834299921989441,1.5692999362945557,0.8273999691009521
1705060370875432700,19.7374326171875,2.187999963760376,2.6933000087738037,-1.6984999179840088
1705060370935432700,19.7974326171875,4.773099899291992,0.4691999852657318,-6.1377997398376465
1705060370995432700,19.8574326171875,5.214600086212158,-1.2645000219345093,-8.558699607849121
1705060371055432700,19.9174326171875,2.626199960708618,2.66159987449646,-7.212699890136719
1705060371115432700,19.9774326171875,0.7272999882698059,3.1382999420166016,-4.640399932861328
1705060371175432700,20.0374326171875,0.4220999777317047,4.163300037384033,-4.111799716949463
1705060371235432700,20.0974326171875,1.0936999320983887,1.9303998947143555,-2.437999963760376
1705060371295432700,20.1574326171875,1.8600999116897583,1.3702999353408813,-0.3974999785423279
1705060371355432700,20.2174326171875,2.070499897003174,2.076200008392334,1.3494999408721924
1705060371415432700,20.2774326171875,3.248999834060669,3.0516998767852783,2.6236000061035156
1705060371475432700,20.3374326171875,4.192999839782715,3.28439998626709,4.273200035095215
1705060371535432700,20.3974326171875,4.4481000900268555,4.858799934387207,3.7578999996185303
1705060371595432700,20.4574326171875,0.6388999819755554,3.107599973678589,5.88599967956543
1705060371655432700,20.5174326171875,-0.5929999947547913,3.486999988555908,5.19249963760376
1705060371715432700,20.5774326171875,0.29409998655319214,8.089599609375,2.728099822998047
1705060371775432700,20.6374326171875,-0.4497999846935272,5.755099773406982,3.5360000133514404
1705060371835432700,20.6974326171875,0.6959999799728394,0.23739999532699585,0.13339999318122864
1705060371895432700,20.7574326171875,1.3359999656677246,-2.541100025177002,-0.4350000023841858
1705060371955432700,20.8174326171875,0.9181999564170837,-2.398900032043457,-2.214200019836426
1705060372015432700,20.8774326171875,0.6096999645233154,1.6439999341964722,-4.636499881744385
1705060372075432700,20.9374326171875,1.427799940109253,1.736199975013733,-4.949699878692627
1705060372135432700,20.9974326171875,2.5070998668670654,0.31039997935295105,-6.429299831390381
1705060372195432700,21.0574326171875,2.295599937438965,2.4876999855041504,-7.041199684143066
1705060372255432700,21.1174326171875,1.1835999488830566,4.276899814605713,-4.041800022125244
1705060372315432700,21.1774326171875,0.6252999901771545,3.9336998462677,-2.9598000049591064
1705060372375432700,21.2374326171875,1.1991000175476074,1.986799955368042,-1.8228999376296997
1705060372435432700,21.2974326171875,1.8987998962402344,-1.1043000221252441,0.5704999566078186
1705060372495432700,21.3574326171875,3.6531999111175537,-0.5270999670028687,1.7352999448776245
1705060372555432700,21.4174326171875,4.814799785614014,3.2853000164031982,0.7513999938964844
1705060372615432700,21.4774326171875,4.516299724578857,5.821199893951416,3.1880998611450195
1705060372675432700,21.5374326171875,2.9835000038146973,4.5528998374938965,5.895899772644043
1705060372735432700,21.5974326171875,0.2215999960899353,3.3855998516082764,6.668599605560303
1705060372795432700,21.6574326171875,-0.046699997037649155,4.383500099182129,4.241600036621094
1705060372855432700,21.7174326171875,-0.7027999758720398,7.917699813842773,2.1397998332977295
1705060372915432700,21.7774326171875,0.25759997963905334,2.300299882888794,2.575000047683716
1705060372975432700,21.8374326171875,1.7654999494552612,-1.386799931526184,-0.30300000309944153
1705060373035432700,21.8974326171875,2.164799928665161,-1.295799970626831,-2.3006999492645264
1705060373095432700,21.9574326171875,2.206699848175049,0.9790999889373779,-3.8322999477386475
1705060373155432700,22.0174326171875,1.354099988937378,1.7894999980926514,-5.9704999923706055
1705060373215432700,22.0774326171875,0.7450000047683716,1.2766000032424927,-7.89579963684082
1705060373275432700,22.1374326171875,0.5727999806404114,1.559399962425232,-7.529099941253662
1705060373335432700,22.1974326171875,0.051500000059604645,2.015399932861328,-4.667200088500977
1705060373395432700,22.2574326171875,-1.7143999338150024,7.840099811553955,-1.774999976158142
1705060373455432700,22.3174326171875,-0.24899999797344208,4.923299789428711,2.033900022506714
1705060373515434200,22.377434326171876,0.8718999624252319,-3.352299928665161,0.3831000030040741
1705060373575432700,22.4374326171875,2.894399881362915,-3.767899990081787,1.8399999141693115
1705060373635432700,22.4974326171875,4.029799938201904,-0.2945999801158905,2.71560001373291
1705060373695432700,22.5574326171875,3.183499813079834,5.25499963760376,2.134199857711792
1705060373755432700,22.6174326171875,1.087499976158142,8.145299911499023,5.317299842834473
1705060373815432700,22.6774326171875,-0.5080000162124634,5.6691999435424805,8.394700050354004
1705060373875432700,22.7374326171875,0.6809999942779541,5.4965996742248535,6.204999923706055
1705060373935432700,22.7974326171875,0.5198000073432922,7.645899772644043,2.901599884033203
1705060373995503000,22.857503173828125,1.1554999351501465,2.2846999168395996,-0.5159000158309937
1705060374055432700,22.9174326171875,1.6277999877929688,-1.2750999927520752,-0.8188999891281128
1705060374115432700,22.9774326171875,1.1496000289916992,-0.7347999811172485,-2.649099826812744
1705060374175432700,23.0374326171875,-0.19539999961853027,2.021199941635132,-5.695899963378906
1705060374235432700,23.0974326171875,-1.8568999767303467,0.8222999572753906,-8.672800064086914
1705060374295437300,23.157437255859374,-3.0284998416900635,0.3337000012397766,-8.915999412536621
1705060374355432700,23.2174326171875,-1.3743000030517578,1.2178000211715698,-9.054999351501465
1705060374415432700,23.2774326171875,-0.3999999761581421,2.9686999320983887,-5.634900093078613
1705060374475432700,23.3374326171875,-0.38609999418258667,8.724299430847168,-4.619100093841553
1705060374535432700,23.3974326171875,1.2568999528884888,5.738100051879883,-1.716399908065796
1705060374595432700,23.4574326171875,3.7109999656677246,2.920300006866455,2.81469988822937
1705060374655432700,23.5174326171875,4.315400123596191,3.426499843597412,5.122699737548828
1705060374715432700,23.5774326171875,4.319900035858154,5.1875996589660645,4.77869987487793
1705060374775432700,23.6374326171875,3.3332998752593994,4.676700115203857,4.810299873352051
1705060374835432700,23.6974326171875,-0.8093000054359436,1.0756999254226685,7.699899673461914
1705060374895432700,23.7574326171875,-0.5406999588012695,7.314199924468994,6.609499931335449
1705060374955432700,23.8174326171875,2.3977999687194824,9.300999641418457,2.233299970626831
1705060375015432700,23.8774326171875,2.6282999515533447,7.07480001449585,2.3025999069213867
1705060375075432700,23.9374326171875,1.2496999502182007,2.2337000370025635,-1.3777999877929688
1705060375135432700,23.9974326171875,0.405599981546402,0.6678000092506409,-1.7813999652862549
1705060375195432700,24.0574326171875,3.985599994659424,3.7960000038146973,-1.2318999767303467
1705060375255432700,24.1174326171875,5.502099990844727,4.093800067901611,-4.827699661254883
1705060375315432700,24.1774326171875,4.19189977645874,2.129699945449829,-9.293099403381348
1705060375375432700,24.2374326171875,2.268399953842163,-0.0502999983727932,-10.884699821472168
1705060375435432700,24.2974326171875,2.5321998596191406,1.1130999326705933,-7.323999881744385
1705060375495432700,24.3574326171875,0.944599986076355,5.368000030517578,-5.14169979095459
1705060375555432700,24.4174326171875,0.15399999916553497,7.748499870300293,-3.9736998081207275
1705060375615432700,24.4774326171875,0.34059998393058777,3.745699882507324,-0.8962999582290649
1705060375675432700,24.5374326171875,3.0530998706817627,2.4423999786376953,2.4477999210357666
1705060375735432700,24.5974326171875,4.015500068664551,4.204100131988525,2.6619999408721924
1705060375795432700,24.6574326171875,5.091599941253662,5.959399700164795,3.2365000247955322
1705060375855432700,24.7174326171875,4.042099952697754,4.881899833679199,6.4579997062683105
1705060375915432700,24.7774326171875,1.6568999290466309,2.6819000244140625,8.601099967956543
1705060375975432700,24.8374326171875,1.6582999229431152,6.051499843597412,5.680599689483643
1705060376035432700,24.8974326171875,0.06129999831318855,11.272699356079102,1.8664000034332275
1705060376095432700,24.9574326171875,-0.4952999949455261,4.705999851226807,1.331399917602539
1705060376155432700,25.0174326171875,-0.3580999970436096,-0.9830999970436096,0.5216999650001526
1705060376215432700,25.0774326171875,2.6476998329162598,-1.0536999702453613,-0.13369999825954437
1705060376275432700,25.1374326171875,1.2459999322891235,5.312399864196777,-4.484399795532227
1705060376335432700,25.1974326171875,0.9856999516487122,2.415299892425537,-6.803099632263184
1705060376395432700,25.2574326171875,3.786799907684326,0.5823000073432922,-7.8603997230529785
1705060376455432700,25.3174326171875,2.4498000144958496,3.0961999893188477,-8.977999687194824
1705060376515432700,25.3774326171875,1.2101999521255493,2.472899913787842,-6.007699966430664
1705060376575432700,25.4374326171875,-0.35439997911453247,5.043699741363525,-2.6404998302459717
1705060376635432700,25.4974326171875,0.9109999537467957,2.2158000469207764,-0.25270000100135803
1705060376695432700,25.5574326171875,1.1674000024795532,-0.37849998474121094,-0.670199990272522
1705060376755432700,25.6174326171875,1.9316999912261963,-1.3500999212265015,2.4029998779296875
1705060376815432700,25.6774326171875,3.881699800491333,-0.4399999976158142,3.1995999813079834
1705060376875432700,25.7374326171875,4.263499736785889,3.723299980163574,1.2173999547958374
1705060376935432700,25.7974326171875,1.5032999515533447,5.378999710083008,4.678699970245361
1705060376995432700,25.8574326171875,0.2061000019311905,6.063799858093262,6.388199806213379
1705060377055432700,25.9174326171875,0.2296999990940094,5.778899669647217,4.977200031280518
1705060377115432700,25.9774326171875,1.0347999334335327,6.86299991607666,0.8527999520301819
1705060377175432700,26.0374326171875,-0.5241000056266785,0.4876999855041504,0.2760999798774719
1705060377235432700,26.0974326171875,2.2286999225616455,-3.1891000270843506,-0.015599999576807022
1705060377295432700,26.1574326171875,3.09879994392395,-2.296799898147583,-1.6969000101089478
1705060377355432700,26.2174326171875,2.0607998371124268,1.3514999151229858,-3.3869998455047607
1705060377415432700,26.2774326171875,1.1412999629974365,3.365499973297119,-4.85099983215332
1705060377475432700,26.3374326171875,1.7747999429702759,1.048699975013733,-6.949899673461914
1705060377535432700,26.3974326171875,0.7635999917984009,0.663100004196167,-6.966899871826172
1705060377595432700,26.4574326171875,-0.16110000014305115,5.880899906158447,-3.312199831008911
1705060377655432700,26.5174326171875,0.12629999220371246,3.361299991607666,-2.6995999813079834
1705060377715432700,26.5774326171875,0.5205999612808228,-0.840499997138977,-0.3473999798297882
1705060377775432700,26.6374326171875,1.5505999326705933,-2.3810999393463135,1.7476999759674072
1705060377835432700,26.6974326171875,3.146699905395508,-0.8762999773025513,2.208699941635132
1705060377895432700,26.7574326171875,4.210899829864502,2.8801000118255615,0.48959997296333313
1705060377955432700,26.8174326171875,4.416500091552734,7.054999828338623,1.1302999258041382
1705060378015432700,26.8774326171875,0.7806999683380127,4.472599983215332,7.5329999923706055
1705060378075432700,26.9374326171875,1.042099952697754,3.2284998893737793,5.588799953460693
1705060378135432700,26.9974326171875,1.1639000177383423,6.06719970703125,3.600399971008301
1705060378195432700,27.0574326171875,-0.6843999624252319,3.0204999446868896,2.475800037384033
1705060378255432700,27.1174326171875,-1.365399956703186,-1.3521000146865845,1.2742999792099
1705060378315432700,27.1774326171875,3.5038998126983643,-2.48009991645813,1.743899941444397
1705060378375432700,27.2374326171875,2.3646998405456543,-0.00839999970048666,-3.0869998931884766
1705060378435432700,27.2974326171875,1.2714999914169312,1.5463999509811401,-4.267499923706055
1705060378495432700,27.3574326171875,1.7050999402999878,1.7762999534606934,-5.239500045776367
1705060378555432700,27.4174326171875,2.07069993019104,0.322299987077713,-7.3441996574401855
1705060378615432700,27.4774326171875,1.7157999277114868,2.1476998329162598,-6.892699718475342
1705060378675432700,27.5374326171875,0.22519999742507935,5.703199863433838,-4.121500015258789
1705060378735432700,27.5974326171875,0.6189000010490417,2.8571999073028564,-2.6501998901367188
1705060378795432700,27.6574326171875,-0.11129999905824661,-0.20409999787807465,3.5364999771118164
1705060378855432700,27.7174326171875,1.1848000288009644,-0.8794999718666077,0.15719999372959137
1705060378915432700,27.7774326171875,3.4526000022888184,1.1584999561309814,2.4445998668670654
1705060378975432700,27.8374326171875,3.630499839782715,4.496999740600586,1.7847999334335327
1705060379035432700,27.8974326171875,1.6911998987197876,6.939399719238281,5.437399864196777
1705060379095432700,27.9574326171875,0.07689999788999557,6.935499668121338,9.027999877929688
1705060379155432700,28.0174326171875,1.6141999959945679,4.626199722290039,2.1422998905181885
1705060379215432700,28.0774326171875,-0.8036999702453613,4.639100074768066,1.744399905204773
1705060379275432700,28.1374326171875,0.035599999129772186,-0.4161999821662903,1.421199917793274
1705060379335432700,28.1974326171875,1.6613999605178833,-1.8812999725341797,1.3240000009536743
1705060379395432700,28.2574326171875,2.4714999198913574,2.058500051498413,-1.3466999530792236
1705060379455432700,28.3174326171875,2.243299961090088,2.670300006866455,-3.5085999965667725
1705060379515432700,28.3774326171875,3.0110998153686523,1.2882000207901,-7.536799907684326
1705060379575432700,28.4374326171875,1.0382000207901,0.7084999680519104,-8.094200134277344
1705060379635432700,28.4974326171875,1.2747999429702759,0.47749999165534973,-7.920300006866455
1705060379695432700,28.5574326171875,1.2453999519348145,5.069999694824219,-5.184499740600586
1705060379755432700,28.6174326171875,0.41009998321533203,7.477999687194824,-3.953199863433838
1705060379815432700,28.6774326171875,0.2500999867916107,2.943199872970581,0.876800000667572
1705060379875432700,28.7374326171875,1.4473999738693237,0.29159998893737793,3.385200023651123
1705060379935432700,28.7974326171875,3.0551998615264893,1.2444000244140625,3.4804999828338623
1705060379995432700,28.8574326171875,4.7683000564575195,3.6938998699188232,2.670300006866455
1705060380055432700,28.9174326171875,4.439499855041504,4.820699691772461,4.0279998779296875
1705060380115432700,28.9774326171875,0.7387999892234802,2.859499931335449,5.371500015258789
1705060380175432700,29.0374326171875,-1.1126999855041504,5.427099704742432,5.014800071716309
1705060380235432700,29.0974326171875,0.6554999947547913,7.997699737548828,2.365499973297119
1705060380295432700,29.1574326171875,0.6891999840736389,5.1992998123168945,3.126699924468994
1705060380355432700,29.2174326171875,0.031700000166893005,-0.31630000472068787,0.6814000010490417
1705060380415432700,29.2774326171875,2.0184998512268066,-2.490000009536743,0.028599999845027924
1705060380475432700,29.3374326171875,1.191100001335144,1.9498999118804932,-3.491799831390381
1705060380535432700,29.3974326171875,1.2482999563217163,4.649899959564209,-2.9517998695373535
1705060380595432700,29.4574326171875,3.705699920654297,1.4002000093460083,-5.789499759674072
1705060380655432700,29.5174326171875,4.43589973449707,0.8750999569892883,-10.448800086975098
1705060380715432700,29.5774326171875,3.077899932861328,5.073699951171875,-5.819299697875977
1705060380775432700,29.6374326171875,1.837499976158142,6.598700046539307,-5.037300109863281
1705060380835432700,29.6974326171875,0.9106999635696411,4.565700054168701,-1.1346999406814575
1705060380895432700,29.7574326171875,1.1618000268936157,1.6238999366760254,2.885200023651123
1705060380955432700,29.8174326171875,2.929299831390381,1.7340999841690063,3.1297998428344727
1705060381015432700,29.8774326171875,4.305999755859375,2.938999891281128,2.244999885559082
1705060381075432700,29.9374326171875,5.7581000328063965,4.252799987792969,3.1419999599456787
1705060381135432700,29.9974326171875,5.163000106811523,4.959499835968018,4.667900085449219
1705060381195432700,30.0574326171875,-0.1889999955892563,7.2739996910095215,7.380499839782715
1705060381255432700,30.1174326171875,0.9835999608039856,6.367199897766113,2.265399932861328
1705060381315432700,30.1774326171875,0.9452999830245972,6.533299922943115,-0.4602999985218048
1705060381375432700,30.2374326171875,0.6936999559402466,0.1931999921798706,1.3030999898910522
1705060381435432700,30.2974326171875,-4.557799816131592,0.8064999580383301,-2.6208999156951904
1705060381495432700,30.3574326171875,1.376599907875061,-0.5691999793052673,2.768399953842163
1705060381555432700,30.4174326171875,3.594299793243408,-0.901199996471405,-2.5769999027252197
1705060381615432700,30.4774326171875,2.325899839401245,6.473399639129639,-3.6213998794555664
1705060381675432700,30.5374326171875,2.8889999389648438,2.946499824523926,-3.693699836730957
1705060381735432700,30.5974326171875,5.155099868774414,-2.1970999240875244,-8.505499839782715
1705060381795432700,30.6574326171875,3.2414000034332275,5.377399921417236,-5.513799667358398
1705060381855432700,30.7174326171875,1.3949999809265137,5.375999927520752,-2.5083999633789062
1705060381915432700,30.7774326171875,0.421999990940094,0.20829999446868896,0.9585999846458435
1705060381975432700,30.8374326171875,1.056999921798706,-2.1529998779296875,-1.243299961090088
1705060382035432700,30.8974326171875,4.293299674987793,-2.1405999660491943,-3.9059998989105225
1705060382095432700,30.9574326171875,4.294399738311768,6.433499813079834,4.894199848175049
1705060382155432700,31.0174326171875,2.4666998386383057,8.1274995803833,3.804999828338623
1705060382215432700,31.0774326171875,-2.5013999938964844,1.8192999362945557,3.578199863433838
1705060382275432700,31.1374326171875,-1.7131999731063843,5.367199897766113,6.314899921417236
1705060382335432700,31.1974326171875,-0.08709999918937683,6.413899898529053,6.553499698638916
1705060382395432700,31.2574326171875,0.7274999618530273,2.2634999752044678,2.6880998611450195
1705060382455432700,31.3174326171875,1.3918999433517456,-1.2623000144958496,0.963699996471405
1705060382515432700,31.3774326171875,2.603799819946289,-1.157599925994873,0.5051999688148499
1705060382575432700,31.4374326171875,2.4542999267578125,1.628600001335144,-0.5379999876022339
1705060382635432700,31.4974326171875,1.345099925994873,5.081899642944336,-3.0957999229431152
1705060382695432700,31.5574326171875,1.3377999067306519,2.9114999771118164,-6.171599864959717
1705060382755432700,31.6174326171875,3.2263998985290527,1.413699984550476,-7.393199920654297
1705060382815432700,31.6774326171875,2.6552000045776367,1.562999963760376,-6.876100063323975
1705060382875432700,31.7374326171875,2.192999839782715,3.7809998989105225,-4.23859977722168
1705060382935432700,31.7974326171875,1.3184000253677368,2.8158998489379883,-2.7204999923706055
1705060382995432700,31.8574326171875,0.23489999771118164,-0.397599995136261,1.402999997138977
1705060383055432700,31.9174326171875,1.7653999328613281,-0.4399999976158142,2.122299909591675
1705060383115432700,31.9774326171875,2.876199960708618,2.023699998855591,1.2325999736785889
1705060383175432700,32.0374326171875,3.3183999061584473,4.222499847412109,2.0223000049591064
1705060383235432700,32.0974326171875,0.8446999788284302,5.130300045013428,5.7195000648498535
1705060383295432700,32.1574326171875,-0.289000004529953,4.796499729156494,5.804100036621094
1705060383355432700,32.2174326171875,1.073199987411499,5.775399684906006,4.123199939727783
1705060383415432700,32.2774326171875,0.3148999810218811,5.119999885559082,1.660599946975708
1705060383475432700,32.3374326171875,1.1201999187469482,-0.23109999299049377,0.9696999788284302
1705060383535432700,32.3974326171875,2.8601999282836914,-2.124199867248535,0.06719999760389328
1705060383595432700,32.4574326171875,2.5713000297546387,0.6166999936103821,-1.424899935722351
1705060383655432700,32.5174326171875,2.1949000358581543,2.3030998706817627,-2.978099822998047
1705060383715432700,32.5774326171875,3.462100028991699,1.6740999221801758,-7.4492998123168945
1705060383775432700,32.6374326171875,2.8327999114990234,2.0334999561309814,-7.650300025939941
1705060383835432700,32.6974326171875,2.6484999656677246,2.579900026321411,-5.358299732208252
1705060383895432700,32.7574326171875,1.5875999927520752,4.781799793243408,-4.214900016784668
1705060383955432700,32.8174326171875,0.32420000433921814,2.5413999557495117,-2.270699977874756
1705060384015432700,32.8774326171875,1.4235999584197998,-0.0762999951839447,1.267699956893921
1705060384075432700,32.9374326171875,1.9377999305725098,-0.5564000010490417,1.564099907875061
1705060384135432700,32.9974326171875,3.4998998641967773,1.8538999557495117,1.7369999885559082
1705060384195432700,33.0574326171875,4.14300012588501,4.210700035095215,2.4665000438690186
1705060384255432700,33.1174326171875,1.5375999212265015,5.171199798583984,5.968100070953369
1705060384315432700,33.1774326171875,1.079200029373169,5.2555999755859375,6.780900001525879
1705060384375432700,33.2374326171875,0.9950999617576599,7.587499618530273,3.9027998447418213
1705060384435432700,33.2974326171875,0.7170999646186829,3.674099922180176,2.1171998977661133
1705060384495432700,33.3574326171875,1.6661999225616455,-1.6053999662399292,1.0181999206542969
1705060384555432700,33.4174326171875,2.377500057220459,-2.7400999069213867,-0.3227999806404114
1705060384615432700,33.4774326171875,2.118499994277954,0.457099974155426,-3.419999837875366
1705060384675432700,33.5374326171875,1.5616999864578247,2.2553000450134277,-4.974599838256836
1705060384735432700,33.5974326171875,1.1763999462127686,2.3568999767303467,-6.9456000328063965
1705060384795432700,33.6574326171875,1.955199956893921,0.5271999835968018,-9.30459976196289
1705060384855432700,33.7174326171875,1.107100009918213,1.3816999197006226,-6.021299839019775
1705060384915432700,33.7774326171875,-0.6035999655723572,7.36769962310791,-3.2193000316619873
1705060384975434200,33.83743432617187,0.542199969291687,3.5799999237060547,-2.5511999130249023
1705060385035432700,33.8974326171875,1.292699933052063,-1.0224000215530396,-0.08259999752044678
1705060385095432700,33.9574326171875,2.3740999698638916,-1.7838000059127808,2.5966999530792236
1705060385155432700,34.0174326171875,4.257899761199951,0.32989999651908875,2.3315000534057617
1705060385215432700,34.0774326171875,5.374399662017822,5.090099811553955,0.8822999596595764
1705060385275432700,34.1374326171875,1.6916999816894531,4.995199680328369,6.693199634552002
1705060385335432700,34.1974326171875,-0.056699998676776886,6.989799976348877,6.782399654388428
1705060385395432700,34.2574326171875,0.6703999638557434,7.7179999351501465,4.207799911499023
1705060385455432700,34.3174326171875,-0.1816999912261963,5.083699703216553,1.715399980545044
1705060385515432700,34.3774326171875,0.7240999937057495,-0.3946000039577484,1.0404999256134033
1705060385575432700,34.4374326171875,1.6750999689102173,-2.9779000282287598,-0.296999990940094
1705060385635432700,34.4974326171875,2.2725000381469727,-0.7228999733924866,-2.964399814605713
1705060385695432700,34.5574326171875,0.8797000050544739,2.648200035095215,-5.237499713897705
1705060385755432700,34.6174326171875,0.12860000133514404,2.2121999263763428,-6.0625996589660645
1705060385815432700,34.6774326171875,0.8755999803543091,-0.21660000085830688,-9.008199691772461
1705060385875432700,34.7374326171875,1.090999960899353,0.07050000131130219,-6.721199989318848
1705060385935432700,34.7974326171875,-0.5992000102996826,7.625,-4.1732001304626465
1705060385995432700,34.8574326171875,-0.7637999653816223,4.889400005340576,-0.8339999914169312
1705060386055432700,34.9174326171875,-1.3348000049591064,-0.5234999656677246,0.4822999835014343
1705060386115432700,34.9774326171875,1.667199969291687,-0.5422999858856201,2.5118000507354736
1705060386175432700,35.0374326171875,4.4644999504089355,-0.06549999862909317,3.0470998287200928
1705060386235432700,35.0974326171875,5.07480001449585,3.0476999282836914,2.038100004196167
1705060386295435800,35.15743579101562,4.132400035858154,5.008999824523926,3.4591000080108643
1705060386355432700,35.2174326171875,0.305899977684021,7.444599628448486,4.375
1705060386415432700,35.2774326171875,0.1973000019788742,9.410799980163574,6.2714996337890625
1705060386475432700,35.3374326171875,0.9925999641418457,6.282899856567383,2.7209999561309814
1705060386535432700,35.3974326171875,1.2138999700546265,0.8402000069618225,1.8472999334335327
1705060386595432700,35.4574326171875,0.04259999841451645,-3.111999988555908,-1.2078999280929565
1705060386655432700,35.5174326171875,1.869399905204773,0.1696999967098236,-2.70989990234375
1705060386715432700,35.5774326171875,0.49459999799728394,2.8760998249053955,-4.46589994430542
1705060386775432700,35.6374326171875,1.2213000059127808,1.614300012588501,-6.0737996101379395
1705060386835432700,35.6974326171875,2.450000047683716,-0.7062999606132507,-8.726699829101562
1705060386895432700,35.7574326171875,2.6569998264312744,0.677899956703186,-8.765799522399902
1705060386955432700,35.8174326171875,1.7314000129699707,7.7754998207092285,-5.12339973449707
1705060387015432700,35.8774326171875,0.9243999719619751,6.827199935913086,-3.9819998741149902
1705060387075432700,35.9374326171875,0.3880999982357025,3.0040998458862305,-0.13239999115467072
1705060387135432700,35.9974326171875,1.187399983406067,0.5612999796867371,2.3810999393463135
1705060387195432700,36.0574326171875,2.460099935531616,1.0118999481201172,3.388199806213379
1705060387255432700,36.1174326171875,4.158199787139893,3.8153998851776123,2.2368998527526855
1705060387315432700,36.1774326171875,3.992999792098999,4.619800090789795,4.114299774169922
1705060387375432700,36.2374326171875,1.549799919128418,3.460899829864502,6.979399681091309
1705060387435432700,36.2974326171875,0.5924999713897705,5.977299690246582,5.127699851989746
1705060387495432700,36.3574326171875,1.1990000009536743,7.218899726867676,1.6299999952316284
1705060387555432700,36.4174326171875,0.5333999991416931,4.530200004577637,1.2681000232696533
1705060387615432700,36.4774326171875,1.5331000089645386,-0.15240000188350677,-0.31129997968673706
1705060387675432700,36.5374326171875,2.532099962234497,0.3920999765396118,-1.2989000082015991
1705060387735432700,36.5974326171875,2.6331000328063965,1.9785999059677124,-3.107499837875366
1705060387795432700,36.6574326171875,2.98829984664917,0.7343999743461609,-6.52839994430542
1705060387855432700,36.7174326171875,2.762399911880493,1.2630999088287354,-7.971199989318848
1705060387915432700,36.7774326171875,2.1893999576568604,2.2832000255584717,-8.65839958190918
1705060387975432700,36.8374326171875,1.253999948501587,5.2332000732421875,-5.924699783325195
1705060388035432700,36.8974326171875,1.2922999858856201,7.310499668121338,-5.110099792480469
1705060388095432700,36.9574326171875,0.8878999948501587,3.7276999950408936,-1.6875
1705060388155432700,37.0174326171875,2.6024999618530273,0.1955999881029129,0.9921000003814697
1705060388215432700,37.0774326171875,4.119199752807617,1.6215999126434326,1.933899998664856
1705060388275432700,37.1374326171875,4.595900058746338,6.873499870300293,1.4016000032424927
1705060388335432700,37.1974326171875,4.297499656677246,7.0341997146606445,4.223299980163574
1705060388395432700,37.2574326171875,1.6497999429702759,2.6138999462127686,8.026599884033203
1705060388455432700,37.3174326171875,0.10399999469518661,4.4965996742248535,6.653199672698975
1705060388515432700,37.3774326171875,0.8941999673843384,9.55579948425293,3.0555999279022217
1705060388575432700,37.4374326171875,1.4887999296188354,5.190799713134766,2.7609000205993652
1705060388635432700,37.4974326171875,1.852199912071228,0.4851999878883362,0.026799999177455902
1705060388695432700,37.5574326171875,1.9892998933792114,-1.5231000185012817,-0.9156000018119812
1705060388755432700,37.6174326171875,1.9596999883651733,1.5776000022888184,-4.142600059509277
1705060388815432700,37.6774326171875,0.8199999928474426,2.4622998237609863,-5.5046000480651855
1705060388875432700,37.7374326171875,3.267699956893921,3.2799999713897705,-8.851699829101562
1705060388935432700,37.7974326171875,1.2074999809265137,2.094099998474121,-9.113200187683105
1705060388995432700,37.8574326171875,2.435999870300293,3.5379998683929443,-6.595399856567383
1705060389055432700,37.9174326171875,0.942799985408783,5.962100028991699,-3.5219998359680176
1705060389115432700,37.9774326171875,0.9642999768257141,5.023600101470947,-2.102599859237671
1705060389175432700,38.0374326171875,1.205199956893921,1.3276000022888184,-0.29809999465942383
1705060389235432700,38.0974326171875,2.8613998889923096,0.27390000224113464,2.6556999683380127
1705060389295432700,38.1574326171875,4.300699710845947,2.639400005340576,2.931999921798706
1705060389355432700,38.2174326171875,4.779299736022949,4.4274001121521,3.3564999103546143
1705060389415432700,38.2774326171875,2.9788999557495117,3.6980998516082764,6.212599754333496
1705060389475432700,38.3374326171875,-0.5077999830245972,5.127999782562256,7.8790998458862305
1705060389535432700,38.3974326171875,0.7911999821662903,7.5346999168396,4.293499946594238
1705060389595432700,38.4574326171875,2.135999917984009,8.638299942016602,2.637500047683716
1705060389655432700,38.5174326171875,1.2318999767303467,3.745299816131592,-0.5888999700546265
1705060389715432700,38.5774326171875,1.5562999248504639,-0.8759999871253967,-0.8251999616622925
1705060389775432700,38.6374326171875,1.9083999395370483,1.7512999773025513,-2.216599941253662
1705060389835432700,38.6974326171875,2.6919000148773193,2.870999813079834,-2.8252999782562256
1705060389895432700,38.7574326171875,5.93619966506958,2.1384999752044678,-6.868399620056152
1705060389955432700,38.8174326171875,4.163599967956543,1.805899977684021,-8.507999420166016
1705060390015432700,38.8774326171875,2.8479998111724854,1.4857999086380005,-7.579799652099609
1705060390075432700,38.9374326171875,2.038100004196167,7.83519983291626,-5.876399993896484
1705060390135432700,38.9974326171875,0.17799998819828033,5.214900016784668,-2.5527000427246094
1705060390195432700,39.0574326171875,1.0521999597549438,2.0155999660491943,-1.4577999114990234
1705060390255432700,39.1174326171875,1.1678999662399292,0.26909998059272766,0.3349999785423279
1705060390315432700,39.1774326171875,3.6285998821258545,1.028499960899353,2.3157999515533447
1705060390375432700,39.2374326171875,4.920799732208252,3.2860000133514404,2.5274999141693115
1705060390435432700,39.2974326171875,4.67549991607666,5.140899658203125,3.9361000061035156
1705060390495432700,39.3574326171875,1.8222999572753906,4.480299949645996,6.344399929046631
1705060390555432700,39.4174326171875,-1.354599952697754,6.465699672698975,7.364299774169922
1705060390615432700,39.4774326171875,-0.35199999809265137,9.696399688720703,1.2006999254226685
1705060390675432700,39.5374326171875,0.4120999872684479,4.369899749755859,5.537299633026123
1705060390735432700,39.5974326171875,1.2029999494552612,-0.38519999384880066,0.35929998755455017
1705060390795432700,39.6574326171875,2.3023998737335205,-1.2352999448776245,-0.2507999837398529
1705060390855432700,39.7174326171875,2.871500015258789,1.3295999765396118,-2.687700033187866
1705060390915432700,39.7774326171875,2.7219998836517334,4.395299911499023,-4.86870002746582
1705060390975432700,39.8374326171875,4.21999979019165,2.9323999881744385,-6.763499736785889
1705060391035432700,39.8974326171875,3.5195999145507812,0.5819000005722046,-9.43120002746582
1705060391095432700,39.9574326171875,2.6865999698638916,3.1106998920440674,-8.062199592590332
1705060391155432700,40.0174326171875,1.0341999530792236,7.0625996589660645,-5.51669979095459
1705060391215432700,40.0774326171875,0.3342999815940857,5.147200107574463,-4.012399673461914
1705060391275432700,40.1374326171875,0.887999951839447,1.0156999826431274,-0.1720999926328659
1705060391335432700,40.1974326171875,3.6847000122070312,0.4375,1.973099946975708
1705060391395432700,40.2574326171875,5.448299884796143,4.424099922180176,1.3319000005722046
1705060391455432700,40.3174326171875,5.789000034332275,6.769700050354004,1.5778999328613281
1705060391515432700,40.3774326171875,3.4382998943328857,5.466000080108643,7.309000015258789
1705060391575432700,40.4374326171875,-0.37379997968673706,6.18779993057251,8.183099746704102
1705060391635432700,40.4974326171875,0.16449999809265137,9.55109977722168,2.2119998931884766
1705060391695432700,40.5574326171875,1.581399917602539,6.5792999267578125,5.037899971008301
1705060391755432700,40.6174326171875,2.360499858856201,2.5902998447418213,2.875499963760376
1705060391815432700,40.6774326171875,2.7323999404907227,1.1369999647140503,0.8520999550819397
1705060391875432700,40.7374326171875,3.7802000045776367,1.840499997138977,-3.225800037384033
1705060391935432700,40.7974326171875,2.0119998455047607,5.644399642944336,-5.976500034332275
1705060391995432700,40.8574326171875,1.8202999830245972,3.97379994392395,-7.987599849700928
1705060392055432700,40.9174326171875,1.2408000230789185,0.8136999607086182,-11.525599479675293
1705060392115432700,40.9774326171875,-1.032599925994873,-0.343099981546402,-12.035099983215332
1705060392175432700,41.0374326171875,-1.8358999490737915,4.8294997215271,-6.807299613952637
1705060392235432700,41.0974326171875,0.07400000095367432,7.935799598693848,-6.559499740600586
1705060392295432700,41.1574326171875,0.4163999855518341,6.1601996421813965,-3.7659997940063477
1705060392355432700,41.2174326171875,4.348199844360352,5.11899995803833,0.49619999527931213
1705060392415432700,41.2774326171875,5.739299774169922,5.193299770355225,3.122299909591675
1705060392475432700,41.3374326171875,5.501299858093262,7.94980001449585,3.673499822616577
1705060392535432700,41.3974326171875,4.463599681854248,5.395400047302246,7.380899906158447
1705060392595432700,41.4574326171875,0.8774999976158142,3.841599941253662,9.499899864196777
1705060392655432700,41.5174326171875,0.24879999458789825,6.527400016784668,5.563199996948242
1705060392715432700,41.5774326171875,1.6190999746322632,9.767099380493164,3.974900007247925
1705060392775432700,41.6374326171875,2.5932998657226562,5.029200077056885,2.4186999797821045
1705060392835432700,41.6974326171875,2.521399974822998,0.7543999552726746,-0.7450000047683716
1705060392895432700,41.7574326171875,1.7637999057769775,1.9601999521255493,-2.592900037765503
1705060392955432700,41.8174326171875,-0.12549999356269836,5.78309965133667,-3.390699863433838
1705060393015432700,41.8774326171875,0.8151999711990356,5.658899784088135,-6.97029972076416
1705060393075432700,41.9374326171875,-0.6694999933242798,1.3158999681472778,-11.247200012207031
1705060393135432700,41.9974326171875,-0.9019999504089355,-0.9407999515533447,-11.62559986114502
1705060393195432700,42.0574326171875,-0.5983999967575073,1.7271000146865845,-7.809899806976318
1705060393255432700,42.1174326171875,-0.46959999203681946,6.568899631500244,-6.461799621582031
1705060393315432700,42.1774326171875,0.6200999617576599,7.06879997253418,-3.859499931335449
1705060393375432700,42.2374326171875,2.789799928665161,3.231799840927124,0.08509999513626099
1705060393435432700,42.2974326171875,5.256499767303467,3.6919000148773193,2.8618998527526855
1705060393495432700,42.3574326171875,5.309299945831299,5.9405999183654785,2.6561999320983887
1705060393555432700,42.4174326171875,5.043600082397461,5.5467000007629395,4.801199913024902
1705060393615432700,42.4774326171875,2.6333999633789062,3.815699815750122,7.884199619293213
1705060393675432700,42.5374326171875,0.6316999793052673,6.608099937438965,7.600899696350098
1705060393735432700,42.5974326171875,2.380199909210205,10.803999900817871,1.6069999933242798
1705060393795432700,42.6574326171875,1.271899938583374,4.156099796295166,2.1357998847961426
1705060393855432700,42.7174326171875,1.042099952697754,0.9949999451637268,0.1655000001192093
1705060393915432700,42.7774326171875,-2.3260998725891113,-1.2669999599456787,-4.8694000244140625
1705060393975432700,42.8374326171875,3.076399803161621,1.521799921989441,1.8736999034881592
1705060394035432700,42.8974326171875,0.3659999966621399,2.312999963760376,-4.623899936676025
1705060394095432700,42.9574326171875,1.5759999752044678,4.430799961090088,-7.566299915313721
1705060394155432700,43.0174326171875,2.868799924850464,1.7342000007629395,-10.025300025939941
1705060394215432700,43.0774326171875,3.005699872970581,3.068199872970581,-7.902400016784668
1705060394275432700,43.1374326171875,-0.22899998724460602,6.457099914550781,-5.61769962310791
1705060394335432700,43.1974326171875,0.1103999987244606,4.410599708557129,-3.0289998054504395
1705060394395432700,43.2574326171875,2.5182998180389404,1.0713999271392822,-1.2424999475479126
1705060394455432700,43.3174326171875,4.313199996948242,1.441999912261963,1.1191999912261963
1705060394515432700,43.3774326171875,4.626399993896484,3.6298999786376953,2.5153000354766846
1705060394575432700,43.4374326171875,4.145999908447266,8.461699485778809,3.8108999729156494
1705060394635432700,43.4974326171875,1.3391000032424927,4.140599727630615,7.842299938201904
1705060394695432700,43.5574326171875,0.6355999708175659,4.9028000831604,6.199899673461914
1705060394755432700,43.6174326171875,1.968400001525879,7.981400012969971,4.654799938201904
1705060394815432700,43.6774326171875,2.907399892807007,4.099599838256836,3.9624998569488525
1705060394875432700,43.7374326171875,1.9148999452590942,0.2653000056743622,0.8944000005722046
1705060394935432700,43.7974326171875,1.8061000108718872,-0.7340999841690063,-0.006199999712407589
1705060394995432700,43.8574326171875,2.6945998668670654,2.43969988822937,-1.9859999418258667
1705060395055432700,43.9174326171875,1.7598999738693237,4.600299835205078,-3.4046998023986816
1705060395115432700,43.9774326171875,3.1283998489379883,4.756799697875977,-5.88730001449585
1705060395175432700,44.0374326171875,3.130699872970581,1.0562999248504639,-8.750899314880371
1705060395235432700,44.0974326171875,2.2692999839782715,0.6435999870300293,-11.464699745178223
1705060395295432700,44.1574326171875,0.01850000023841858,4.086299896240234,-5.805299758911133
1705060395355432700,44.2174326171875,1.0987999439239502,6.802499771118164,-6.174299716949463
1705060395415432700,44.2774326171875,0.8852999806404114,2.1389999389648438,-1.9776999950408936
1705060395475432700,44.3374326171875,2.38319993019104,0.8928999900817871,1.423699975013733
1705060395535432700,44.3974326171875,3.9007999897003174,2.4034998416900635,2.2934000492095947
1705060395595432700,44.4574326171875,4.309700012207031,6.458199977874756,1.0995999574661255
1705060395655432700,44.5174326171875,3.183499813079834,4.427499771118164,7.179199695587158
1705060395715432700,44.5774326171875,1.7632999420166016,5.932299613952637,9.146200180053711
1705060395775432700,44.6374326171875,0.7626999616622925,11.798799514770508,4.5065999031066895
1705060395835432700,44.6974326171875,0.5701000094413757,7.675899982452393,3.9707999229431152
1705060395895432700,44.7574326171875,2.241499900817871,1.1495000123977661,2.0013999938964844
1705060395955432700,44.8174326171875,2.533599853515625,-0.7608000040054321,0.14270000159740448
1705060396015432700,44.8774326171875,1.7792999744415283,1.9555999040603638,-3.0314998626708984
1705060396075432700,44.9374326171875,1.5406999588012695,4.376299858093262,-4.920300006866455
1705060396135432700,44.9974326171875,4.6194000244140625,2.953699827194214,-7.10189962387085
1705060396195432700,45.0574326171875,4.535699844360352,2.3778998851776123,-11.108999252319336
1705060396255432700,45.1174326171875,3.796299934387207,1.2243000268936157,-10.240799903869629
1705060396315432700,45.1774326171875,1.7511999607086182,7.054100036621094,-7.688299655914307
1705060396375432700,45.2374326171875,1.6699999570846558,7.011699676513672,-4.94849967956543
1705060396435432700,45.2974326171875,1.3874999284744263,3.7319998741149902,0.26170000433921814
1705060396495432700,45.3574326171875,3.1908998489379883,4.147299766540527,1.198599934577942
1705060396555432700,45.4174326171875,4.249499797821045,5.470900058746338,2.1598000526428223
1705060396615432700,45.4774326171875,6.222099781036377,6.977799892425537,2.6768999099731445
1705060396675432700,45.5374326171875,4.310999870300293,5.081500053405762,7.0980000495910645
1705060396735432700,45.5974326171875,0.5067999958992004,7.205999851226807,8.057899475097656
1705060396795432700,45.6574326171875,0.16129998862743378,11.121999740600586,4.327699661254883
1705060396855432700,45.7174326171875,1.0169999599456787,6.1778998374938965,2.0632998943328857
1705060396915432700,45.7774326171875,1.1690999269485474,0.3414999842643738,0.741599977016449
1705060396975432700,45.8374326171875,-1.7186999320983887,-0.5884000062942505,-1.1550999879837036
1705060397035432700,45.8974326171875,0.6136999726295471,2.299999952316284,-0.3662000000476837
1705060397095432700,45.9574326171875,2.631899833679199,4.613199710845947,-3.016899824142456
1705060397155432700,46.0174326171875,4.530900001525879,4.69379997253418,-6.799099922180176
1705060397215432700,46.0774326171875,3.21589994430542,2.3675999641418457,-10.614500045776367
1705060397275432700,46.1374326171875,1.8382999897003174,2.1835999488830566,-7.666299819946289
1705060397335432700,46.1974326171875,0.21289999783039093,6.452699661254883,-5.245699882507324
1705060397395432700,46.2574326171875,0.3824999928474426,3.5188000202178955,-3.9485998153686523
1705060397455432700,46.3174326171875,0.6003999710083008,2.459199905395508,-0.0030999998562037945
1705060397515432700,46.3774326171875,2.0392000675201416,0.032999999821186066,2.252699851989746
1705060397575432700,46.4374326171875,4.420199871063232,0.013700000010430813,2.4916999340057373
1705060397635432700,46.4974326171875,5.822199821472168,3.6278998851776123,1.4728000164031982
1705060397695432700,46.5574326171875,3.796799898147583,4.751199722290039,4.6880998611450195
1705060397755432700,46.6174326171875,0.1509999930858612,5.521699905395508,6.189799785614014
1705060397815432700,46.6774326171875,0.06889999657869339,7.231099605560303,4.726200103759766
1705060397875432700,46.7374326171875,1.8180999755859375,8.097199440002441,0.07209999859333038
1705060397935432700,46.7974326171875,1.3054999113082886,1.5506999492645264,2.4811999797821045
1705060397995432700,46.8574326171875,2.4486000537872314,-1.3833999633789062,-0.10539999604225159
1705060398055432700,46.9174326171875,2.5399999618530273,-0.7500999569892883,-2.6095998287200928
1705060398115432700,46.9774326171875,1.6071999073028564,3.000499963760376,-3.7530999183654785
1705060398175432700,47.0374326171875,-0.8359000086784363,1.8529999256134033,-7.643399715423584
1705060398235432700,47.0974326171875,7.851199626922607,1.9244999885559082,-4.3531999588012695
1705060398295432700,47.1574326171875,8.093899726867676,1.022499918937683,-7.808799743652344
1705060398355432700,47.2174326171875,4.797499656677246,10.63219928741455,-3.5052998065948486
1705060398415432700,47.2774326171875,2.0518999099731445,6.810799598693848,-2.3831000328063965
1705060398475432700,47.3374326171875,2.2771999835968018,1.6561999320983887,-1.0073999166488647
1705060398535432700,47.3974326171875,2.003999948501587,1.511799931526184,1.5616999864578247
1705060398595432700,47.4574326171875,2.88100004196167,2.0441999435424805,2.4277000427246094
1705060398655432700,47.5174326171875,4.386600017547607,3.839399814605713,2.596400022506714
1705060398715432700,47.5774326171875,3.7453999519348145,4.723099708557129,4.621299743652344
1705060398775432700,47.6374326171875,1.2613999843597412,4.514199733734131,7.8907999992370605
1705060398835432700,47.6974326171875,0.2857999801635742,9.210100173950195,5.622499942779541
1705060398895432700,47.7574326171875,0.21739999949932098,9.4714994430542,1.4869999885559082
1705060398955432700,47.8174326171875,0.11159999668598175,2.1296000480651855,2.130699872970581
1705060399015432700,47.8774326171875,-0.9357999563217163,-1.2573999166488647,-0.9156000018119812
1705060399075432700,47.9374326171875,3.191200017929077,-0.8452999591827393,0.6553999781608582
1705060399135432700,47.9974326171875,0.945099949836731,2.11329984664917,-4.534899711608887
1705060399195432700,48.0574326171875,2.1059000492095947,2.2973999977111816,-5.247200012207031
1705060399255432700,48.1174326171875,5.289400100708008,3.023599863052368,-5.787600040435791
1705060399315432700,48.1774326171875,4.698400020599365,1.945199966430664,-7.126399993896484
1705060399375432700,48.2374326171875,2.4976999759674072,6.973399639129639,-4.917599678039551
1705060399435432700,48.2974326171875,1.3351999521255493,4.058499813079834,-3.7523000240325928
1705060399495432700,48.3574326171875,0.49799999594688416,0.6407999992370605,-0.3208000063896179
1705060399555432700,48.4174326171875,0.6342999935150146,-0.4545999765396118,0.7114999890327454
1705060399615432700,48.4774326171875,2.592599868774414,0.693399965763092,2.2747998237609863
1705060399675432700,48.5374326171875,4.239999771118164,4.099999904632568,1.740399956703186
1705060399735432700,48.5974326171875,3.2301998138427734,5.39709997177124,3.1201000213623047
1705060399795432700,48.6574326171875,-0.32739999890327454,6.33459997177124,6.280399799346924
1705060399855432700,48.7174326171875,0.5303999781608582,7.221299648284912,6.21999979019165
1705060399915432700,48.7774326171875,1.0773999691009521,5.971799850463867,3.1546998023986816
1705060399975432700,48.8374326171875,1.9616999626159668,2.254699945449829,2.231099843978882
1705060400035432700,48.8974326171875,2.1031999588012695,-0.03959999978542328,-0.07449999451637268
1705060400095432700,48.9574326171875,1.9617999792099,0.8862999677658081,-1.1165000200271606
1705060400155432700,49.0174326171875,2.42330002784729,2.891899824142456,-2.202899932861328
1705060400215432700,49.0774326171875,4.387700080871582,1.9334999322891235,-5.525000095367432
1705060400275432700,49.1374326171875,4.2490997314453125,2.633999824523926,-9.082399368286133
1705060400335434200,49.19743432617187,2.755499839782715,1.848099946975708,-9.046599388122559
1705060400395432700,49.2574326171875,1.8048999309539795,3.7342000007629395,-6.795599937438965
1705060400455432700,49.3174326171875,-0.10749999433755875,8.233599662780762,-2.8884999752044678
1705060400515432700,49.3774326171875,0.14000000059604645,5.081500053405762,-0.49229997396469116
1705060400575432700,49.4374326171875,1.7231999635696411,1.0091999769210815,1.8270999193191528
1705060400635432700,49.4974326171875,3.0760998725891113,-0.29739999771118164,4.6774001121521
1705060400695432700,49.5574326171875,4.838299751281738,-1.3116999864578247,6.347399711608887
1705060400755432700,49.6174326171875,2.494499921798706,3.606599807739258,9.260499954223633
1705060400815432700,49.6774326171875,0.1889999955892563,4.819799900054932,8.012100219726562
1705060400875432700,49.7374326171875,1.5921999216079712,6.701499938964844,1.5637999773025513
1705060400935432700,49.7974326171875,-1.6578999757766724,10.171899795532227,-2.066499948501587
1705060400995432700,49.8574326171875,0.9866999983787537,4.846499919891357,-3.097899913787842
1705060401055432700,49.9174326171875,-0.8743999600410461,-5.590799808502197,-5.594799995422363
1705060401115432700,49.9774326171875,1.3945999145507812,-4.690000057220459,-1.712499976158142
1705060401175432700,50.0374326171875,1.5145999193191528,-7.302000045776367,0.5546000003814697
1705060401235432700,50.0974326171875,1.0335999727249146,-1.8176000118255615,-0.16749998927116394
1705060401295432700,50.1574326171875,-1.4397000074386597,1.9210999011993408,-4.747299671173096
1705060401355432700,50.2174326171875,-1.188599944114685,2.862799882888794,-3.902899980545044
1705060401415432700,50.2774326171875,3.8743999004364014,4.639400005340576,-1.1832000017166138
1705060401475432700,50.3374326171875,3.6995999813079834,3.592599868774414,0.0640999972820282
1705060401535432700,50.3974326171875,1.6794999837875366,-1.7615998983383179,3.6545000076293945
1705060401595432700,50.4574326171875,-0.006300000008195639,-4.499899864196777,3.0052998065948486
1705060401655432700,50.5174326171875,0.578000009059906,-7.6519999504089355,2.3324999809265137
1705060401715432700,50.5774326171875,1.5889999866485596,-3.0897998809814453,1.761299967765808
1705060401775432700,50.6374326171875,0.3123999834060669,2.9365999698638916,-4.39709997177124
1705060401835432700,50.6974326171875,1.7704999446868896,-0.19189999997615814,-2.0439000129699707
1705060401895432700,50.7574326171875,-0.3353999853134155,2.8523998260498047,-0.275299996137619
1705060401955432700,50.8174326171875,-0.19059999287128448,8.398599624633789,-3.3773000240325928
1705060402015432700,50.8774326171875,2.9186999797821045,-2.9265999794006348,-2.9415998458862305
1705060402075432700,50.9374326171875,-4.926199913024902,-1.6061999797821045,5.613699913024902
1705060402135432700,50.9974326171875,1.1085000038146973,-3.1885998249053955,5.2316999435424805
1705060402195432700,51.0574326171875,0.37139999866485596,-6.018499851226807,2.185999870300293
1705060402255432700,51.1174326171875,0.482699990272522,-0.5228999853134155,-3.572999954223633
1705060402315432700,51.1774326171875,-2.817699909210205,-0.49300000071525574,-2.803499937057495
1705060402375432700,51.2374326171875,2.688499927520752,6.394199848175049,1.7340999841690063
1705060402435432700,51.2974326171875,3.787799835205078,7.030999660491943,0.6398000121116638
1705060402495432700,51.3574326171875,3.3696999549865723,-2.2439000606536865,-3.8892998695373535
1705060402555432700,51.4174326171875,0.3901999890804291,-3.4069998264312744,1.7020999193191528
1705060402615432700,51.4774326171875,-3.6782000064849854,-4.1250996589660645,1.618399977684021
1705060402675432700,51.5374326171875,4.130399703979492,-2.8155999183654785,0.6714999675750732
1705060402735432700,51.5974326171875,2.0994999408721924,2.3348000049591064,-1.261699914932251
1705060402795432700,51.6574326171875,-0.2797999978065491,4.672699928283691,-0.11319999396800995
1705060402855432700,51.7174326171875,3.1949000358581543,3.4393999576568604,-3.0379998683929443
1705060402915432700,51.7774326171875,-2.4635000228881836,6.642099857330322,-0.04319999739527702
1705060402975432700,51.8374326171875,-0.7475999593734741,-0.9745000004768372,0.9103999733924866
1705060403035432700,51.8974326171875,-1.6236000061035156,-5.2418999671936035,8.047200202941895
1705060403095432700,51.9574326171875,-0.760699987411499,-4.7846999168396,7.069399833679199
1705060403155432700,52.0174326171875,1.913100004196167,-0.9341999888420105,1.8009999990463257
1705060403215432700,52.0774326171875,3.004499912261963,0.9637999534606934,-2.4033000469207764
1705060403275432700,52.1374326171875,2.01419997215271,7.088299751281738,-5.474599838256836
1705060403335432700,52.1974326171875,-3.5140998363494873,2.754499912261963,-6.934999942779541
1705060403395432700,52.2574326171875,3.1340999603271484,3.1755998134613037,-8.800700187683105
1705060403455432700,52.3174326171875,0.8757999539375305,3.020699977874756,-5.30079984664917
1705060403515432700,52.3774326171875,1.4471999406814575,-0.5995000004768372,-0.9336999654769897
1705060403575432700,52.4374326171875,2.363800048828125,-0.13189999759197235,0.2655999958515167
1705060403635432700,52.4974326171875,3.656799793243408,4.120500087738037,1.9097999334335327
1705060403695432700,52.5574326171875,2.412099838256836,6.866299629211426,3.323699951171875
1705060403755432700,52.6174326171875,-0.17139999568462372,3.5354998111724854,8.61199951171875
1705060403815432700,52.6774326171875,-0.2719999849796295,5.892099857330322,8.143799781799316
1705060403875432700,52.7374326171875,0.597000002861023,9.4847993850708,6.665799617767334
1705060403935432700,52.7974326171875,0.12610000371932983,7.2677998542785645,2.3687000274658203
1705060403995432700,52.8574326171875,0.9289999604225159,1.0855000019073486,0.988099992275238
1705060404055432700,52.9174326171875,2.57069993019104,-0.9649999737739563,-0.6807999610900879
1705060404115432700,52.9774326171875,1.8914999961853027,1.2882999181747437,-3.809199810028076
1705060404175432700,53.0374326171875,0.31200000643730164,1.036199927330017,-6.7444000244140625
1705060404235432700,53.0974326171875,0.11289999634027481,0.911899983882904,-9.384900093078613
1705060404295432700,53.1574326171875,-0.35749998688697815,0.6159999966621399,-9.31719970703125
1705060404355432700,53.2174326171875,0.4106999933719635,6.132599830627441,-6.871699810028076
1705060404415432700,53.2774326171875,0.14659999310970306,7.513399600982666,-4.293299674987793
1705060404475432700,53.3374326171875,1.2374999523162842,5.1442999839782715,1.309999942779541
1705060404535432700,53.3974326171875,1.2720999717712402,-3.41729998588562,2.8725998401641846
1705060404595432700,53.4574326171875,3.5759999752044678,-4.633299827575684,3.196699857711792
1705060404655432700,53.5174326171875,4.97599983215332,0.19179999828338623,1.6887999773025513
1705060404715432700,53.5774326171875,4.4380998611450195,7.098999977111816,-0.6419000029563904
1705060404775432700,53.6374326171875,-2.7535998821258545,6.236000061035156,8.545999526977539
1705060404835432700,53.6974326171875,0.7727999687194824,8.179100036621094,7.7642998695373535
1705060404895432700,53.7574326171875,0.6353999972343445,7.513700008392334,1.8704999685287476
1705060404955432700,53.8174326171875,0.3093999922275543,1.993499994277954,2.818699836730957
1705060405015432700,53.8774326171875,2.399899959564209,-2.493299961090088,0.31540000438690186
1705060405075432700,53.9374326171875,2.688999891281128,-1.445599913597107,-1.650999903678894
1705060405135432700,53.9974326171875,1.2006999254226685,0.16659998893737793,-3.5092999935150146
1705060405195432700,54.0574326171875,1.8858000040054321,2.2681000232696533,-4.914499759674072
1705060405255432700,54.1174326171875,1.2903999090194702,1.3949999809265137,-7.319499969482422
1705060405315432700,54.1774326171875,2.4465999603271484,1.2771999835968018,-8.227999687194824
1705060405375432700,54.2374326171875,0.9329999685287476,6.27239990234375,-4.845399856567383
1705060405435432700,54.2974326171875,0.22199998795986176,3.969899892807007,-4.709700107574463
1705060405495432700,54.3574326171875,0.10260000079870224,0.26429998874664307,0.1444000005722046
1705060405555432700,54.4174326171875,0.91839998960495,-1.6026999950408936,1.1115000247955322
1705060405615432700,54.4774326171875,3.4006998538970947,0.8079999685287476,1.5964999198913574
1705060405675432700,54.5374326171875,4.668600082397461,4.676199913024902,0.5403000116348267
1705060405735432700,54.5974326171875,2.76039981842041,5.696599960327148,5.066699981689453
1705060405795432700,54.6574326171875,-0.5690999627113342,3.3585000038146973,9.7677001953125
1705060405855432700,54.7174326171875,1.3003000020980835,5.011300086975098,6.389400005340576
1705060405915432700,54.7774326171875,1.4289000034332275,8.413899421691895,1.7175999879837036
1705060405975432700,54.8374326171875,0.243599995970726,4.127599716186523,1.524899959564209
1705060406035432700,54.8974326171875,2.045799970626831,-1.657599925994873,-0.042399998754262924
1705060406095432700,54.9574326171875,3.0125999450683594,-1.8344999551773071,-1.5472999811172485
1705060406155432700,55.0174326171875,1.7019000053405762,1.500100016593933,-3.8621997833251953
1705060406215432700,55.0774326171875,0.5511999726295471,1.587499976158142,-5.656899929046631
1705060406275432700,55.1374326171875,2.047600030899048,1.1942999362945557,-8.44279956817627
1705060406335432700,55.1974326171875,1.362399935722351,1.7520999908447266,-7.455699920654297
1705060406395432700,55.2574326171875,0.36079999804496765,6.910699844360352,-4.683799743652344
1705060406455432700,55.3174326171875,0.28299999237060547,3.8239998817443848,-3.444999933242798
1705060406515432700,55.3774326171875,0.46309998631477356,-0.588699996471405,0.49079999327659607
1705060406575432700,55.4374326171875,1.358699917793274,-1.0709999799728394,1.4541000127792358
1705060406635432700,55.4974326171875,3.6041998863220215,1.1519999504089355,1.2882000207901
1705060406695432700,55.5574326171875,4.5192999839782715,4.860699653625488,0.873699963092804
1705060406755432700,55.6174326171875,2.152099847793579,6.292699813842773,5.292099952697754
1705060406815432700,55.6774326171875,0.8745999932289124,3.856299877166748,10.14579963684082
1705060406875432700,55.7374326171875,1.32069993019104,6.78279972076416,6.376299858093262
1705060406935432700,55.7974326171875,0.4023999869823456,8.278499603271484,3.3782999515533447
1705060406995432700,55.8574326171875,1.2626999616622925,2.7879998683929443,1.6851999759674072
1705060407055432700,55.9174326171875,2.6157000064849854,-0.9928999543190002,0.1964000016450882
1705060407115432700,55.9774326171875,1.8499999046325684,-0.11800000071525574,-1.6746000051498413
1705060407175432700,56.0374326171875,0.5740000009536743,2.225100040435791,-3.6875998973846436
1705060407235432700,56.0974326171875,1.4315999746322632,0.6541999578475952,-6.0894999504089355
1705060407295443700,56.157443603515624,0.9779999852180481,1.317699909210205,-8.888699531555176
1705060407355432700,56.2174326171875,0.1379999965429306,0.5587999820709229,-7.257099628448486
1705060407415432700,56.2774326171875,1.0126999616622925,4.90939998626709,-6.322499752044678
1705060407475432700,56.3374326171875,0.14090000092983246,5.759199619293213,-3.990299940109253
1705060407535432700,56.3974326171875,0.25110000371932983,1.8731999397277832,-0.8396999835968018
1705060407595432700,56.4574326171875,1.6938999891281128,-0.16589999198913574,0.8504999876022339
1705060407655432700,56.5174326171875,3.5060999393463135,2.213399887084961,1.9945999383926392
1705060407715432700,56.5774326171875,4.07859992980957,4.6840996742248535,3.492299795150757
1705060407775432700,56.6374326171875,3.256500005722046,5.710000038146973,4.056600093841553
1705060407835432700,56.6974326171875,0.5953999757766724,5.505499839782715,6.977200031280518
1705060407895432700,56.7574326171875,1.0856000185012817,4.7363996505737305,6.529399871826172
1705060407955432700,56.8174326171875,1.6703999042510986,7.731099605560303,2.2784998416900635
1705060408015432700,56.8774326171875,-0.7401999831199646,4.400199890136719,0.5133999586105347
1705060408075432700,56.9374326171875,0.3328999876976013,-0.3154999911785126,0.1744999885559082
1705060408135432700,56.9974326171875,1.8738999366760254,0.02669999934732914,0.7901999950408936
1705060408195432700,57.0574326171875,1.456399917602539,3.6083998680114746,-2.3125998973846436
1705060408255432700,57.1174326171875,3.2944998741149902,1.323699951171875,-6.293499946594238
1705060408315432700,57.1774326171875,3.2761998176574707,1.135200023651123,-7.979799747467041
1705060408375432700,57.2374326171875,2.3380000591278076,2.4779999256134033,-8.347000122070312
1705060408435432700,57.2974326171875,1.059000015258789,2.759199857711792,-6.249499797821045
1705060408495432700,57.3574326171875,-0.1096000000834465,4.928599834442139,-3.837399959564209
1705060408555432700,57.4174326171875,0.45229998230934143,2.5429999828338623,-3.152599811553955
1705060408615432700,57.4774326171875,0.9656999707221985,-0.5295000076293945,-0.37449997663497925
1705060408675432700,57.5374326171875,3.3387999534606934,0.5805999636650085,2.100299835205078
1705060408735432700,57.5974326171875,4.617000102996826,3.6519999504089355,1.5187000036239624
1705060408795432700,57.6574326171875,5.290999889373779,6.894000053405762,0.9289000034332275
1705060408855432700,57.7174326171875,2.6568000316619873,5.145400047302246,6.748299598693848
1705060408915432700,57.7774326171875,0.4706999957561493,5.25029993057251,9.107699394226074
1705060408975432700,57.8374326171875,-1.6480998992919922,7.868099689483643,5.244100093841553
1705060409035432700,57.8974326171875,-0.5960999727249146,6.399399757385254,2.6001999378204346
1705060409095432700,57.9574326171875,0.0689999982714653,0.41429999470710754,1.472000002861023
1705060409155432700,58.0174326171875,1.4387999773025513,-2.109299898147583,0.3333999812602997
1705060409215432700,58.0774326171875,2.113600015640259,0.5965999960899353,-1.9914000034332275
1705060409275432700,58.1374326171875,1.48989999294281,3.5223000049591064,-3.513899803161621
1705060409335432700,58.1974326171875,2.8299999237060547,2.8524999618530273,-5.5391998291015625
1705060409395432700,58.2574326171875,2.55079984664917,1.1757999658584595,-9.10629940032959
1705060409455432700,58.3174326171875,0.9697999954223633,-0.3560999929904938,-7.1915998458862305
1705060409515432700,58.3774326171875,-0.05329999700188637,5.526199817657471,-5.192999839782715
1705060409575432700,58.4374326171875,-1.2376999855041504,5.120699882507324,-2.4900999069213867
1705060409635432700,58.4974326171875,0.29189997911453247,1.1009999513626099,0.26159998774528503
1705060409695432700,58.5574326171875,1.7226999998092651,1.1021000146865845,2.3595998287200928
1705060409755432700,58.6174326171875,4.1407999992370605,2.7860000133514404,3.5804998874664307
1705060409815432700,58.6774326171875,4.118799686431885,4.361799716949463,4.135499954223633
1705060409875432700,58.7374326171875,3.2941999435424805,3.3339998722076416,5.623199939727783
1705060409935432700,58.7974326171875,0.4578999876976013,3.1064000129699707,7.000899791717529
1705060409995432700,58.8574326171875,-0.3852999806404114,7.03879976272583,4.665899753570557
1705060410055432700,58.9174326171875,-0.03449999913573265,9.856999397277832,2.847899913787842
1705060410115432700,58.9774326171875,0.9757999777793884,4.0903000831604,1.916700005531311
1705060410175432700,59.0374326171875,2.7465999126434326,0.4108999967575073,0.9687999486923218
1705060410235432700,59.0974326171875,4.6230998039245605,0.8768999576568604,-1.764299988746643
1705060410295432700,59.1574326171875,2.0744998455047607,3.273699998855591,-5.753499984741211
1705060410355432700,59.2174326171875,1.020900011062622,2.352299928665161,-8.310500144958496
1705060410415432700,59.2774326171875,0.8262999653816223,-0.6405999660491943,-8.677199363708496
1705060410475432700,59.3374326171875,0.349700003862381,0.38679999113082886,-9.599100112915039
1705060410535432700,59.3974326171875,0.9860999584197998,5.255499839782715,-6.171299934387207
1705060410595432700,59.4574326171875,-0.2483999878168106,7.969899654388428,-3.1447999477386475
1705060410655432700,59.5174326171875,1.0571999549865723,4.4303998947143555,-1.5755000114440918
1705060410715432700,59.5774326171875,1.6572999954223633,0.6171999573707581,1.854699969291687
1705060410775432700,59.6374326171875,4.149699687957764,1.3639999628067017,3.3437998294830322
1705060410835432700,59.6974326171875,4.9639997482299805,4.888400077819824,2.2000999450683594
1705060410895432700,59.7574326171875,4.391299724578857,7.420499801635742,4.112400054931641
1705060410955432700,59.8174326171875,1.8772999048233032,3.2072999477386475,8.98759937286377
1705060411015432700,59.8774326171875,1.6923999786376953,5.533999919891357,5.491499900817871
1705060411075432700,59.9374326171875,0.961899995803833,9.745399475097656,1.4696999788284302
1705060411135432700,59.9974326171875,2.0499000549316406,4.235499858856201,2.1431000232696533
1705060411195432700,60.0574326171875,2.0260000228881836,-0.23809999227523804,-0.031300000846385956
1705060411255432700,60.1174326171875,0.8563999533653259,-0.9750999808311462,-1.5335999727249146
1705060411315432700,60.1774326171875,-0.7559999823570251,2.5570998191833496,-4.1828999519348145
1705060411375432700,60.2374326171875,-0.16129998862743378,0.9238999485969543,-6.2866997718811035
1705060411435432700,60.2974326171875,0.6133999824523926,1.4264999628067017,-8.367400169372559
1705060411495432700,60.3574326171875,0.5946999788284302,0.31049999594688416,-8.766900062561035
1705060411555432700,60.4174326171875,1.8035999536514282,4.849899768829346,-5.853799819946289
1705060411615432700,60.4774326171875,0.8307999968528748,6.644899845123291,-3.6733999252319336
1705060411675432700,60.5374326171875,1.4463999271392822,2.3128998279571533,-0.9687999486923218
1705060411735432700,60.5974326171875,2.309999942779541,0.5931999683380127,1.8061999082565308
1705060411795432700,60.6574326171875,3.488799810409546,1.7028999328613281,3.0887999534606934
1705060411855432700,60.7174326171875,4.174499988555908,4.100599765777588,2.5592000484466553
1705060411915432700,60.7774326171875,4.338200092315674,5.839799880981445,4.453399658203125
1705060411975432700,60.8374326171875,1.2161999940872192,2.2951998710632324,8.12720012664795
1705060412035432700,60.8974326171875,0.4074999988079071,5.52079963684082,6.5152997970581055
1705060412095432700,60.9574326171875,0.9501000046730042,9.172599792480469,2.1771998405456543
1705060412155432700,61.0174326171875,1.4866999387741089,3.6915998458862305,2.5239999294281006
1705060412215432700,61.0774326171875,2.390399932861328,-0.7623999714851379,0.400299996137619
1705060412275432700,61.1374326171875,2.8778998851776123,-0.7335999608039856,-1.1691999435424805
1705060412335432700,61.1974326171875,1.4788999557495117,2.865499973297119,-2.7956998348236084
1705060412395432700,61.2574326171875,0.8649999499320984,4.3796000480651855,-3.963099956512451
1705060412455432700,61.3174326171875,1.9817999601364136,1.5475999116897583,-7.585000038146973
1705060412515432700,61.3774326171875,1.8345999717712402,0.8757999539375305,-9.070599555969238
1705060412575432700,61.4374326171875,1.4581999778747559,2.8242998123168945,-5.606800079345703
1705060412635432700,61.4974326171875,0.11819999665021896,4.575699806213379,-4.634099960327148
1705060412695432700,61.5574326171875,1.0609999895095825,2.302999973297119,-1.6256999969482422
1705060412755432700,61.6174326171875,0.02159999869763851,-1.072700023651123,0.3375999927520752
1705060412815432700,61.6774326171875,3.279599905014038,0.5906000137329102,1.3473999500274658
1705060412875432700,61.7374326171875,5.073800086975098,3.721299886703491,0.16749998927116394
1705060412935432700,61.7974326171875,4.593299865722656,7.074999809265137,0.6444000005722046
1705060412995432700,61.8574326171875,2.851599931716919,6.9791998863220215,6.173799991607666
1705060413055432700,61.9174326171875,2.2231998443603516,4.211699962615967,8.590999603271484
1705060413115432700,61.9774326171875,0.3953999876976013,6.8668999671936035,4.233699798583984
1705060413175432700,62.0374326171875,0.27649998664855957,3.165099859237671,4.736299991607666
1705060413235432700,62.0974326171875,1.4789999723434448,-0.5925999879837036,2.9042999744415283
1705060413295435800,62.15743579101562,1.3471999168395996,-1.8291000127792358,0.6230999827384949
1705060413355432700,62.2174326171875,1.587499976158142,1.5540000200271606,-1.7060999870300293
1705060413415432700,62.2774326171875,0.0478999987244606,4.8217997550964355,-3.2099997997283936
1705060413475432700,62.3374326171875,1.2445999383926392,2.699899911880493,-5.2144999504089355
1705060413535432700,62.3974326171875,2.2730000019073486,0.45979997515678406,-8.50979995727539
1705060413595432700,62.4574326171875,2.106799840927124,0.9955999851226807,-6.996899604797363
1705060413655432700,62.5174326171875,-0.1340000033378601,5.303899765014648,-4.573299884796143
1705060413715432700,62.5774326171875,0.4039999842643738,3.152400016784668,-3.421599864959717
1705060413775432700,62.6374326171875,0.45229998230934143,-0.29899999499320984,-0.033299997448921204
1705060413835432700,62.6974326171875,1.5066999197006226,-0.19370000064373016,2.009999990463257
1705060413895432700,62.7574326171875,3.4422998428344727,2.2642998695373535,2.2272000312805176
1705060413955432700,62.8174326171875,4.054500102996826,4.9228997230529785,1.5625
1705060414015432700,62.8774326171875,3.173099994659424,5.577499866485596,3.8959999084472656
1705060414075432700,62.9374326171875,0.1589999943971634,3.374199867248535,7.38129997253418
1705060414135432700,62.9974326171875,0.8764999508857727,8.390199661254883,5.124599933624268
1705060414195432700,63.0574326171875,-0.4165000021457672,6.277599811553955,5.874199867248535
1705060414255432700,63.1174326171875,0.9429000020027161,2.115799903869629,2.865999937057495
1705060414315432700,63.1774326171875,1.8983999490737915,-1.6413999795913696,1.4793999195098877
1705060414375432700,63.2374326171875,2.555999994277954,-0.9496999979019165,-0.5494999885559082
1705060414435432700,63.2974326171875,1.6261999607086182,3.162099838256836,-3.790599822998047
1705060414495432700,63.3574326171875,0.6766999959945679,2.0932998657226562,-4.8028998374938965
1705060414555432700,63.4174326171875,1.6825999021530151,1.444700002670288,-7.830499649047852
1705060414615432700,63.4774326171875,0.2574000060558319,0.36309999227523804,-9.334099769592285
1705060414675432700,63.5374326171875,0.9291999936103821,2.8975000381469727,-5.921299934387207
1705060414735432700,63.5974326171875,0.8629999756813049,4.484099864959717,-4.1793999671936035
1705060414795432700,63.6574326171875,-0.6247999668121338,4.940499782562256,-0.49879997968673706
1705060414855432700,63.7174326171875,0.9916999936103821,0.57669997215271,1.7860000133514404
1705060414915432700,63.7774326171875,3.6806998252868652,0.010799999348819256,3.70989990234375
1705060414975432700,63.8374326171875,4.3649001121521,2.09060001373291,2.1397998332977295
1705060415035432700,63.8974326171875,4.081500053405762,4.700900077819824,2.938699960708618
1705060415095432700,63.9574326171875,1.6103999614715576,5.2276997566223145,6.180599689483643
1705060415155432700,64.0174326171875,-0.07490000128746033,4.838900089263916,6.460099697113037
1705060415215432700,64.0774326171875,1.58489990234375,7.751399993896484,3.993499994277954
1705060415275432700,64.1374326171875,1.6231999397277832,6.490999698638916,2.525399923324585
1705060415335432700,64.1974326171875,1.2874000072479248,1.2067999839782715,0.9258999824523926
1705060415395432700,64.2574326171875,2.4821999073028564,-1.1022999286651611,-0.16009999811649323
1705060415455432700,64.3174326171875,2.222399950027466,1.1220999956130981,-1.2447999715805054
1705060415515432700,64.3774326171875,1.4328999519348145,2.3927998542785645,-2.9268999099731445
1705060415575432700,64.4374326171875,2.595099925994873,1.4479999542236328,-6.3506999015808105
1705060415635432700,64.4974326171875,1.1454999446868896,0.702299952507019,-7.5441999435424805
1705060415695434200,64.55743432617187,1.129499912261963,0.6369999647140503,-8.750899314880371
1705060415755432700,64.6174326171875,2.273599863052368,2.9742000102996826,-5.544399738311768
1705060415815432700,64.6774326171875,0.7805999517440796,5.958499908447266,-4.017300128936768
1705060415875432700,64.7374326171875,0.6250999569892883,3.4807000160217285,-1.5685999393463135
1705060415935432700,64.7974326171875,2.2311999797821045,0.6166999936103821,1.2365000247955322
1705060415995432700,64.8574326171875,3.6146998405456543,1.2387999296188354,2.503999948501587
1705060416055432700,64.9174326171875,4.0416998863220215,3.6648998260498047,2.1263999938964844
1705060416115432700,64.9774326171875,4.039999961853027,6.137499809265137,2.7330000400543213
1705060416175432700,65.0374326171875,1.3715999126434326,3.2625999450683594,8.190099716186523
1705060416235432700,65.0974326171875,0.8755999803543091,4.699199676513672,7.3069000244140625
1705060416295432700,65.1574326171875,-0.041099999099969864,9.64109992980957,3.1238999366760254
1705060416355432700,65.2174326171875,0.4197999835014343,4.950200080871582,2.2726998329162598
1705060416415432700,65.2774326171875,1.004699945449829,-0.7684999704360962,0.27469998598098755
1705060416475432700,65.3374326171875,2.1842000484466553,-1.9129999876022339,-0.3677999973297119
1705060416535432700,65.3974326171875,0.9747999906539917,1.8465999364852905,-3.8618998527526855
1705060416595432700,65.4574326171875,-0.3568999767303467,2.1231000423431396,-5.794099807739258
1705060416655432700,65.5174326171875,0.8468999862670898,2.305799961090088,-7.445499897003174
1705060416715432700,65.5774326171875,1.9267998933792114,0.5891000032424927,-9.6141996383667
1705060416775432700,65.6374326171875,2.155099868774414,3.5983998775482178,-5.5289998054504395
1705060416835432700,65.6974326171875,0.7196999788284302,6.199100017547607,-3.1977999210357666
1705060416895432700,65.7574326171875,0.6319999694824219,3.9238998889923096,-1.7453999519348145
1705060416955432700,65.8174326171875,1.0996999740600586,-0.05169999971985817,1.7222999334335327
1705060417015432700,65.8774326171875,2.531399965286255,-0.023399999365210533,4.061399936676025
1705060417075432700,65.9374326171875,3.688199996948242,2.8743999004364014,2.4226999282836914
1705060417135432700,65.9974326171875,4.6367998123168945,5.705999851226807,1.330199956893921
1705060417195432700,66.0574326171875,0.7497000098228455,3.6450998783111572,6.744899749755859
1705060417255432700,66.1174326171875,0.2184000015258789,3.98009991645813,7.081599712371826
1705060417315432700,66.1774326171875,0.31610000133514404,10.564499855041504,3.9345998764038086
1705060417375432700,66.2374326171875,0.5636000037193298,5.773599624633789,3.3720998764038086
1705060417435432700,66.2974326171875,2.0283000469207764,1.6327999830245972,1.3989999294281006
1705060417495432700,66.3574326171875,3.1536998748779297,-1.180299997329712,0.557200014591217
1705060417555432700,66.4174326171875,3.5595998764038086,-0.1525999903678894,-1.7235000133514404
1705060417615432700,66.4774326171875,2.8488998413085938,2.5427000522613525,-3.625
1705060417675432700,66.5374326171875,3.472899913787842,3.5583999156951904,-5.70419979095459
1705060417735432700,66.5974326171875,3.216099977493286,1.6638998985290527,-9.229000091552734
1705060417795432700,66.6574326171875,0.6488999724388123,-0.6905999779701233,-10.50469970703125
1705060417855432700,66.7174326171875,0.715499997138977,6.503599643707275,-6.811899662017822
1705060417915432700,66.7774326171875,-0.3346000015735626,8.657699584960938,-4.713099956512451
1705060417975432700,66.8374326171875,-0.01860000006854534,4.148200035095215,-0.3612000048160553
1705060418035432700,66.8974326171875,1.368299961090088,1.8148999214172363,2.6368000507354736
1705060418095432700,66.9574326171875,3.763199806213379,2.5214998722076416,3.7032999992370605
1705060418155432700,67.0174326171875,5.117599964141846,6.0100998878479,2.5419998168945312
1705060418215432700,67.0774326171875,4.497900009155273,5.466599941253662,4.951299667358398
1705060418275432700,67.1374326171875,1.9642999172210693,4.706899642944336,9.01669979095459
1705060418335432700,67.1974326171875,-1.4711999893188477,8.383600234985352,6.684000015258789
1705060418395432700,67.2574326171875,-0.3249000012874603,9.370200157165527,2.2238998413085938
1705060418455432700,67.3174326171875,1.1110999584197998,3.889899969100952,1.6511999368667603
1705060418515432700,67.3774326171875,1.9666999578475952,-0.614300012588501,0.5137999653816223
1705060418575432700,67.4374326171875,2.338599920272827,1.021299958229065,-0.3756999969482422
1705060418635432700,67.4974326171875,-0.06839999556541443,4.49370002746582,-2.0307998657226562
1705060418695432700,67.5574326171875,1.228600025177002,1.8300999402999878,-6.8902997970581055
1705060418755432700,67.6174326171875,0.4528999924659729,1.4296000003814697,-10.683799743652344
1705060418815432700,67.6774326171875,1.049299955368042,0.42069998383522034,-8.835999488830566
1705060418875432700,67.7374326171875,2.8300998210906982,5.956399917602539,-6.488199710845947
1705060418935432700,67.7974326171875,0.9774999618530273,7.765100002288818,-3.744499921798706
1705060418995432700,67.8574326171875,1.0152000188827515,3.4480998516082764,-0.46480000019073486
1705060419055432700,67.9174326171875,2.3738999366760254,0.38769999146461487,2.8940999507904053
1705060419115432700,67.9774326171875,3.113499879837036,1.3752999305725098,3.1960999965667725
1705060419175432700,68.0374326171875,3.1151998043060303,4.149799823760986,2.315000057220459
1705060419235432700,68.0974326171875,3.758999824523926,4.516599655151367,2.864799976348877
1705060419295432700,68.1574326171875,1.4674999713897705,3.820499897003174,7.289599895477295
1705060419355432700,68.2174326171875,0.9289000034332275,6.208699703216553,6.730999946594238
1705060419415432700,68.2774326171875,1.8636999130249023,10.904199600219727,1.3119999170303345
1705060419475432700,68.3374326171875,0.6292999982833862,5.2388997077941895,2.323699951171875
1705060419535432700,68.3974326171875,1.1912000179290771,-0.02589999884366989,0.5486999750137329
1705060419595432700,68.4574326171875,3.045599937438965,-1.5372999906539917,-0.07090000063180923
1705060419655432700,68.5174326171875,1.8208999633789062,2.194999933242798,-2.596400022506714
1705060419715432700,68.5774326171875,1.5745999813079834,3.9289000034332275,-4.3715996742248535
1705060419775432700,68.6374326171875,2.184799909591675,1.7482999563217163,-7.313299655914307
1705060419835432700,68.6974326171875,1.598099946975708,0.8424999713897705,-9.775799751281738
1705060419895432700,68.7574326171875,1.8198999166488647,0.952299952507019,-6.4178996086120605
1705060419955432700,68.8174326171875,0.5935999751091003,6.067299842834473,-4.666599750518799
1705060420015432700,68.8774326171875,0.4131999909877777,4.867499828338623,-3.1459999084472656
1705060420075432700,68.9374326171875,1.3483999967575073,1.7050999402999878,-0.05689999833703041
1705060420135432700,68.9974326171875,2.792799949645996,1.1053999662399292,3.3111000061035156
1705060420195432700,69.0574326171875,3.822699785232544,3.1338999271392822,2.972899913787842
1705060420255432700,69.1174326171875,4.218999862670898,5.454899787902832,2.557999849319458
1705060420315432700,69.1774326171875,2.5341999530792236,2.511699914932251,4.153500080108643
1705060420375432700,69.2374326171875,-1.2872999906539917,3.1410999298095703,5.5817999839782715
1705060420435432700,69.2974326171875,-2.849299907684326,9.673600196838379,9.381499290466309
1705060420495432700,69.3574326171875,-1.1710000038146973,8.45580005645752,5.530600070953369
1705060420555432700,69.4174326171875,1.4656999111175537,2.3827998638153076,1.7847999334335327
1705060420615432700,69.4774326171875,2.5817999839782715,-0.07669999450445175,0.6097999811172485
1705060420675432700,69.5374326171875,3.275899887084961,-0.6478999853134155,-0.05429999902844429
1705060420735432700,69.5974326171875,3.016899824142456,3.7797999382019043,-0.9043999910354614
1705060420795432700,69.6574326171875,1.1299999952316284,4.1691999435424805,-4.3069000244140625
1705060420855432700,69.7174326171875,1.4085999727249146,0.8859999775886536,-8.093899726867676
1705060420915432700,69.7774326171875,1.46999990940094,0.7116999626159668,-8.928099632263184
1705060420975432700,69.8374326171875,1.0778999328613281,2.990799903869629,-5.506399631500244
1705060421035432700,69.8974326171875,0.2021999955177307,4.673699855804443,-4.933099746704102
1705060421095432700,69.9574326171875,0.9329999685287476,4.117700099945068,-1.4789999723434448
1705060421155432700,70.0174326171875,1.6093999147415161,0.5529999732971191,1.0236999988555908
1705060421215432700,70.0774326171875,3.733099937438965,0.3570999801158905,1.6661999225616455
1705060421275432700,70.1374326171875,4.065899848937988,2.882699966430664,2.0813000202178955
1705060421335432700,70.1974326171875,4.006999969482422,7.565299987792969,2.926299810409546
1705060421395432700,70.2574326171875,1.2100999355316162,4.299299716949463,7.6977996826171875
1705060421455432700,70.3174326171875,1.2418999671936035,5.173299789428711,7.480999946594238
1705060421515432700,70.3774326171875,0.6615999937057495,9.744099617004395,3.892399787902832
1705060421575432700,70.4374326171875,1.4972999095916748,4.327600002288818,3.974799871444702
1705060421635432700,70.4974326171875,2.0980000495910645,-0.5351999998092651,1.1782000064849854
1705060421695432700,70.5574326171875,1.1977999210357666,-2.125,-0.5690999627113342
1705060421755432700,70.6174326171875,1.921799898147583,1.6606999635696411,-1.9854999780654907
1705060421815432700,70.6774326171875,-1.0525000095367432,2.9169998168945312,-6.81879997253418
1705060421875432700,70.7374326171875,-0.18230000138282776,3.009399890899658,-6.239500045776367
1705060421935432700,70.7974326171875,3.2214999198913574,0.39010000228881836,-8.432000160217285
1705060421995432700,70.8574326171875,2.05679988861084,1.611899971961975,-6.901899814605713
1705060422055432700,70.9174326171875,0.6377999782562256,6.912499904632568,-4.007400035858154
1705060422115432700,70.9774326171875,0.7595999836921692,6.2602996826171875,-1.7108999490737915
1705060422175432700,71.0374326171875,1.7666999101638794,0.18689998984336853,1.2340999841690063
1705060422235432700,71.0974326171875,2.8001999855041504,-0.6890000104904175,3.5722999572753906
1705060422295432700,71.1574326171875,4.393599987030029,1.5978000164031982,2.906599998474121
1705060422355432700,71.2174326171875,4.895999908447266,3.9754998683929443,2.5634000301361084
1705060422415432700,71.2774326171875,3.049499988555908,4.650300025939941,5.973700046539307
1705060422475432700,71.3374326171875,-0.8538999557495117,5.9054999351501465,9.06779956817627
1705060422535432700,71.3974326171875,-0.12520000338554382,7.265100002288818,5.3491997718811035
1705060422595432700,71.4574326171875,-0.05379999801516533,8.593899726867676,3.6999998092651367
1705060422655432700,71.5174326171875,0.32679998874664307,2.85509991645813,1.4498999118804932
1705060422715432700,71.5774326171875,1.906599998474121,-0.707099974155426,-0.15070000290870667
1705060422775432700,71.6374326171875,2.938499927520752,0.5586000084877014,-1.966499924659729
1705060422835432700,71.6974326171875,2.1713998317718506,1.9325000047683716,-4.304500102996826
1705060422895432700,71.7574326171875,3.410799980163574,1.6957999467849731,-6.776599884033203
1705060422955432700,71.8174326171875,2.6805999279022217,2.310499906539917,-8.320499420166016
1705060423015432700,71.8774326171875,1.5959999561309814,0.23009999096393585,-9.486899375915527
1705060423075432700,71.9374326171875,1.626599907875061,5.375499725341797,-4.453399658203125
1705060423135432700,71.9974326171875,0.262800008058548,6.384799957275391,-3.2101998329162598
1705060423195432700,72.0574326171875,0.2019999921321869,1.2282999753952026,0.4342999756336212
1705060423255432700,72.1174326171875,2.360499858856201,0.2442999929189682,2.3451998233795166
1705060423315432700,72.1774326171875,4.154699802398682,2.2339999675750732,2.4428999423980713
1705060423375432700,72.2374326171875,4.968299865722656,4.897299766540527,1.9738999605178833
1705060423435432700,72.2974326171875,4.473400115966797,5.667599678039551,3.413599967956543
1705060423495432700,72.3574326171875,1.8930999040603638,6.235899925231934,5.98199987411499
1705060423555432700,72.4174326171875,0.3075000047683716,8.78279972076416,7.8267998695373535
1705060423615432700,72.4774326171875,1.7578999996185303,7.002799987792969,2.6928000450134277
1705060423675432700,72.5374326171875,1.9460999965667725,0.042899999767541885,2.948699951171875
1705060423735432700,72.5974326171875,0.8070999979972839,-2.807999849319458,1.4887999296188354
1705060423795432700,72.6574326171875,1.4733999967575073,-1.6941999197006226,0.3527999818325043
1705060423855432700,72.7174326171875,1.048799991607666,2.4205000400543213,-1.785499930381775
1705060423915432700,72.7774326171875,0.28759998083114624,5.263599872589111,-3.9560999870300293
1705060423975432700,72.8374326171875,1.847999930381775,2.297799825668335,-5.531399726867676
1705060424035432700,72.8974326171875,2.8824000358581543,0.8447999954223633,-9.627299308776855
1705060424095432700,72.9574326171875,1.9838999509811401,5.299099922180176,-4.92140007019043
1705060424155432700,73.0174326171875,1.2685999870300293,4.339900016784668,-4.638899803161621
1705060424215432700,73.0774326171875,0.9706999659538269,-0.08269999921321869,-1.0710999965667725
1705060424275432700,73.1374326171875,1.7386000156402588,-2.071500062942505,1.4786999225616455
1705060424335432700,73.1974326171875,3.330899953842163,0.0803999975323677,1.7072999477386475
1705060424395432700,73.2574326171875,4.06879997253418,3.6888999938964844,1.5561999082565308
1705060424455432700,73.3174326171875,3.973299980163574,6.894199848175049,1.5680999755859375
1705060424515432700,73.3774326171875,0.8736000061035156,6.831299781799316,8.268899917602539
1705060424575432700,73.4374326171875,-0.005499999970197678,6.189699649810791,8.611100196838379
1705060424635432700,73.4974326171875,-0.40230000019073486,8.038999557495117,3.376699924468994
1705060424695432700,73.5574326171875,0.6225999593734741,1.9318000078201294,3.285799980163574
1705060424755432700,73.6174326171875,2.13100004196167,-2.0160000324249268,1.427799940109253
1705060424815432700,73.6774326171875,2.735499858856201,-1.24809992313385,-0.7185999751091003
1705060424875432700,73.7374326171875,2.6033999919891357,2.534600019454956,-2.8485000133514404
1705060424935432700,73.7974326171875,1.3033000230789185,4.246500015258789,-6.348799705505371
1705060424995432700,73.8574326171875,2.3380000591278076,2.1661999225616455,-7.516499996185303
1705060425055432700,73.9174326171875,1.448199987411499,1.9727998971939087,-9.688899993896484
1705060425115432700,73.9774326171875,0.6658999919891357,3.905399799346924,-5.397599697113037
1705060425175432700,74.0374326171875,-0.29789999127388,5.946399688720703,-2.7372000217437744
1705060425235432700,74.0974326171875,0.5080000162124634,3.5016000270843506,-1.88919997215271
1705060425295432700,74.1574326171875,1.8269000053405762,1.025399923324585,0.9810999631881714
1705060425355432700,74.2174326171875,3.869999885559082,1.6411999464035034,3.9285998344421387
1705060425415432700,74.2774326171875,4.463099956512451,3.434299945831299,4.121699810028076
1705060425475432700,74.3374326171875,4.251800060272217,5.175099849700928,4.303199768066406
1705060425535432700,74.3974326171875,2.413800001144409,2.5427000522613525,6.566199779510498
1705060425595432700,74.4574326171875,-1.3234999179840088,5.311299800872803,7.367099761962891
1705060425655432700,74.5174326171875,0.41110000014305115,14.291799545288086,0.7800999879837036
1705060425715432700,74.5774326171875,1.3686000108718872,7.602299690246582,2.7888998985290527
1705060425775432700,74.6374326171875,1.3365999460220337,1.782099962234497,0.448199987411499
1705060425835432700,74.6974326171875,2.5521998405456543,0.7795000076293945,-0.8907999992370605
1705060425895432700,74.7574326171875,2.9217000007629395,2.7363998889923096,-3.138000011444092
1705060425955432700,74.8174326171875,4.08519983291626,1.905900001525879,-5.163599967956543
1705060426015432700,74.8774326171875,4.405099868774414,1.9882999658584595,-9.240799903869629
1705060426075432700,74.9374326171875,1.8472999334335327,1.249400019645691,-9.200499534606934
1705060426135432700,74.9974326171875,2.0931999683380127,1.57669997215271,-8.445199966430664
1705060426195432700,75.0574326171875,-0.616100013256073,7.2216997146606445,-4.178699970245361
1705060426255432700,75.1174326171875,-0.5153999924659729,6.9019999504089355,-3.6039998531341553
1705060426315432700,75.1774326171875,0.6894999742507935,3.5750999450683594,0.2676999866962433
1705060426375432700,75.2374326171875,3.856099843978882,2.4693000316619873,2.6564998626708984
1705060426435432700,75.2974326171875,5.47029972076416,4.365799903869629,2.108799934387207
1705060426495432700,75.3574326171875,5.81879997253418,6.703799724578857,2.59879994392395
1705060426555432700,75.4174326171875,4.453999996185303,4.789899826049805,7.6280999183654785
1705060426615432700,75.4774326171875,1.2529000043869019,7.844899654388428,9.206500053405762
1705060426675432700,75.5374326171875,0.5812000036239624,9.097599983215332,4.383899688720703
1705060426735432700,75.5974326171875,1.583299994468689,8.469999313354492,1.834399938583374
1705060426795432700,75.6574326171875,1.970099925994873,2.6950998306274414,1.611899971961975
1705060426855432700,75.7174326171875,0.4513999819755554,-0.46869999170303345,0.0762999951839447
1705060426915432700,75.7774326171875,2.902099847793579,1.1180000305175781,0.04569999873638153
1705060426975432700,75.8374326171875,1.190999984741211,5.254299640655518,-3.9024999141693115
1705060427035432700,75.8974326171875,-1.8780999183654785,3.7812998294830322,-7.5665998458862305
1705060427095432700,75.9574326171875,-0.21559999883174896,0.16679999232292175,-9.086400032043457
1705060427155432700,76.0174326171875,-0.3482999801635742,0.4018999934196472,-8.348999977111816
1705060427215432700,76.0774326171875,0.02279999852180481,4.438199996948242,-5.97029972076416
1705060427275432700,76.1374326171875,-0.6383000016212463,4.853600025177002,-3.690999984741211
1705060427335432700,76.1974326171875,0.4584999978542328,2.3065998554229736,-0.6037999987602234
1705060427395432700,76.2574326171875,2.932499885559082,0.334199994802475,1.4452999830245972
1705060427455432700,76.3174326171875,5.338500022888184,1.3525999784469604,2.0815000534057617
1705060427515432700,76.3774326171875,5.286399841308594,4.320099830627441,1.4768999814987183
1705060427575432700,76.4374326171875,4.464200019836426,5.440000057220459,2.8494999408721924
1705060427635432700,76.4974326171875,2.89739990234375,6.255899906158447,6.246999740600586
1705060427695432700,76.5574326171875,1.424399971961975,6.444200038909912,5.479000091552734
1705060427755432700,76.6174326171875,1.0501999855041504,8.221699714660645,3.1497998237609863
1705060427815432700,76.6774326171875,1.6607999801635742,2.479300022125244,3.059000015258789
1705060427875432700,76.7374326171875,1.2207000255584717,-1.6549999713897705,0.9400999546051025
