time,seconds_elapsed,z,y,x
1702766383700693500,0.058693603515625,0.025299999862909317,-0.5622999668121338,0.046799998730421066
1702766383760692000,0.11869189453125,-0.1922999918460846,0.16300000250339508,0.24639999866485596
1702766383820692000,0.17869189453125,0.009499999694526196,0.31189998984336853,-0.22529999911785126
1702766383880692000,0.23869189453125,0.5454999804496765,-0.061799999326467514,0.022199999541044235
1702766383940692000,0.29869189453125,0.13989999890327454,-0.07479999959468842,0.4359999895095825
1702766384000692000,0.35869189453125,0.039799999445676804,-0.17319999635219574,-0.019299998879432678
1702766384060692000,0.41869189453125,0.12999999523162842,-0.5049999952316284,0.4348999857902527
1702766384120692000,0.47869189453125,-0.204599991440773,-0.5191999673843384,0.00989999994635582
1702766384180692000,0.53869189453125,0.45080000162124634,-0.27390000224113464,-0.06749999523162842
1702766384240692000,0.59869189453125,-0.30469998717308044,0.16769999265670776,-0.17149999737739563
1702766384300692000,0.65869189453125,-0.23179998993873596,-0.08500000089406967,-0.3303999900817871
1702766384360692000,0.71869189453125,-1.319599986076355,-0.2565000057220459,0.07970000058412552
1702766384420692000,0.77869189453125,0.32420000433921814,1.11489999294281,0.9718999862670898
1702766384480692000,0.83869189453125,-2.563499927520752,-0.05909999832510948,-0.18569999933242798
1702766384540720000,0.89872021484375,0.17639999091625214,0.6570000052452087,1.538100004196167
1702766384600692000,0.95869189453125,-2.8427999019622803,-0.4569000005722046,3.8208999633789062
1702766384660692000,1.01869189453125,-0.8956999778747559,-0.6589999794960022,-5.970099925994873
1702766384720692000,1.07869189453125,0.6340000033378601,0.49779999256134033,-0.5363999605178833
1702766384780692000,1.13869189453125,-0.15119999647140503,-0.5503999590873718,-0.1143999993801117
1702766384840692000,1.19869189453125,-0.870199978351593,-0.22869999706745148,0.3974999785423279
1702766384900693500,1.258693603515625,0.7105000019073486,0.0908999964594841,0.6602999567985535
1702766384960692000,1.31869189453125,-0.23359999060630798,-0.40369999408721924,0.6814000010490417
1702766385020692000,1.37869189453125,0.23749999701976776,0.3164999783039093,1.4484999179840088
1702766385080692000,1.43869189453125,-0.03229999914765358,0.23359999060630798,1.0792999267578125
1702766385140692000,1.49869189453125,0.241799995303154,-0.234499990940094,1.0124999284744263
1702766385200692000,1.55869189453125,0.4309999942779541,0.21379999816417694,1.0983999967575073
1702766385260692000,1.61869189453125,-0.5015000104904175,0.16990000009536743,1.1898000240325928
1702766385320692000,1.67869189453125,-1.0861999988555908,0.7033999562263489,1.017799973487854
1702766385380692000,1.73869189453125,0.25049999356269836,0.3587999939918518,-1.0282000303268433
1702766385440692000,1.79869189453125,-1.3336999416351318,-0.835599958896637,-2.581399917602539
1702766385500692000,1.85869189453125,-0.21689999103546143,0.01529999915510416,-0.29109999537467957
1702766385560692000,1.91869189453125,-0.6841999888420105,0.31849998235702515,-0.9506999850273132
1702766385620692000,1.97869189453125,-0.17419999837875366,-0.2985000014305115,-0.946399986743927
1702766385680692000,2.03869189453125,0.46859997510910034,-0.6697999835014343,0.2458999902009964
1702766385740692000,2.09869189453125,-0.6549999713897705,-0.5284000039100647,0.08460000157356262
1702766385800692000,2.15869189453125,0.673799991607666,0.037299998104572296,1.025499939918518
1702766385860692000,2.21869189453125,0.22769999504089355,0.2802000045776367,2.892199993133545
1702766385920692000,2.27869189453125,0.1354999989271164,0.017999999225139618,-0.1891999989748001
1702766385980692000,2.33869189453125,0.028299998492002487,0.04999999701976776,0.15969999134540558
1702766386040692000,2.39869189453125,-0.585599958896637,0.28329998254776,-0.06689999997615814
1702766386100692000,2.45869189453125,0.09519999474287033,0.6744999885559082,0.9055999517440796
1702766386160692000,2.51869189453125,0.15459999442100525,0.4323999881744385,1.0356999635696411
1702766386220692000,2.57869189453125,-0.7224999666213989,0.09539999812841415,2.4375
1702766386280692000,2.63869189453125,-2.013700008392334,0.6049999594688416,0.986799955368042
1702766386340692000,2.69869189453125,-4.533499717712402,0.1533999890089035,-5.813799858093262
1702766386400692000,2.75869189453125,-0.9409999847412109,-0.03959999978542328,-0.30570000410079956
1702766386460692000,2.81869189453125,0.14319999516010284,-0.10830000042915344,-0.11099999397993088
1702766386520692000,2.87869189453125,1.4372999668121338,-0.07829999923706055,0.5679000020027161
1702766386580692000,2.93869189453125,0.34619998931884766,-0.7157999873161316,0.0892999991774559
1702766386640720100,2.99872021484375,-0.0510999970138073,-0.5631999969482422,0.45170000195503235
1702766386700692000,3.05869189453125,0.18230000138282776,-0.3837999999523163,0.45179998874664307
1702766386760692000,3.11869189453125,-0.18850000202655792,-0.10859999805688858,0.41029998660087585
1702766386820692000,3.17869189453125,-0.14399999380111694,-0.1850999891757965,0.020499998703598976
1702766386880692000,3.23869189453125,-0.606499969959259,-0.0867999941110611,0.00969999935477972
1702766386940692000,3.29869189453125,-0.1232999935746193,0.3409000039100647,0.4478999972343445
1702766387000692000,3.35869189453125,-0.18979999423027039,0.5602999925613403,0.8561999797821045
1702766387060692000,3.41869189453125,0.3008999824523926,0.5375999808311462,1.967099905014038
1702766387120692000,3.47869189453125,-0.1348000019788742,0.7605999708175659,2.3701000213623047
1702766387180692000,3.53869189453125,-0.6308000087738037,0.6870999932289124,2.4186999797821045
1702766387240692000,3.59869189453125,-0.9009000062942505,1.4020999670028687,0.037699997425079346
1702766387300692000,3.65869189453125,-4.61299991607666,-0.273499995470047,-9.997099876403809
1702766387360692000,3.71869189453125,0.23469999432563782,-0.9932000041007996,0.8448999524116516
1702766387420692000,3.77869189453125,0.08399999886751175,-0.4819999933242798,0.39239999651908875
1702766387480692000,3.83869189453125,0.9185000061988831,0.39980000257492065,0.5949999690055847
1702766387540692000,3.89869189453125,-0.22739998996257782,-0.34880000352859497,0.1006999984383583
1702766387600692000,3.95869189453125,-0.9103999733924866,-0.3985999822616577,0.12309999763965607
1702766387660692000,4.01869189453125,1.4091999530792236,-0.017999999225139618,0.11769999563694
1702766387720692000,4.07869189453125,-0.007799999788403511,-0.09059999883174896,2.1440999507904053
1702766387780692000,4.13869189453125,0.2636999785900116,-0.33469998836517334,0.4852999746799469
1702766387840692000,4.19869189453125,0.094200000166893,-0.0867999941110611,1.2253999710083008
1702766387900692000,4.25869189453125,0.11819999665021896,0.22259999811649323,1.0226999521255493
1702766387960692000,4.31869189453125,-0.3874000012874603,0.8139999508857727,0.6111999750137329
1702766388020692000,4.37869189453125,-2.0027999877929688,0.8430999517440796,0.49229997396469116
1702766388080692000,4.43869189453125,-0.633899986743927,0.9266999959945679,0.1274999976158142
1702766388140692000,4.49869189453125,-2.450500011444092,-0.2827000021934509,-1.3550999164581299
1702766388200692000,4.55869189453125,-0.6739000082015991,-0.40299999713897705,-1.2681999206542969
1702766388260692000,4.61869189453125,-0.7768999934196472,0.343999981880188,-0.33709999918937683
1702766388320692000,4.67869189453125,-3.126199960708618,0.2565000057220459,-2.204699993133545
1702766388380692000,4.73869189453125,-0.6668999791145325,0.7908999919891357,-0.3211999833583832
1702766388440692000,4.79869189453125,2.5456998348236084,-0.5819000005722046,2.2323999404907227
1702766388500692000,4.85869189453125,1.5792999267578125,-1.2079999446868896,0.8126999735832214
1702766388560692000,4.91869189453125,0.06239999830722809,-1.083799958229065,1.6200999021530151
1702766388620692000,4.97869189453125,0.334199994802475,-0.7310000061988831,1.420799970626831
1702766388680692000,5.03869189453125,0.21050000190734863,0.6050999760627747,0.8490999937057495
1702766388740720000,5.09872021484375,-0.10399999469518661,0.04490000009536743,-0.07589999586343765
1702766388800692000,5.15869189453125,-0.2199999988079071,0.06019999831914902,0.44269999861717224
1702766388860692000,5.21869189453125,0.5884000062942505,0.6584999561309814,1.3075000047683716
1702766388920692000,5.27869189453125,-0.2724999785423279,1.1917999982833862,0.2158999890089035
1702766388980692000,5.33869189453125,-3.1087000370025635,0.8517000079154968,-0.7563999891281128
1702766389040692000,5.39869189453125,-0.40939998626708984,1.3722999095916748,-1.0891000032424927
1702766389100692000,5.45869189453125,-0.7646999955177307,-0.25130000710487366,-0.49859997630119324
1702766389160692000,5.51869189453125,-0.3798999786376953,-0.30379998683929443,-0.39100000262260437
1702766389220692000,5.57869189453125,-0.2985000014305115,-0.2692999839782715,-0.8460999727249146
1702766389280692000,5.63869189453125,1.0776000022888184,-0.9770999550819397,-0.6970999836921692
1702766389340692000,5.69869189453125,0.5483999848365784,-1.674899935722351,-0.4799000024795532
1702766389400692000,5.75869189453125,0.6819999814033508,-1.01419997215271,0.7788999676704407
1702766389460692000,5.81869189453125,0.3367999792098999,-0.010099999606609344,0.9214999675750732
1702766389520692000,5.87869189453125,-0.011599999852478504,0.21389999985694885,2.035599946975708
1702766389580692000,5.93869189453125,0.41259998083114624,0.3012000024318695,0.14810000360012054
1702766389640692000,5.99869189453125,-0.22869999706745148,0.19089999794960022,0.5770999789237976
1702766389700692000,6.05869189453125,0.34919998049736023,0.49570000171661377,0.362199991941452
1702766389760692000,6.11869189453125,-0.6647999882698059,0.4828999936580658,0.5625
1702766389820692000,6.17869189453125,-1.2252999544143677,0.7372999787330627,1.0151000022888184
1702766389880692000,6.23869189453125,-0.44909998774528503,1.14329993724823,-0.12239999324083328
1702766389940692000,6.29869189453125,-2.512199878692627,0.8811999559402466,-1.7846999168395996
1702766390000692000,6.35869189453125,-0.3089999854564667,0.4148999750614166,0.00029999998514540493
1702766390060692000,6.41869189453125,-0.21660000085830688,-0.1777999997138977,-0.713699996471405
1702766390120692000,6.47869189453125,-0.003599999938160181,-0.8775999546051025,-3.1884000301361084
1702766390180692000,6.53869189453125,-0.7680000066757202,-1.1825000047683716,-1.3543000221252441
1702766390240692000,6.59869189453125,0.21359999477863312,-1.0710999965667725,2.2139999866485596
1702766390300692000,6.65869189453125,1.3402999639511108,0.0494999997317791,1.4413999319076538
1702766390360692000,6.71869189453125,0.29330000281333923,0.8162999749183655,2.121500015258789
1702766390420692000,6.77869189453125,-0.17599999904632568,0.23839999735355377,-0.048899997025728226
1702766390480692000,6.83869189453125,-0.717799961566925,0.2328999936580658,-0.14869999885559082
1702766390540692000,6.89869189453125,-0.14270000159740448,0.013299999758601189,-0.21649999916553497
1702766390600692000,6.95869189453125,-0.3418000042438507,-0.1006999984383583,0.04360000044107437
1702766390660692000,7.01869189453125,-0.09669999778270721,-0.12539999186992645,0.22010000050067902
1702766390720692000,7.07869189453125,-0.2784000039100647,-0.06079999729990959,0.21310000121593475
1702766390780692000,7.13869189453125,-0.2483999878168106,-0.07029999792575836,0.07019999623298645
1702766390840720100,7.19872021484375,0.305899977684021,0.03969999775290489,-0.03949999809265137
1702766390900692000,7.25869189453125,0.010999999940395355,-0.1816999912261963,0.017799999564886093
1702766390960692000,7.31869189453125,-0.2272999882698059,0.17790000140666962,-0.35429999232292175
1702766391020692000,7.37869189453125,0.06300000101327896,0.1727999895811081,0.18679998815059662
1702766391080692000,7.43869189453125,-0.20559999346733093,0.14549998939037323,0.23439998924732208
1702766391140692000,7.49869189453125,-0.3010999858379364,0.287200003862381,0.004699999932199717
1702766391200692000,7.55869189453125,-0.12309999763965607,0.09179999679327011,0.2606000006198883
1702766391260692000,7.61869189453125,-0.4139999747276306,-0.33980000019073486,0.2019999921321869
1702766391320692000,7.67869189453125,-0.2954999804496765,-0.5127999782562256,0.47279998660087585
1702766391380692000,7.73869189453125,-0.25270000100135803,-1.1509000062942505,0.48330000042915344
1702766391440692000,7.79869189453125,0.06809999793767929,-0.2669000029563904,-0.27799999713897705
1702766391500692000,7.85869189453125,0.22579999268054962,-0.02419999986886978,-0.5277000069618225
1702766391560692000,7.91869189453125,0.53329998254776,-0.15129999816417694,-0.010499999858438969
1702766391620692000,7.97869189453125,0.14579999446868896,0.033799998462200165,0.32850000262260437
1702766391680692000,8.03869189453125,0.18809999525547028,0.20189999043941498,-0.14249999821186066
1702766391740692000,8.09869189453125,0.052299998700618744,0.8356999754905701,-0.17579999566078186
1702766391800692000,8.15869189453125,0.015399999916553497,-0.4294999837875366,-0.5220000147819519
1702766391860692000,8.21869189453125,0.06889999657869339,-0.48009997606277466,0.49959999322891235
1702766391920692000,8.27869189453125,-0.19609999656677246,-0.12520000338554382,-0.13239999115467072
1702766391980692000,8.33869189453125,-0.48240000009536743,-0.09200000017881393,0.20319999754428864
1702766392040692000,8.39869189453125,-0.4274999797344208,0.028099998831748962,0.3287000060081482
1702766392100692000,8.45869189453125,0.004900000058114529,0.24719999730587006,0.30140000581741333
1702766392160692000,8.51869189453125,-0.15330000221729279,-0.10689999908208847,0.13699999451637268
1702766392220692000,8.57869189453125,-0.17109999060630798,-0.0037999998312443495,-0.04639999940991402
1702766392280692000,8.63869189453125,-0.21209999918937683,0.05469999834895134,-0.12960000336170197
1702766392340692000,8.69869189453125,-0.15219999849796295,-0.11620000004768372,0.05829999968409538
1702766392400692000,8.75869189453125,-0.16569998860359192,-0.16669999063014984,0.003700000001117587
