time,seconds_elapsed,z,y,x
1702691870287155700,0.04515576171875,0.03619999811053276,-0.1410999894142151,-0.17729999125003815
1702691870347154200,0.105154296875,-0.05639999732375145,0.0421999990940094,0.11319999396800995
1702691870407154200,0.165154296875,0.03689999878406525,0.05429999902844429,0.1655000001192093
1702691870467154200,0.225154296875,0.05389999970793724,0.022199999541044235,0.22699999809265137
1702691870527154200,0.285154296875,0.056299999356269836,-0.05920000001788139,0.03680000081658363
1702691870587154200,0.345154296875,-0.18569999933242798,-0.09059999883174896,-0.09279999881982803
1702691870647154200,0.405154296875,-0.04429999738931656,-0.17270000278949738,-0.09539999812841415
1702691870707219700,0.4652197265625,-0.07509999722242355,0.016099998727440834,-0.09239999949932098
1702691870767154200,0.525154296875,-0.24719999730587006,0.11149999499320984,-0.08619999885559082
1702691870827154200,0.585154296875,-0.056299999356269836,0.32600000500679016,0.0729999989271164
1702691870887154200,0.645154296875,-0.0754999965429306,0.18230000138282776,0.13759998977184296
1702691870947154200,0.705154296875,-0.15760000050067902,-0.03749999776482582,0.025699999183416367
1702691871007154200,0.765154296875,-0.3375000059604645,-0.17960000038146973,0.10909999907016754
1702691871067154200,0.825154296875,-0.32029998302459717,-0.11389999836683273,0.0778999999165535
1702691871127154200,0.885154296875,-0.04429999738931656,0.045499999076128006,-0.010300000198185444
1702691871187154200,0.945154296875,0.10369999706745148,0.1833999902009964,0.13859999179840088
1702691871247154200,1.005154296875,-0.32829999923706055,0.21899999678134918,-0.044599998742341995
1702691871307154200,1.065154296875,-0.18719999492168427,0.0625,-0.27539998292922974
1702691871367154200,1.125154296875,0.17479999363422394,-0.590499997138977,0.3840999901294708
1702691871427154200,1.185154296875,1.5943999290466309,-0.15719999372959137,1.744499921798706
1702691871487154200,1.245154296875,0.5099999904632568,-0.873199999332428,-0.8104000091552734
1702691871547154200,1.305154296875,-0.807699978351593,-0.49729999899864197,-0.10209999978542328
1702691871607154200,1.365154296875,1.2750999927520752,0.023499999195337296,0.23629999160766602
1702691871667154200,1.425154296875,-0.3028999865055084,-0.035599999129772186,0.548799991607666
1702691871727154200,1.485154296875,-0.16949999332427979,0.12459999322891235,-0.3190000057220459
1702691871787154200,1.545154296875,0.019899999722838402,0.13359999656677246,0.1096000000834465
1702691871847154200,1.605154296875,0.25759997963905334,0.3253999948501587,0.06859999895095825
1702691871907154200,1.665154296875,-0.28110000491142273,-0.029600000008940697,0.07369999587535858
1702691871967154200,1.725154296875,-0.49939998984336853,-0.1467999964952469,0.47099998593330383
1702691872027154200,1.785154296875,-0.7186999917030334,-0.06149999797344208,0.2084999978542328
1702691872087154200,1.845154296875,0.5299999713897705,0.2721000015735626,0.25029999017715454
1702691872147154200,1.905154296875,0.1832999885082245,-0.10199999809265137,0.15039999783039093
1702691872207154200,1.965154296875,0.041600000113248825,-0.1030999943614006,-0.04659999907016754
1702691872267154200,2.025154296875,-0.29760000109672546,-0.002699999837204814,-0.41839998960494995
1702691872327154200,2.085154296875,-0.218299999833107,-0.07809999585151672,0.05389999970793724
1702691872387154200,2.145154296875,-0.12489999830722809,0.06149999797344208,-0.3164999783039093
1702691872447154200,2.205154296875,-0.275299996137619,-0.30169999599456787,-0.12629999220371246
1702691872507155700,2.26515576171875,0.22139999270439148,-0.040300000458955765,-0.25279998779296875
1702691872567154200,2.325154296875,-0.22759999334812164,-0.46050000190734863,-0.5461999773979187
1702691872627154200,2.385154296875,-0.002699999837204814,-0.24929998815059662,0.3224000036716461
1702691872687154200,2.445154296875,0.2870999872684479,0.16659998893737793,0.3686999976634979
1702691872747154200,2.505154296875,-0.021299999207258224,0.19209998846054077,0.11580000072717667
1702691872807154200,2.565154296875,-0.3450999855995178,0.056599996984004974,0.04639999940991402
1702691872867154200,2.625154296875,-0.4097999930381775,-0.04309999942779541,0.28919997811317444
1702691872927154200,2.685154296875,-0.025499999523162842,0.02149999886751175,0.49239999055862427
1702691872987154200,2.745154296875,0.11829999834299088,0.3562999963760376,-0.05999999865889549
1702691873047154200,2.805154296875,-0.39819997549057007,-0.22339999675750732,0.24159999191761017
1702691873107154200,2.865154296875,0.5525999665260315,0.38599997758865356,0.49799999594688416
1702691873167154200,2.925154296875,-0.6428999900817871,-0.23249998688697815,-0.4170999825000763
1702691873227154200,2.985154296875,-0.13599999248981476,-0.2636999785900116,-0.19579999148845673
1702691873287154200,3.045154296875,-0.21089999377727509,-0.3450999855995178,-0.012999999336898327
1702691873347154200,3.105154296875,-0.08190000057220459,-0.2418999969959259,-0.15410000085830688
1702691873407154200,3.165154296875,0.10939999669790268,0.3181000053882599,0.2369999885559082
1702691873467154200,3.225154296875,0.25619998574256897,-0.05350000038743019,-0.3208000063896179
1702691873527154200,3.285154296875,0.24529999494552612,-0.2606000006198883,0.08889999985694885
1702691873587154200,3.345154296875,-0.20059999823570251,-0.22019998729228973,-0.0819999948143959
1702691873647154200,3.405154296875,-0.1687999963760376,0.04230000078678131,0.3304999768733978
1702691873707154200,3.465154296875,-0.4010999798774719,0.11759999394416809,-0.02709999866783619
1702691873767154200,3.525154296875,-0.09449999779462814,0.32249999046325684,0.025699999183416367
1702691873827154200,3.585154296875,-0.05419999733567238,0.3465999960899353,0.055399999022483826
1702691873887154200,3.645154296875,-0.4700999855995178,-0.08100000023841858,0.09049999713897705
1702691873947154200,3.705154296875,0.23359999060630798,0.04529999941587448,0.6051999926567078
1702691874007154200,3.765154296875,-0.5011000037193298,-0.17520000040531158,-0.6341999769210815
1702691874067154200,3.825154296875,-0.28369998931884766,-0.17579999566078186,-0.4147000014781952
1702691874127154200,3.885154296875,0.08320000022649765,-0.29760000109672546,-0.013399999588727951
1702691874187154200,3.945154296875,0.15709999203681946,-0.14339999854564667,-0.2069999873638153
1702691874247154200,4.005154296875,0.017999999225139618,0.03819999843835831,0.16979999840259552
1702691874307154200,4.065154296875,0.313400000333786,-0.050200000405311584,0.018299998715519905
1702691874367154200,4.125154296875,0.017799999564886093,-0.3529999852180481,-0.05570000037550926
1702691874427154200,4.185154296875,-0.4059999883174896,-0.08569999784231186,0.15429998934268951
1702691874487154200,4.245154296875,-0.2449999898672104,-0.11729999631643295,0.2563000023365021
1702691874547154200,4.305154296875,-0.407399982213974,0.19129998981952667,0.1257999986410141
1702691874607154200,4.365154296875,0.07270000129938126,0.4122999906539917,-0.005399999674409628
1702691874667154200,4.425154296875,-0.1785999983549118,0.08789999783039093,-0.2012999951839447
1702691874727154200,4.485154296875,0.003000000026077032,-0.14079999923706055,0.5842999815940857
1702691874787154200,4.545154296875,-0.3199999928474426,-0.2222999930381775,-0.1996999979019165
1702691874847154200,4.605154296875,-0.1340000033378601,-0.19990000128746033,-0.2802000045776367
1702691874907154200,4.665154296875,-0.23680000007152557,-0.22599999606609344,0.13169999420642853
1702691874967154200,4.725154296875,0.30789998173713684,0.10349999368190765,-0.05859999731183052
1702691875027154200,4.785154296875,-0.11289999634027481,-0.19919998943805695,-0.1841999888420105
1702691875087154200,4.845154296875,-0.24779999256134033,0.0142000000923872,-0.298799991607666
1702691875147154200,4.905154296875,-0.11159999668598175,-0.021399999037384987,-0.3572999835014343
1702691875207154200,4.965154296875,0.3276999890804291,0.10859999805688858,0.0674000009894371
1702691875267154200,5.025154296875,-0.3249000012874603,-0.18569999933242798,0.08469999581575394
1702691875327154200,5.085154296875,-0.3586999773979187,-0.016200000420212746,0.2927999794483185
1702691875387154200,5.145154296875,-0.2775000035762787,-0.1467999964952469,0.32580000162124634
1702691875447154200,5.205154296875,-0.030899999663233757,0.2125999927520752,0.1410999894142151
1702691875507154200,5.265154296875,0.2451999932527542,0.13490000367164612,0.22769999504089355
1702691875567154200,5.325154296875,-0.024799998849630356,-0.06350000202655792,0.11229999363422394
1702691875627154200,5.385154296875,-0.19759999215602875,-0.0802999958395958,0.17520000040531158
1702691875687154200,5.445154296875,-0.31209999322891235,-0.12119999527931213,-0.1931999921798706
1702691875747154200,5.505154296875,-0.296999990940094,-0.008200000040233135,-0.26579999923706055
1702691875807154200,5.565154296875,-0.09079999476671219,0.03680000081658363,-0.0762999951839447
1702691875867154200,5.625154296875,-0.13750000298023224,-0.05549999698996544,-0.07249999791383743
1702691875927154200,5.685154296875,0.22739998996257782,0.07199999690055847,0.21229998767375946
1702691875987154200,5.745154296875,-0.4870999753475189,-0.121799997985363,-0.33409997820854187
1702691876047154200,5.805154296875,-0.2793000042438507,-0.09529999643564224,0.34619998931884766
1702691876107154200,5.865154296875,-0.042399998754262924,0.07930000126361847,-0.041600000113248825
1702691876167154200,5.925154296875,0.19749999046325684,-0.04230000078678131,-0.07919999957084656
1702691876227154200,5.985154296875,0.02539999969303608,-0.20260000228881836,0.0284000001847744
1702691876287154200,6.045154296875,-0.026599999517202377,0.1103999987244606,-0.22789999842643738
1702691876347154200,6.105154296875,0.07019999623298645,-0.07889999449253082,-0.04969999939203262
1702691876407154200,6.165154296875,-0.4359999895095825,-0.17579999566078186,0.16990000009536743
1702691876467154200,6.225154296875,-0.48089998960494995,-0.03669999912381172,0.44669997692108154
1702691876527154200,6.285154296875,-0.2992999851703644,-0.14639998972415924,0.0876999944448471
1702691876587154200,6.345154296875,0.021199999377131462,0.09999999403953552,0.15940000116825104
1702691876647154200,6.405154296875,-0.0559999980032444,-0.03280000016093254,-0.1298999935388565
1702691876707154200,6.465154296875,0.023599999025464058,0.03359999880194664,0.2689000070095062
1702691876767154200,6.525154296875,0.2466999888420105,-0.07599999755620956,0.10569999366998672
1702691876827154200,6.585154296875,-0.2360999882221222,-0.14949999749660492,0.03929999843239784
1702691876887154200,6.645154296875,-0.3935000002384186,-0.023799998685717583,-0.0543999969959259
1702691876947154200,6.705154296875,-0.44099998474121094,-0.015199999324977398,-0.5651999711990356
1702691877007154200,6.765154296875,-0.45619997382164,-0.06619999557733536,-0.5101000070571899
1702691877067154200,6.825154296875,0.33809998631477356,0.04910000041127205,-0.18029999732971191
1702691877127154200,6.885154296875,0.03790000081062317,-0.18719999492168427,-0.17989999055862427
1702691877187154200,6.945154296875,-0.019500000402331352,-0.1688999980688095,0.08940000087022781
1702691877247154200,7.005154296875,0.14459998905658722,0.19009999930858612,0.06679999828338623
1702691877307154200,7.065154296875,0.2913999855518341,0.10520000010728836,0.34860000014305115
1702691877367154200,7.125154296875,0.25769999623298645,-0.13009999692440033,0.17090000212192535
1702691877427154200,7.185154296875,0.011599999852478504,-0.23160000145435333,0.25380000472068787
1702691877487154200,7.245154296875,-0.023799998685717583,-0.23240000009536743,0.26659998297691345
1702691877547154200,7.305154296875,-0.421999990940094,-0.017799999564886093,-0.06069999933242798
1702691877607154200,7.365154296875,0.02159999869763851,0.19370000064373016,0.0071000000461936
1702691877667154200,7.425154296875,-0.11109999567270279,-0.2410999983549118,-0.125900000333786
1702691877727154200,7.485154296875,-0.08060000091791153,-0.13449999690055847,0.41659998893737793
1702691877787154200,7.545154296875,-0.1331000030040741,0.16820000112056732,-0.4883999824523926
1702691877847154200,7.605154296875,0.10089999437332153,-0.15189999341964722,0.04129999876022339
1702691877907154200,7.665154296875,-0.35409998893737793,-0.07660000026226044,-0.6247999668121338
1702691877967154200,7.725154296875,0.5848999619483948,-0.08289999514818192,0.1500999927520752
1702691878027154200,7.785154296875,-0.025200000032782555,0.05139999836683273,-0.551800012588501
1702691878087154200,7.845154296875,-0.20109999179840088,-0.2328999936580658,0.10729999840259552
1702691878147154200,7.905154296875,-0.4535999894142151,-0.04910000041127205,-0.09149999916553497
1702691878207154200,7.965154296875,0.36890000104904175,-0.09139999747276306,0.052299998700618744
1702691878267154200,8.025154296875,-0.08669999986886978,-0.10759999603033066,0.13329999148845673
1702691878327154200,8.085154296875,-0.23889999091625214,-0.1462000012397766,0.28299999237060547
1702691878387154200,8.145154296875,-0.26569998264312744,-0.04769999906420708,0.27469998598098755
1702691878447154200,8.205154296875,-0.19020000100135803,0.039400000125169754,0.014399999752640724
1702691878507154200,8.265154296875,0.12359999865293503,0.045399997383356094,-0.07699999958276749
1702691878567154200,8.325154296875,0.06499999761581421,-0.06039999797940254,0.17729999125003815
1702691878627154200,8.385154296875,-0.023799998685717583,-0.24699999392032623,0.14379999041557312
1702691878687154200,8.445154296875,-0.36329999566078186,-0.19429999589920044,-0.4673999845981598
1702691878747154200,8.505154296875,-0.09869999438524246,-0.2581999897956848,-0.2538999915122986
1702691878807154200,8.565154296875,-0.19839999079704285,-0.3123999834060669,-0.21239998936653137
1702691878867154200,8.625154296875,0.4512999951839447,0.22029998898506165,-0.21649999916553497
1702691878927154200,8.685154296875,-0.2662000060081482,0.20759999752044678,0.041099999099969864
1702691878987154200,8.745154296875,0.23559999465942383,0.4219000041484833,0.03619999811053276
1702691879047154200,8.805154296875,0.1339000016450882,-0.06119999662041664,-0.140299990773201
1702691879107154200,8.865154296875,-0.24939998984336853,-0.007599999662488699,0.11180000007152557
1702691879167154200,8.925154296875,-0.5352999567985535,-0.2726999819278717,0.04209999740123749
1702691879227154200,8.985154296875,0.15959998965263367,-0.08940000087022781,0.5304999947547913
1702691879287154200,9.045154296875,-0.37459999322891235,-0.24129998683929443,-0.20250000059604645
1702691879347154200,9.105154296875,0.1995999962091446,-0.04659999907016754,0.13490000367164612
1702691879407154200,9.165154296875,-0.17409999668598175,-0.20059999823570251,-0.15770000219345093
1702691879467154200,9.225154296875,-0.33079999685287476,-0.17729999125003815,-0.03139999881386757
1702691879527154200,9.285154296875,-0.4235000014305115,-0.01769999973475933,-0.10379999876022339
1702691879587154200,9.345154296875,-0.07880000025033951,-0.05689999833703041,0.1266999989748001
1702691879647154200,9.405154296875,0.43609997630119324,0.07090000063180923,0.06199999898672104
1702691879707154200,9.465154296875,-0.21549999713897705,-0.18649999797344208,-0.27879998087882996
1702691879767154200,9.525154296875,-0.10700000077486038,0.017799999564886093,-0.15219999849796295
1702691879827154200,9.585154296875,-0.15389999747276306,0.13490000367164612,0.08699999749660492
1702691879887154200,9.645154296875,-0.045099999755620956,0.028099998831748962,0.004799999762326479
1702691879947154200,9.705154296875,-0.18060000240802765,0.05379999801516533,0.028299998492002487
1702691880007154200,9.765154296875,-0.23739999532699585,0.002899999963119626,-0.12479999661445618
1702691880067154200,9.825154296875,-0.016499999910593033,-0.026499999687075615,-0.021199999377131462
1702691880127154200,9.885154296875,-0.004100000020116568,-0.09489999711513519,0.004900000058114529
1702691880187154200,9.945154296875,0.15429998934268951,0.1022999957203865,0.08190000057220459
1702691880247154200,10.005154296875,0.09039999544620514,-0.08489999920129776,-0.27539998292922974
1702691880307154200,10.065154296875,-0.05389999970793724,-0.0037999998312443495,0.16489998996257782
1702691880367154200,10.125154296875,-0.23409999907016754,-0.273499995470047,-0.16619999706745148
1702691880427154200,10.185154296875,-0.18469999730587006,0.06629999727010727,-0.05249999836087227
1702691880487154200,10.245154296875,-0.058799996972084045,-0.004600000102072954,-0.14720000326633453
1702691880547154200,10.305154296875,-0.08699999749660492,-0.16009999811649323,-0.18619999289512634
1702691880607154200,10.365154296875,-0.1922999918460846,-0.3880999982357025,0.07090000063180923
1702691880667154200,10.425154296875,-0.06309999525547028,-0.35929998755455017,-0.10459999740123749
1702691880727154200,10.485154296875,0.33009999990463257,-0.3236999809741974,-0.40939998626708984
1702691880787154200,10.545154296875,0.17219999432563782,0.08789999783039093,-0.3084000051021576
1702691880847154200,10.605154296875,-0.19909998774528503,0.1451999992132187,-0.1322999894618988
1702691880907154200,10.665154296875,-0.3482999801635742,-0.2645999789237976,0.3840999901294708
1702691880967154200,10.725154296875,-0.38519999384880066,0.00009999999747378752,0.3026999831199646
1702691881027154200,10.785154296875,-0.1996999979019165,0.03680000081658363,0.2295999974012375
1702691881087154200,10.845154296875,0.027499999850988388,0.009200000204145908,0.36980000138282776
1702691881147154200,10.905154296875,-0.02449999935925007,0.06759999692440033,0.003000000026077032
1702691881207154200,10.965154296875,-2.023099899291992,-0.5615000128746033,-0.39319998025894165
1702691881267154200,11.025154296875,0.30869999527931213,-0.14459998905658722,-0.3138999938964844
