time,seconds_elapsed,z,y,x
1702296738705423400,0.10542333984375,0,0,0
1702296738765423400,0.16542333984375,0.01679999940097332,-0.2678999900817871,0.6072999835014343
1702296738825423400,0.22542333984375,-0.9591999650001526,0.08669999986886978,1.1072999238967896
1702296738885423400,0.28542333984375,0.3449999988079071,-1.25409996509552,-0.44759997725486755
1702296738945423400,0.34542333984375,0.03849999979138374,0.20069999992847443,2.1210999488830566
1702296739005423400,0.40542333984375,-0.23539999127388,-0.2502000033855438,2.5448999404907227
1702296739065423400,0.46542333984375,-0.20189999043941498,1.2489999532699585,3.640199899673462
1702296739125423400,0.52542333984375,1.4321999549865723,-0.6791999936103821,-1.365899920463562
1702296739185423400,0.58542333984375,1.3686999082565308,-0.19449999928474426,1.6066999435424805
1702296739245423400,0.64542333984375,-1.0160000324249268,0.9414999485015869,0.3807999789714813
1702296739305423400,0.70542333984375,-2.7346999645233154,0.26429998874664307,0.42639997601509094
1702296739365423400,0.76542333984375,-1.0461000204086304,0.861799955368042,2.2266998291015625
1702296739425423400,0.82542333984375,-0.9372999668121338,1.1292999982833862,-0.6330999732017517
1702296739485423400,0.88542333984375,-0.1833999902009964,-0.31929999589920044,1.8184999227523804
1702296739545423400,0.94542333984375,-0.17819999158382416,0.41679999232292175,1.8280999660491943
1702296739605423400,1.00542333984375,-0.09640000015497208,1.226699948310852,0.6812999844551086
1702296739665423400,1.06542333984375,0.08619999885559082,1.6141999959945679,0.7455999851226807
1702296739725423400,1.12542333984375,0.886199951171875,0.5121999979019165,0.9091999530792236
1702296739785423400,1.18542333984375,0.7117999792098999,-0.46309998631477356,-0.5514000058174133
1702296739845423400,1.24542333984375,0.7414999604225159,-0.34369999170303345,0.5184000134468079
1702296739905423400,1.30542333984375,1.718999981880188,-1.8608999252319336,-0.17489999532699585
1702296739965423400,1.36542333984375,0.538599967956543,-1.6753000020980835,-0.030499998480081558
1702296740025423400,1.42542333984375,-0.5942999720573425,-1.6168999671936035,0.031199999153614044
1702296740085423400,1.48542333984375,-1.3773999214172363,-0.59579998254776,0.6998999714851379
1702296740145423400,1.54542333984375,-1.1346999406814575,-0.7009999752044678,0.5112999677658081
1702296740205425000,1.6054248046875,-1.6345999240875244,-0.9621999859809875,-0.6854000091552734
1702296740265423400,1.66542333984375,-0.7980999946594238,-0.03619999811053276,0.6462000012397766
1702296740325423400,1.72542333984375,2.7802999019622803,0.34049999713897705,-1.2141000032424927
1702296740385423400,1.78542333984375,0.5216000080108643,0.12299999594688416,-1.8603999614715576
1702296740445423400,1.84542333984375,2.1352999210357666,2.174099922180176,-2.8255999088287354
1702296740505423400,1.90542333984375,-2.797799825668335,0.948199987411499,-1.2963999509811401
1702296740565423400,1.96542333984375,-2.421599864959717,1.1553999185562134,-0.8499000072479248
1702296740625423400,2.02542333984375,-4.293299674987793,-1.5572999715805054,0.10759999603033066
1702296740685423400,2.08542333984375,-2.630499839782715,-1.227199912071228,2.4134998321533203
1702296740745423400,2.14542333984375,-5.716899871826172,-2.9113998413085938,2.9883999824523926
1702296740805423400,2.20542333984375,-3.337100028991699,-2.72409987449646,1.625499963760376
1702296740865423400,2.26542333984375,2.006500005722046,0.1623999923467636,0.5382999777793884
1702296740925423400,2.32542333984375,1.729699969291687,0.8244999647140503,-3.001499891281128
1702296740985423400,2.38542333984375,1.4429999589920044,2.2774999141693115,-4.610099792480469
1702296741045423400,2.44542333984375,0.5101000070571899,1.112299919128418,-3.152599811553955
1702296741105423400,2.50542333984375,0.46559998393058777,0.5602999925613403,-2.385499954223633
1702296741165423400,2.56542333984375,0.4145999848842621,1.8467999696731567,-2.2089998722076416
1702296741225423400,2.62542333984375,1.9532999992370605,2.089599847793579,-1.0233999490737915
1702296741285423400,2.68542333984375,1.7333999872207642,-0.7242000102996826,0.06459999829530716
1702296741345423400,2.74542333984375,-0.7269999980926514,-5.265599727630615,0.8761000037193298
1702296741405423400,2.80542333984375,1.845099925994873,1.9402999877929688,3.90310001373291
1702296741465423400,2.86542333984375,1.9172999858856201,-0.6172999739646912,-3.3874998092651367
1702296741525423400,2.92542333984375,0.8435999751091003,-0.8560000061988831,-2.4803998470306396
1702296741585423400,2.98542333984375,-0.3650999963283539,-0.2590999901294708,-3.2528998851776123
1702296741645423400,3.04542333984375,1.1088999509811401,2.3071000576019287,-1.5270999670028687
1702296741705423400,3.10542333984375,-0.4161999821662903,4.996999740600586,-0.5945000052452087
1702296741765423400,3.16542333984375,-0.29159998893737793,3.550299882888794,-0.3294000029563904
1702296741825423400,3.22542333984375,0.5819000005722046,0.3595999777317047,0.7892000079154968
1702296741885423400,3.28542333984375,1.1685999631881714,0.07599999755620956,6.915299892425537
1702296741945423400,3.34542333984375,2.6301000118255615,-4.9203996658325195,6.4101996421813965
1702296742005423400,3.40542333984375,3.121699810028076,-1.3306999206542969,1.493399977684021
1702296742065423400,3.46542333984375,1.8320999145507812,-0.5548999905586243,-2.78059983253479
1702296742125423400,3.52542333984375,0.9930999875068665,1.626599907875061,-1.3163999319076538
1702296742185423400,3.58542333984375,0.6676999926567078,2.305299997329712,-0.22909998893737793
1702296742245423400,3.64542333984375,-7.045899868011475,-2.8379998207092285,-5.431399822235107
1702296742305423400,3.70542333984375,-3.1656999588012695,0.7401999831199646,-2.7816998958587646
1702296742365425000,3.7654248046875,-2.2985999584198,-2.3060998916625977,-0.053599998354911804
1702296742425423400,3.82542333984375,2.496999979019165,-2.598299980163574,3.4754998683929443
1702296742485423400,3.88542333984375,-1.5094999074935913,1.2818999290466309,0.19779999554157257
1702296742545423400,3.94542333984375,-1.8317999839782715,3.454399824142456,-0.10319999605417252
1702296742605423400,4.00542333984375,-0.2021999955177307,-0.9551999568939209,0.5770999789237976
1702296742665423400,4.06542333984375,0.34709998965263367,-5.06119966506958,-3.077199935913086
1702296742725423400,4.12542333984375,1.4393999576568604,-1.2745000123977661,-1.5478999614715576
1702296742785423400,4.18542333984375,0.07400000095367432,2.665599822998047,-5.24399995803833
1702296742845423400,4.24542333984375,-0.8476999998092651,1.6378999948501587,-4.389499664306641
1702296742905423400,4.30542333984375,0.5823000073432922,1.0723999738693237,2.3415000438690186
1702296742965423400,4.36542333984375,0.8611999750137329,-2.674099922180176,2.0112998485565186
1702296743025423400,4.42542333984375,3.3572998046875,-1.6545000076293945,1.7973999977111816
1702296743085423400,4.48542333984375,-1.1901999711990356,-3.045300006866455,-1.3819999694824219
1702296743145423400,4.54542333984375,-0.4453999996185303,-2.7167999744415283,2.914599895477295
1702296743205423400,4.60542333984375,1.1715999841690063,1.7170000076293945,5.273099899291992
1702296743265423400,4.66542333984375,1.2840999364852905,4.15880012512207,4.417099952697754
1702296743325423400,4.72542333984375,-4.734999656677246,-1.7264999151229858,-6.849699974060059
1702296743385423400,4.78542333984375,1.8952999114990234,-3.82289981842041,-5.092299938201904
1702296743445423400,4.84542333984375,-6.744699954986572,8.381699562072754,5.096799850463867
1702296743505425000,4.9054248046875,6.542699813842773,-1.768799901008606,5.993299961090088
1702296743565423400,4.96542333984375,-1.465499997138977,-3.061699867248535,1.7822999954223633
1702296743625423400,5.02542333984375,4.53909969329834,-1.2458000183105469,-0.593999981880188
1702296743685423400,5.08542333984375,1.2561999559402466,-0.5295999646186829,-1.049799919128418
1702296743745423400,5.14542333984375,2.688199996948242,-0.5173999667167664,1.1359999179840088
1702296743805423400,5.20542333984375,-1.2394999265670776,3.6661999225616455,1.6690999269485474
1702296743865423400,5.26542333984375,1.1513999700546265,2.5151000022888184,-5.381899833679199
1702296743925423400,5.32542333984375,-1.0099999904632568,4.76069974899292,1.1581000089645386
1702296743985423400,5.38542333984375,1.2868000268936157,2.4495999813079834,2.243299961090088
1702296744045423400,5.44542333984375,-0.7364000082015991,-2.3183999061584473,1.9715999364852905
1702296744105423400,5.50542333984375,-3.8427999019622803,-5.035099983215332,3.2463998794555664
1702296744165423400,5.56542333984375,-0.031300000846385956,-7.592199802398682,-0.8545999526977539
1702296744225423400,5.62542333984375,1.1886999607086182,-4.817800045013428,1.7977999448776245
1702296744285451500,5.685451416015625,8.487699508666992,6.56220006942749,-3.895599842071533
1702296744345423400,5.74542333984375,-2.668599843978882,2.928499937057495,-0.7303000092506409
1702296744405423400,5.80542333984375,-1.2009999752044678,1.260699987411499,-0.8859999775886536
1702296744465423400,5.86542333984375,-5.478799819946289,2.4510998725891113,0.06889999657869339
1702296744525423400,5.92542333984375,2.304800033569336,0.48420000076293945,-1.5131999254226685
1702296744585423400,5.98542333984375,1.4954999685287476,-4.211699962615967,1.9950000047683716
1702296744645423400,6.04542333984375,-2.4175000190734863,-1.7422999143600464,1.6150000095367432
1702296744705423400,6.10542333984375,1.2589999437332153,-3.2723000049591064,-0.8855999708175659
1702296744765425000,6.1654248046875,2.783900022506714,-0.060099996626377106,-1.3711999654769897
1702296744825423400,6.22542333984375,0.21719999611377716,-0.20069999992847443,-2.5184998512268066
1702296744885423400,6.28542333984375,0.3853999972343445,1.2431999444961548,-4.989199638366699
1702296744945423400,6.34542333984375,0.032899998128414154,2.828399896621704,-0.12429999560117722
1702296745005423400,6.40542333984375,2.7418999671936035,6.112299919128418,-2.7396998405456543
1702296745065423400,6.46542333984375,0.3490999937057495,-0.5722999572753906,0.9993999600410461
1702296745125423400,6.52542333984375,-2.4819998741149902,-4.557300090789795,3.1614999771118164
1702296745185423400,6.58542333984375,-3.0130999088287354,-6.600599765777588,3.514899969100952
1702296745245423400,6.64542333984375,-2.3183999061584473,-4.413899898529053,4.15939998626709
1702296745305423400,6.70542333984375,10.972799301147461,9.343999862670898,-1.1305999755859375
1702296745365423400,6.76542333984375,2.538100004196167,0.6943999528884888,-10.781299591064453
1702296745425423400,6.82542333984375,-2.605599880218506,3.4866998195648193,0.06629999727010727
1702296745485423400,6.88542333984375,-4.504499912261963,1.303399920463562,1.5719000101089478
1702296745545423400,6.94542333984375,-2.5839998722076416,1.6179999113082886,0.8191999793052673
1702296745605423400,7.00542333984375,0.26899999380111694,-3.1991000175476074,3.2916998863220215
1702296745665423400,7.06542333984375,-3.7264997959136963,-1.5608999729156494,0.6312999725341797
1702296745725423400,7.12542333984375,4.7322998046875,-3.1714999675750732,-2.1510000228881836
1702296745785423400,7.18542333984375,3.2487998008728027,-2.0406999588012695,-4.138799667358398
1702296745845423400,7.24542333984375,1.1128000020980835,-1.0011999607086182,-2.9946999549865723
1702296745905423400,7.30542333984375,-1.4390000104904175,0.28439998626708984,0.28759998083114624
1702296745965423400,7.36542333984375,-1.5978999137878418,2.9415998458862305,-3.8973000049591064
1702296746025423400,7.42542333984375,0.939799964427948,9.7839994430542,-1.4269999265670776
1702296746085423400,7.48542333984375,2.0184998512268066,0.07609999924898148,0.12610000371932983
1702296746145423400,7.54542333984375,-3.138199806213379,-4.165999889373779,4.17549991607666
1702296746205423400,7.60542333984375,-1.6830999851226807,-7.16439962387085,1.5677999258041382
1702296746265423400,7.66542333984375,-2.5513999462127686,-3.1738998889923096,5.424299716949463
1702296746325423400,7.72542333984375,14.76550006866455,10.952399253845215,-3.225099802017212
1702296746385423400,7.78542333984375,1.3609999418258667,1.7663999795913696,-5.433700084686279
1702296746445423400,7.84542333984375,-2.3352999687194824,0.7924000024795532,-0.722000002861023
1702296746505423400,7.90542333984375,-4.613199710845947,1.705899953842163,1.2645000219345093
1702296746565423400,7.96542333984375,-2.3934998512268066,3.348299980163574,2.216599941253662
1702296746625423400,8.02542333984375,0.5253999829292297,-3.4131999015808105,1.118399977684021
1702296746685423400,8.08542333984375,-2.57099986076355,-2.212399959564209,0.6401999592781067
1702296746745423400,8.14542333984375,3.0964999198913574,-2.035799980163574,-0.8296999931335449
1702296746805425000,8.2054248046875,3.9502999782562256,-2.0518999099731445,-2.7786998748779297
1702296746865423400,8.26542333984375,0.3716000020503998,0.16009999811649323,-2.460399866104126
1702296746925423400,8.32542333984375,1.2247999906539917,0.2467999905347824,-2.177000045776367
1702296746985423400,8.38542333984375,-0.6358000040054321,1.99809992313385,-1.01419997215271
1702296747045423400,8.44542333984375,3.240000009536743,12.239799499511719,-0.8053999543190002
1702296747105423400,8.50542333984375,0.7277999520301819,-0.42159998416900635,2.1198999881744385
1702296747165423400,8.56542333984375,-1.4175999164581299,-3.3295998573303223,4.832499980926514
1702296747225423400,8.62542333984375,-1.7314000129699707,-6.759399890899658,1.435499906539917
1702296747285423400,8.68542333984375,-1.8037999868392944,-4.402400016784668,4.592899799346924
1702296747345423400,8.74542333984375,2.3962998390197754,9.686399459838867,-1.4793999195098877
1702296747405425000,8.8054248046875,9.156299591064453,-3.6708998680114746,-4.6570000648498535
1702296747465423400,8.86542333984375,-4.02679967880249,1.9169999361038208,1.1273999214172363
1702296747525423400,8.92542333984375,0.14829999208450317,3.285799980163574,2.1554999351501465
1702296747585423400,8.98542333984375,-3.09089994430542,4.794699668884277,2.885699987411499
1702296747645423400,9.04542333984375,1.4846999645233154,-0.4909999966621399,1.0555000305175781
1702296747705423400,9.10542333984375,-1.1583999395370483,-3.5764999389648438,1.4012999534606934
1702296747765423400,9.16542333984375,1.2674000263214111,-1.153499960899353,1.4128999710083008
1702296747825423400,9.22542333984375,2.3220999240875244,-2.0983998775482178,-1.725600004196167
1702296747885423400,9.28542333984375,3.1778998374938965,-0.6424999833106995,-4.293399810791016
1702296747945423400,9.34542333984375,0.9422000050544739,0.3659999966621399,-1.025399923324585
1702296748005423400,9.40542333984375,1.2418999671936035,0.8639999628067017,-2.1835999488830566
1702296748065423400,9.46542333984375,-1.692199945449829,6.137499809265137,-1.2160999774932861
1702296748125423400,9.52542333984375,3.0032999515533447,4.148399829864502,0.9010999798774719
1702296748185423400,9.58542333984375,-1.6304999589920044,-2.40310001373291,3.1735999584198
1702296748245423400,9.64542333984375,-1.0684000253677368,-4.966799736022949,3.4642999172210693
1702296748305423400,9.70542333984375,-1.3133999109268188,-5.023200035095215,5.001399993896484
1702296748365423400,9.76542333984375,0.5995999574661255,-2.679999828338623,2.717399835586548
1702296748425423400,9.82542333984375,3.0027999877929688,2.13319993019104,-9.369699478149414
1702296748485423400,9.88542333984375,-1.6132999658584595,-1.806899905204773,1.3048999309539795
1702296748545423400,9.94542333984375,-1.6276999711990356,3.0692999362945557,-1.9167999029159546
1702296748605423400,10.00542333984375,-3.139699935913086,3.171099901199341,3.4430999755859375
1702296748665423400,10.06542333984375,-1.9586999416351318,-1.9823999404907227,-0.6998999714851379
1702296748725423400,10.12542333984375,-1.87309992313385,1.3320999145507812,2.035799980163574
1702296748785423400,10.18542333984375,1.6121000051498413,-1.4674999713897705,4.518399715423584
1702296748845423400,10.24542333984375,0.09189999848604202,-1.6414999961853027,-0.4713999927043915
1702296748905425000,10.3054248046875,4.963500022888184,-2.0922000408172607,-3.3143999576568604
1702296748965423400,10.36542333984375,0.7581999897956848,-1.0085999965667725,-4.601200103759766
1702296749025423400,10.42542333984375,0.6247000098228455,0.858299970626831,-1.3966999053955078
1702296749085423400,10.48542333984375,-0.852899968624115,-0.7983999848365784,-1.743499994277954
1702296749145423400,10.54542333984375,-0.983199954032898,3.8938000202178955,-3.1798999309539795
1702296749205423400,10.60542333984375,1.0116000175476074,4.710099697113037,0.45229998230934143
1702296749265423400,10.66542333984375,-0.2660999894142151,-2.4958999156951904,2.7330000400543213
1702296749325423400,10.72542333984375,-1.3273999691009521,-3.9489998817443848,1.4327999353408813
1702296749385423400,10.78542333984375,-3.066200017929077,-2.985599994659424,4.559299945831299
1702296749445423400,10.84542333984375,5.879499912261963,4.717599868774414,4.528199672698975
1702296749505425000,10.9054248046875,-1.2446999549865723,-4.775599956512451,-3.333099842071533
1702296749565423400,10.96542333984375,3.5075998306274414,2.634999990463257,-2.3636999130249023
1702296749625423400,11.02542333984375,-3.9634997844696045,5.397500038146973,3.7916998863220215
1702296749685423400,11.08542333984375,-2.096299886703491,0.6435999870300293,2.010499954223633
1702296749745423400,11.14542333984375,1.6847000122070312,1.9731999635696411,0.4115999937057495
1702296749805423400,11.20542333984375,-2.183799982070923,-2.0618999004364014,2.4789998531341553
1702296749865423400,11.26542333984375,1.5728999376296997,-0.5856999754905701,-1.1625999212265015
1702296749925423400,11.32542333984375,2.1514999866485596,-2.6531999111175537,-1.5591999292373657
1702296749985423400,11.38542333984375,-0.23029999434947968,-2.4061999320983887,-1.990299940109253
1702296750045423400,11.44542333984375,0.49609997868537903,0.23489999771118164,-1.038599967956543
1702296750105423400,11.50542333984375,-0.19460000097751617,1.951200008392334,-2.7279000282287598
1702296750165423400,11.56542333984375,0.519599974155426,0.021699998527765274,-0.8360999822616577
1702296750225423400,11.62542333984375,1.6100999116897583,0.3156999945640564,-0.017099998891353607
1702296750285423400,11.68542333984375,-2.136899948120117,3.005199909210205,0.5618999600410461
1702296750345423400,11.74542333984375,2.635499954223633,-1.0311999320983887,1.7030999660491943
1702296750405423400,11.80542333984375,0.15230000019073486,-3.2771999835968018,-0.0608999989926815
1702296750465423400,11.86542333984375,-0.08649999648332596,-3.3929998874664307,2.7221999168395996
1702296750525423400,11.92542333984375,0.5925999879837036,-1.8736999034881592,1.7568999528884888
1702296750585423400,11.98542333984375,-0.9666999578475952,0.9833999872207642,-4.9238996505737305
1702296750645423400,12.04542333984375,1.3716999292373657,2.109099864959717,0.4818999767303467
1702296750705423400,12.10542333984375,0.4518999755382538,0.7418999671936035,1.222000002861023
1702296750765423400,12.16542333984375,-5.195799827575684,0.3969999849796295,0.1842999905347824
1702296750825423400,12.22542333984375,3.407399892807007,3.321499824523926,2.4433000087738037
1702296750885423400,12.28542333984375,-4.580100059509277,-1.897499918937683,2.552500009536743
1702296750945423400,12.34542333984375,1.7226999998092651,-0.814799964427948,-1.3638999462127686
1702296751005423400,12.40542333984375,0.48159998655319214,-2.8362998962402344,-0.4626999795436859
1702296751065423400,12.46542333984375,1.5946999788284302,-2.1888999938964844,-0.6265999674797058
1702296751125423400,12.52542333984375,1.0293999910354614,-1.0983999967575073,-1.0717999935150146
1702296751185423400,12.58542333984375,-1.061900019645691,1.365299940109253,-1.4214999675750732
1702296751245423400,12.64542333984375,-2.5528998374938965,0.9420999884605408,0.06239999830722809
1702296751305425000,12.7054248046875,3.702899932861328,5.802499771118164,-2.51639986038208
1702296751365423400,12.76542333984375,0.8545999526977539,-0.4253000020980835,1.4545999765396118
1702296751425423400,12.82542333984375,-0.8043999671936035,-3.9784998893737793,2.495499849319458
1702296751485425000,12.8854248046875,0.5555999875068665,-4.660599708557129,2.7380998134613037
1702296751545423400,12.94542333984375,0.3870999813079834,-3.4101998805999756,2.5915000438690186
1702296751605425000,13.0054248046875,-0.5049999952316284,5.502999782562256,-3.803299903869629
1702296751665423400,13.06542333984375,4.667500019073486,-5.756799697875977,0.0811999961733818
1702296751725423400,13.12542333984375,-5.108500003814697,10.441699981689453,-1.4524999856948853
1702296751785423400,13.18542333984375,-2.408799886703491,0.6818000078201294,5.111700057983398
1702296751845423400,13.24542333984375,-1.211899995803833,0.4502999782562256,1.7272999286651611
1702296751905423400,13.30542333984375,3.0289998054504395,-1.9405999183654785,-0.8154000043869019
1702296751965423400,13.36542333984375,-5.594299793243408,1.803999900817871,0.2947999835014343
1702296752025423400,13.42542333984375,2.9696998596191406,-2.224799871444702,-0.3107999861240387
1702296752085423400,13.48542333984375,1.1481000185012817,-2.457900047302246,-0.11869999766349792
1702296752145423400,13.54542333984375,1.0827000141143799,-2.0736000537872314,-5.087599754333496
1702296752205423400,13.60542333984375,3.1328999996185303,1.3148000240325928,-7.203499794006348
1702296752265423400,13.66542333984375,0.4359000027179718,2.4319000244140625,0.08529999852180481
1702296752325423400,13.72542333984375,-1.5893999338150024,0.17589999735355377,0.8938999772071838
1702296752385423400,13.78542333984375,1.3421000242233276,5.9151997566223145,0.31599998474121094
1702296752445423400,13.84542333984375,1.0484999418258667,0.07669999450445175,4.451600074768066
1702296752505423400,13.90542333984375,-3.341399908065796,-4.486999988555908,4.663899898529053
1702296752565423400,13.96542333984375,0.9065999984741211,-3.705899953842163,1.1460000276565552
1702296752625423400,14.02542333984375,-1.6483999490737915,-1.2896000146865845,5.436699867248535
1702296752685423400,14.08542333984375,2.2913999557495117,0.6140999794006348,-9.280499458312988
1702296752745423400,14.14542333984375,-1.2613999843597412,8.66249942779541,-2.066999912261963
1702296752805423400,14.20542333984375,-0.2955999970436096,-2.7451999187469482,5.30709981918335
1702296752865423400,14.26542333984375,-5.369800090789795,-0.3806999921798706,4.010200023651123
1702296752925423400,14.32542333984375,4.980299949645996,11.938499450683594,-1.6756999492645264
1702296752985423400,14.38542333984375,-6.734999656677246,-1.1335999965667725,0.46399998664855957
1702296753045423400,14.44542333984375,1.435499906539917,-2.900099992752075,-0.3211999833583832
1702296753105423400,14.50542333984375,1.4966999292373657,-3.5947999954223633,0.9466999769210815
1702296753165423400,14.56542333984375,5.567899703979492,-1.1490999460220337,-1.5676000118255615
1702296753225423400,14.62542333984375,2.8970999717712402,-2.311800003051758,-4.77869987487793
1702296753285423400,14.68542333984375,0.6373999714851379,0.3280999958515167,-3.467899799346924
1702296753345423400,14.74542333984375,-1.860700011253357,2.0966999530792236,-1.2867000102996826
1702296753405425000,14.8054248046875,1.1079999208450317,0.8642999529838562,-0.20759999752044678
1702296753465423400,14.86542333984375,-1.1171000003814697,4.4375996589660645,-0.4940999746322632
1702296753525423400,14.92542333984375,2.419600009918213,-0.01939999870955944,1.6531000137329102
1702296753585423400,14.98542333984375,-0.7037999629974365,-3.1327998638153076,3.18179988861084
1702296753645423400,15.04542333984375,-0.06780000030994415,-3.568499803543091,0.9142999649047852
1702296753705423400,15.10542333984375,-0.9024999737739563,-4.3892998695373535,5.244899749755859
1702296753765423400,15.16542333984375,12.0693998336792,7.98829984664917,-0.6259999871253967
1702296753825423400,15.22542333984375,4.502500057220459,-4.129499912261963,-4.184899806976318
1702296753885423400,15.28542333984375,-2.6514999866485596,2.507699966430664,-0.09559999406337738
1702296753945451500,15.345451416015624,-3.9666998386383057,-1.6102999448776245,3.332399845123291
1702296754005425000,15.4054248046875,3.6076998710632324,7.054100036621094,0.7228999733924866
1702296754065423400,15.46542333984375,-4.118299961090088,-0.8295999765396118,1.3291999101638794
1702296754125423400,15.52542333984375,0.3450999855995178,-2.636399984359741,1.0917999744415283
1702296754185423400,15.58542333984375,0.4258999824523926,-1.5362999439239502,1.4476999044418335
1702296754245423400,15.64542333984375,4.4691996574401855,-0.3625999987125397,0.06719999760389328
1702296754305423400,15.70542333984375,-4.474599838256836,-1.215399980545044,-6.802000045776367
1702296754365423400,15.76542333984375,2.671099901199341,0.25679999589920044,-2.4731998443603516
1702296754425423400,15.82542333984375,-2.3653998374938965,2.1248998641967773,1.9310998916625977
1702296754485423400,15.88542333984375,-0.6527000069618225,0.8696999549865723,-2.5987000465393066
1702296754545423400,15.94542333984375,1.8954999446868896,5.881999969482422,-0.3960999846458435
1702296754605425000,16.0054248046875,1.9068999290466309,0.2768999934196472,2.450500011444092
1702296754665423400,16.06542333984375,-3.055500030517578,-2.8766000270843506,4.946899890899658
1702296754725423400,16.12542333984375,-1.666599988937378,-3.8523998260498047,3.2376999855041504
1702296754785423400,16.18542333984375,0.5659999847412109,-2.899600028991699,4.627599716186523
1702296754845423400,16.24542333984375,4.496099948883057,4.9822998046875,-6.980499744415283
1702296754905425000,16.3054248046875,2.6038999557495117,-1.639799952507019,-3.78659987449646
1702296754965423400,16.36542333984375,1.1622999906539917,5.549599647521973,1.9540998935699463
1702296755025423400,16.42542333984375,-4.802599906921387,-0.46219998598098755,7.022799968719482
1702296755085423400,16.48542333984375,-2.6510000228881836,4.519899845123291,-2.4944000244140625
1702296755145423400,16.54542333984375,2.0219998359680176,-1.9957000017166138,-0.014499999582767487
1702296755205425000,16.6054248046875,-3.824399948120117,-3.592599868774414,2.1180999279022217
1702296755265423400,16.66542333984375,3.106099843978882,-0.6448999643325806,-0.8722999691963196
1702296755325423400,16.72542333984375,1.3625999689102173,-1.3952999114990234,-0.4934999942779541
1702296755385423400,16.78542333984375,3.320499897003174,-1.8646999597549438,-4.299499988555908
1702296755445423400,16.84542333984375,1.406000018119812,1.7401999235153198,-2.598599910736084
1702296755505425000,16.9054248046875,0.7046999931335449,2.1953999996185303,-0.10779999941587448
1702296755565423400,16.96542333984375,-0.7265999913215637,4.761399745941162,-2.267199993133545
1702296755625423400,17.02542333984375,3.3713998794555664,4.044899940490723,2.202899932861328
1702296755685423400,17.08542333984375,-0.4244999885559082,-2.1816999912261963,4.123600006103516
1702296755745423400,17.14542333984375,-1.5247999429702759,-5.378900051116943,2.8085999488830566
1702296755805425000,17.2054248046875,-0.7299000024795532,-2.7263998985290527,3.374499797821045
1702296755865423400,17.26542333984375,1.2618999481201172,-1.8375999927520752,3.8561999797821045
1702296755925423400,17.32542333984375,2.952199935913086,-2.3148000240325928,-14.482599258422852
1702296755985423400,17.38542333984375,-3.5374999046325684,5.900199890136719,-4.521399974822998
1702296756045423400,17.44542333984375,-4.940000057220459,-0.8598999977111816,10.189000129699707
1702296756105423400,17.50542333984375,-4.381999969482422,8.810999870300293,3.268699884414673
1702296756165423400,17.56542333984375,0.015799999237060547,1.4009000062942505,-0.564799964427948
1702296756225423400,17.62542333984375,-1.3629999160766602,-4.866300106048584,-1.7651000022888184
1702296756285423400,17.68542333984375,3.7879998683929443,-4.694699764251709,0.05549999698996544
1702296756345423400,17.74542333984375,4.140199661254883,-1.7156000137329102,-1.6770999431610107
1702296756405423400,17.80542333984375,-0.10409999638795853,0.8373000025749207,-3.426299810409546
1702296756465423400,17.86542333984375,-1.285099983215332,0.47529998421669006,-2.2200000286102295
1702296756525423400,17.92542333984375,1.0318999290466309,-2.7207000255584717,-2.3887999057769775
1702296756585423400,17.98542333984375,-0.7150999903678894,3.3413000106811523,-3.162599802017212
1702296756645423400,18.04542333984375,1.34499990940094,6.74899959564209,3.2231998443603516
1702296756705423400,18.10542333984375,0.7852999567985535,-2.0464999675750732,2.4071998596191406
1702296756765423400,18.16542333984375,-0.9417999982833862,-3.352799892425537,1.351199984550476
1702296756825423400,18.22542333984375,-2.036099910736084,-2.586099863052368,4.491300106048584
1702296756885423400,18.28542333984375,-0.290800005197525,-3.7490999698638916,5.382299900054932
1702296756945423400,18.34542333984375,1.847000002861023,4.848700046539307,-5.495100021362305
1702296757005423400,18.40542333984375,4.772200107574463,2.4674999713897705,-5.527199745178223
1702296757065423400,18.46542333984375,-2.427999973297119,-0.6053999662399292,1.3418999910354614
1702296757125423400,18.52542333984375,-4.252099990844727,2.163599967956543,2.3666000366210938
1702296757185423400,18.58542333984375,-2.187299966812134,6.012899875640869,4.602999687194824
1702296757245423400,18.64542333984375,5.805299758911133,-3.5016000270843506,-0.5383999943733215
1702296757305423400,18.70542333984375,-3.1566998958587646,-4.003399848937988,0.46639999747276306
1702296757365423400,18.76542333984375,4.107699871063232,-2.7746999263763428,-3.870299816131592
1702296757425423400,18.82542333984375,3.237499952316284,-2.50219988822937,-1.1348999738693237
1702296757485423400,18.88542333984375,-0.1370999962091446,0.5981999635696411,-2.735299825668335
1702296757545423400,18.94542333984375,0.20329999923706055,0.6507999897003174,-3.30079984664917
1702296757605425000,19.0054248046875,1.499400019645691,-1.2991999387741089,-3.2689998149871826
1702296757665423400,19.06542333984375,-0.6796999573707581,2.1775999069213867,-4.011899948120117
1702296757725423400,19.12542333984375,1.7925999164581299,11.230599403381348,3.4422998428344727
1702296757785423400,19.18542333984375,0.8756999969482422,-1.8083999156951904,4.047800064086914
1702296757845423400,19.24542333984375,-3.3616998195648193,-5.483699798583984,5.6844000816345215
1702296757905425000,19.3054248046875,1.5228999853134155,-5.623300075531006,1.6068999767303467
1702296757965423400,19.36542333984375,-2.621000051498413,-0.6351999640464783,4.990999698638916
1702296758025423400,19.42542333984375,-2.3598999977111816,-2.1019999980926514,-8.570300102233887
1702296758085423400,19.48542333984375,-0.751800000667572,3.3810999393463135,-2.3740999698638916
1702296758145423400,19.54542333984375,-3.1405999660491943,6.442299842834473,6.216899871826172
1702296758205423400,19.60542333984375,-1.440500020980835,3.298099994659424,-1.5123999118804932
1702296758265423400,19.66542333984375,-2.4639999866485596,0.7231999635696411,1.3284000158309937
1702296758325423400,19.72542333984375,2.712599992752075,-4.3206000328063965,2.9463000297546387
1702296758385423400,19.78542333984375,-1.0419999361038208,-0.9167999625205994,1.2482999563217163
1702296758445451500,19.845451416015624,4.2769999504089355,-1.976599931716919,-3.277099847793579
1702296758505425000,19.9054248046875,3.846099853515625,-2.2592999935150146,-5.682699680328369
1702296758565423400,19.96542333984375,2.424099922180176,1.2785999774932861,-1.8061999082565308
1702296758625423400,20.02542333984375,-1.1256999969482422,1.1883999109268188,-2.2402000427246094
1702296758685423400,20.08542333984375,1.0239999294281006,0.6220999956130981,-2.8185999393463135
1702296758745423400,20.14542333984375,0.23729999363422394,8.93179988861084,-0.429999977350235
1702296758805423400,20.20542333984375,2.983799934387207,-0.6204000115394592,2.534600019454956
1702296758865423400,20.26542333984375,-2.1001999378204346,-3.7311999797821045,4.719299793243408
1702296758925423400,20.32542333984375,-0.7788999676704407,-5.144799709320068,-1.0246000289916992
1702296758985423400,20.38542333984375,-0.7347999811172485,-2.7124998569488525,5.85129976272583
1702296759045423400,20.44542333984375,9.881400108337402,5.632199764251709,-2.9286999702453613
1702296759105423400,20.50542333984375,5.583399772644043,-2.388700008392334,-1.486199975013733
1702296759165423400,20.56542333984375,-1.9435999393463135,5.304500102996826,1.426800012588501
1702296759225423400,20.62542333984375,-5.109600067138672,1.4408999681472778,2.761699914932251
1702296759285423400,20.68542333984375,-2.8997998237609863,4.13569974899292,0.3440999984741211
1702296759345423400,20.74542333984375,8.014299392700195,-3.7926998138427734,0.6022999882698059
1702296759405423400,20.80542333984375,-7.849599838256836,-2.458199977874756,4.724899768829346
1702296759465423400,20.86542333984375,6.0976996421813965,-1.0621999502182007,-7.719299793243408
1702296759525423400,20.92542333984375,2.3987998962402344,-2.254199981689453,-1.1582999229431152
1702296759585423400,20.98542333984375,-0.9527999758720398,-1.0968999862670898,-3.4595999717712402
1702296759645423400,21.04542333984375,-0.008100000210106373,0.07400000095367432,-3.476300001144409
1702296759705423400,21.10542333984375,2.8982999324798584,0.006300000008195639,-3.017199993133545
1702296759765423400,21.16542333984375,-0.09070000052452087,1.8729000091552734,-1.5125999450683594
1702296759825423400,21.22542333984375,0.8949999809265137,9.057000160217285,2.429800033569336
1702296759885423400,21.28542333984375,2.226799964904785,-1.4002999067306519,2.1726999282836914
1702296759945423400,21.34542333984375,-2.0048999786376953,-3.740799903869629,4.338500022888184
1702296760005423400,21.40542333984375,-0.5566999912261963,-4.987299919128418,-0.11469999700784683
1702296760065423400,21.46542333984375,-0.8549000024795532,-3.1225998401641846,5.0808000564575195
1702296760125423400,21.52542333984375,17.82390022277832,13.49429988861084,-0.15609999001026154
1702296760185423400,21.58542333984375,8.739899635314941,-4.4532999992370605,-11.073999404907227
1702296760245423400,21.64542333984375,-5.349699974060059,4.985199928283691,5.06719970703125
1702296760305423400,21.70542333984375,-1.8291000127792358,-1.708899974822998,4.902599811553955
1702296760365423400,21.76542333984375,-2.5513999462127686,4.656399726867676,0.19689999520778656
1702296760425423400,21.82542333984375,1.8906999826431274,-2.1527998447418213,1.011099934577942
1702296760485423400,21.88542333984375,-1.684499979019165,-3.3860998153686523,1.403499960899353
1702296760545423400,21.94542333984375,2.3108999729156494,-1.7690999507904053,-3.2311999797821045
1702296760605423400,22.00542333984375,5.014999866485596,-3.119999885559082,-3.330699920654297
1702296760665423400,22.06542333984375,0.9285999536514282,1.0976999998092651,-1.940999984741211
1702296760725423400,22.12542333984375,-1.4828999042510986,4.077300071716309,-1.1416000127792358
1702296760785423400,22.18542333984375,1.4515999555587769,0.630899965763092,-1.171299934387207
1702296760845423400,22.24542333984375,0.9930999875068665,6.319499969482422,-2.187299966812134
1702296760905423400,22.30542333984375,0.7206999659538269,1.4292999505996704,2.5881998538970947
1702296760965425000,22.3654248046875,9.13479995727539,-2.6559998989105225,4.716899871826172
1702296761025423400,22.42542333984375,-5.434000015258789,-4.910599708557129,3.597399950027466
1702296761085423400,22.48542333984375,0.7046999931335449,-3.701200008392334,3.7720999717712402
1702296761145423400,22.54542333984375,9.45319938659668,7.126999855041504,-2.0744998455047607
1702296761205425000,22.6054248046875,5.581099987030029,-6.861700057983398,-1.7922999858856201
1702296761265423400,22.66542333984375,-2.6389000415802,9.369099617004395,-0.2692999839782715
1702296761325423400,22.72542333984375,-4.329400062561035,0.40199998021125793,1.9292999505996704
1702296761385423400,22.78542333984375,-3.151899814605713,1.6093999147415161,1.1450999975204468
1702296761445423400,22.84542333984375,2.518699884414673,-1.5751999616622925,1.3214999437332153
1702296761505423400,22.90542333984375,0.4235000014305115,-3.737499952316284,2.50249981880188
1702296761565423400,22.96542333984375,1.1155999898910522,-1.5508999824523926,-3.11080002784729
1702296761625423400,23.02542333984375,4.012599945068359,-2.9388999938964844,-2.0980000495910645
1702296761685423400,23.08542333984375,0.7953000068664551,2.131199836730957,-2.7914998531341553
1702296761745423400,23.14542333984375,-0.13109999895095825,0.5546999573707581,-1.8102999925613403
1702296761805423400,23.20542333984375,3.246799945831299,-0.7648999691009521,-2.591099977493286
1702296761865423400,23.26542333984375,-2.0722999572753906,3.1947999000549316,-3.3439998626708984
1702296761925423400,23.32542333984375,1.5340999364852905,5.611999988555908,2.127500057220459
1702296761985423400,23.38542333984375,-1.402999997138977,-1.6446999311447144,3.969399929046631
1702296762045423400,23.44542333984375,-0.1613999903202057,-4.618199825286865,2.9772000312805176
1702296762105423400,23.50542333984375,-0.7648999691009521,-4.262899875640869,4.098199844360352
1702296762165423400,23.56542333984375,2.8949999809265137,-3.2321999073028564,2.359099864959717
1702296762225425000,23.6254248046875,3.718400001525879,-2.5142998695373535,-11.865799903869629
1702296762285423400,23.68542333984375,-6.303799629211426,12.210799217224121,-4.978799819946289
1702296762345423400,23.74542333984375,-3.2468998432159424,-0.4728999733924866,8.792399406433105
1702296762405425000,23.8054248046875,-5.049699783325195,6.641900062561035,1.5311999320983887
1702296762465423400,23.86542333984375,7.5478997230529785,0.04389999806880951,-3.730299949645996
1702296762525423400,23.92542333984375,-3.4270999431610107,-4.406499862670898,1.3107999563217163
1702296762585423400,23.98542333984375,2.2123000621795654,-2.3676998615264893,0.009099999442696571
1702296762645423400,24.04542333984375,1.7788000106811523,-0.40359997749328613,0.3068999946117401
1702296762705425000,24.1054248046875,3.378199815750122,-2.8341000080108643,-1.86489999294281
1702296762765423400,24.16542333984375,2.0832998752593994,1.7477999925613403,-3.229099988937378
1702296762825423400,24.22542333984375,-0.5393999814987183,1.7032999992370605,-2.176300048828125
1702296762885423400,24.28542333984375,0.7063999772071838,-0.11369999498128891,-3.3180999755859375
1702296762945423400,24.34542333984375,0.5676000118255615,10.245499610900879,-1.0504999160766602
1702296763005425000,24.4054248046875,1.2304999828338623,0.3107999861240387,3.5974998474121094
1702296763065423400,24.46542333984375,-1.920300006866455,-3.9574999809265137,4.474299907684326
1702296763125423400,24.52542333984375,-0.7709999680519104,-6.875799655914307,1.2314000129699707
1702296763185423400,24.58542333984375,-2.4179999828338623,-5.30709981918335,5.269099712371826
1702296763245423400,24.64542333984375,14.169899940490723,10.898799896240234,-2.207200050354004
1702296763305425000,24.7054248046875,5.51639986038208,-4.982999801635742,-1.4279999732971191
1702296763365423400,24.76542333984375,-3.998699903488159,5.0218000411987305,-3.07669997215271
1702296763425423400,24.82542333984375,-1.3047000169754028,2.953199863433838,3.38349986076355
1702296763485423400,24.88542333984375,-2.3722000122070312,3.1178998947143555,1.8549000024795532
1702296763545423400,24.94542333984375,-0.8118000030517578,-1.4256999492645264,0.47259998321533203
1702296763605423400,25.00542333984375,1.0566999912261963,-2.7307000160217285,3.0397000312805176
1702296763665423400,25.06542333984375,-1.62309992313385,-2.0516998767852783,1.799899935722351
1702296763725423400,25.12542333984375,3.37719988822937,-1.5542999505996704,-3.3827998638153076
1702296763785423400,25.18542333984375,2.929299831390381,-0.3902999758720398,-2.7821998596191406
1702296763845423400,25.24542333984375,2.748800039291382,0.6083999872207642,-5.347599983215332
1702296763905423400,25.30542333984375,-1.4441999197006226,-1.0776000022888184,-0.1525000035762787
1702296763965423400,25.36542333984375,-0.48809999227523804,5.703399658203125,-3.7695999145507812
1702296764025423400,25.42542333984375,0.8398000001907349,5.799099922180176,1.7694998979568481
1702296764085423400,25.48542333984375,2.322399854660034,-1.1546999216079712,4.128600120544434
1702296764145423400,25.54542333984375,-2.327199935913086,-5.910999774932861,4.7044997215271
1702296764205423400,25.60542333984375,-1.0710999965667725,-5.6078996658325195,4.131099700927734
1702296764265423400,25.66542333984375,0.7439999580383301,-0.9406999945640564,3.655399799346924
1702296764325423400,25.72542333984375,-0.37139999866485596,5.177799701690674,-7.978299617767334
1702296764385423400,25.78542333984375,-1.9448999166488647,3.489499807357788,-1.240299940109253
1702296764445423400,25.84542333984375,-4.1290998458862305,0.7865999937057495,2.5185999870300293
1702296764505425000,25.9054248046875,-2.0525999069213867,4.510499954223633,3.5715999603271484
1702296764565423400,25.96542333984375,-2.0748000144958496,-0.6868999600410461,1.6128000020980835
1702296764625423400,26.02542333984375,3.413599967956543,-3.6865999698638916,0.46219998598098755
1702296764685423400,26.08542333984375,2.7863998413085938,-3.6726999282836914,-2.881199836730957
1702296764745423400,26.14542333984375,-1.081399917602539,0.4601999819278717,-2.2614998817443848
1702296764805423400,26.20542333984375,2.474299907684326,-0.8084999918937683,-4.147599697113037
1702296764865423400,26.26542333984375,-0.010300000198185444,-1.5561999082565308,-2.4194998741149902
1702296764925423400,26.32542333984375,2.1277999877929688,0.2825999855995178,-3.499199867248535
1702296764985423400,26.38542333984375,-2.2483999729156494,3.612799882888794,-4.304800033569336
1702296765045423400,26.44542333984375,5.673399925231934,8.031399726867676,3.3513998985290527
1702296765105425000,26.5054248046875,-0.7159000039100647,-1.233799934387207,3.8959999084472656
1702296765165423400,26.56542333984375,-2.558300018310547,-4.582099914550781,3.9728000164031982
1702296765225423400,26.62542333984375,-0.49300000071525574,-5.560199737548828,4.511499881744385
1702296765285423400,26.68542333984375,11.748199462890625,4.538599967956543,6.256799697875977
1702296765345423400,26.74542333984375,1.30649995803833,-4.9726996421813965,-4.9953999519348145
1702296765405423400,26.80542333984375,-5.963599681854248,7.623499870300293,-3.7323999404907227
1702296765465423400,26.86542333984375,-2.815999984741211,4.269499778747559,2.3125
1702296765525423400,26.92542333984375,-3.607100009918213,0.43799999356269836,1.256600022315979
1702296765585423400,26.98542333984375,1.3299999237060547,-2.109999895095825,1.7134000062942505
1702296765645423400,27.04542333984375,-0.21949999034404755,-3.8801000118255615,2.599599838256836
1702296765705425000,27.1054248046875,-0.4544000029563904,-1.0210000276565552,-1.605299949645996
1702296765765423400,27.16542333984375,4.82289981842041,-1.8228999376296997,-3.9088997840881348
1702296765825423400,27.22542333984375,1.955399990081787,0.6207000017166138,-4.686800003051758
1702296765885423400,27.28542333984375,1.6979999542236328,0.3885999917984009,-3.5712997913360596
1702296765945451500,27.345451416015624,0.609499990940094,0.7024999856948853,-1.1988999843597412
1702296766005423400,27.40542333984375,-1.1450999975204468,4.547299861907959,-3.0267999172210693
1702296766065423400,27.46542333984375,2.6384999752044678,3.871500015258789,2.849400043487549
1702296766125423400,27.52542333984375,0.28619998693466187,-2.057999849319458,3.8935999870300293
1702296766185423400,27.58542333984375,-3.5358998775482178,-4.764400005340576,5.024600028991699
1702296766245423400,27.64542333984375,-0.6406999826431274,-2.9144999980926514,2.6552000045776367
1702296766305423400,27.70542333984375,7.751699924468994,9.441399574279785,4.381499767303467
1702296766365423400,27.76542333984375,-0.44599997997283936,-5.97599983215332,-6.714200019836426
1702296766425423400,27.82542333984375,-7.621699810028076,8.73699951171875,-0.8176999688148499
1702296766485423400,27.88542333984375,-1.1208000183105469,-3.0792999267578125,4.152499675750732
1702296766545423400,27.94542333984375,-4.309000015258789,3.8862998485565186,2.0058999061584473
1702296766605423400,28.00542333984375,5.395099639892578,-1.3751999139785767,0.20919999480247498
1702296766665423400,28.06542333984375,-1.6370999813079834,-3.841899871826172,0.8199999928474426
1702296766725423400,28.12542333984375,1.8168998956680298,-1.305999994277954,-1.1519999504089355
1702296766785423400,28.18542333984375,3.7157998085021973,-2.222899913787842,-0.4830999970436096
1702296766845423400,28.24542333984375,0.5977999567985535,1.5322999954223633,-4.257299900054932
1702296766905423400,28.30542333984375,0.8504999876022339,0.3563999831676483,-2.4293999671936035
1702296766965423400,28.36542333984375,0.4486999809741974,0.811199963092804,-2.1836998462677
1702296767025423400,28.42542333984375,1.7974998950958252,5.786799907684326,-0.9584999680519104
1702296767085423400,28.48542333984375,1.0476999282836914,3.1661999225616455,2.9226999282836914
1702296767145423400,28.54542333984375,-0.23189999163150787,-1.3632999658584595,4.4614996910095215
1702296767205423400,28.60542333984375,-1.81659996509552,-5.374199867248535,2.984999895095825
1702296767265423400,28.66542333984375,-0.3243999779224396,-5.11329984664917,4.245800018310547
1702296767325423400,28.72542333984375,7.7876996994018555,4.422699928283691,1.4265999794006348
1702296767385423400,28.78542333984375,4.990999698638916,-5.989199638366699,-5.44249963760376
1702296767445423400,28.84542333984375,-1.7333999872207642,2.1131999492645264,-0.9990999698638916
1702296767505423400,28.90542333984375,-0.5953999757766724,11.85569953918457,6.902199745178223
1702296767565423400,28.96542333984375,-2.013000011444092,-0.3642999827861786,0.1931999921798706
1702296767625423400,29.02542333984375,-1.3004000186920166,0.3968999981880188,2.6290998458862305
1702296767685423400,29.08542333984375,3.209399938583374,-3.2050998210906982,3.197000026702881
1702296767745423400,29.14542333984375,0.07930000126361847,-1.8111000061035156,-2.2818000316619873
1702296767805423400,29.20542333984375,3.0546998977661133,-3.2119998931884766,-4.280900001525879
1702296767865423400,29.26542333984375,1.5367999076843262,0.3376999795436859,-3.1562998294830322
1702296767925423400,29.32542333984375,-0.9120999574661255,-0.5706999897956848,-1.0401999950408936
1702296767985423400,29.38542333984375,2.5220999717712402,-0.46639999747276306,-4.5204997062683105
1702296768045423400,29.44542333984375,-0.590399980545044,6.956399917602539,-3.615799903869629
1702296768105423400,29.50542333984375,3.516700029373169,3.309799909591675,1.3573999404907227
1702296768165423400,29.56542333984375,-0.501800000667572,-2.4144999980926514,4.401599884033203
1702296768225423400,29.62542333984375,-1.3478000164031982,-4.283100128173828,3.765699863433838
1702296768285423400,29.68542333984375,1.0379999876022339,-6.08519983291626,3.8736000061035156
1702296768345423400,29.74542333984375,3.319899797439575,3.8123998641967773,0.4593999981880188
1702296768405423400,29.80542333984375,5.485300064086914,-5.050600051879883,-4.507599830627441
1702296768465423400,29.86542333984375,-8.88010025024414,8.294899940490723,-1.059000015258789
1702296768525423400,29.92542333984375,-1.400399923324585,0.47529998421669006,2.9575998783111572
1702296768585423400,29.98542333984375,-2.6211998462677,3.2047998905181885,0.5690999627113342
1702296768645423400,30.04542333984375,2.493299961090088,-1.6854000091552734,1.3624999523162842
1702296768705423400,30.10542333984375,-0.2540999948978424,-3.394199848175049,3.4131999015808105
1702296768765423400,30.16542333984375,0.10159999877214432,-2.2202999591827393,-3.4823999404907227
1702296768825423400,30.22542333984375,4.200099945068359,-2.863999843597412,-3.0188000202178955
1702296768885423400,30.28542333984375,2.00600004196167,0.13120000064373016,-3.3142998218536377
1702296768945423400,30.34542333984375,-1.021799921989441,0.24899999797344208,-2.781599998474121
1702296769005423400,30.40542333984375,1.256600022315979,-0.27950000762939453,-2.3334999084472656
1702296769065423400,30.46542333984375,-0.08940000087022781,3.7956998348236084,-3.7986998558044434
1702296769125423400,30.52542333984375,2.05049991607666,6.541800022125244,3.651700019836426
1702296769185423400,30.58542333984375,0.9753999710083008,-2.61899995803833,3.1380999088287354
1702296769245423400,30.64542333984375,-2.1124000549316406,-3.8138999938964844,2.533399820327759
1702296769305425000,30.7054248046875,-0.3163999915122986,-4.679299831390381,2.174299955368042
1702296769365423400,30.76542333984375,-0.8269000053405762,0.6294999718666077,4.5954999923706055
1702296769425423400,30.82542333984375,1.9935998916625977,-1.646399974822998,-5.5777997970581055
1702296769485423400,30.88542333984375,-1.8997999429702759,4.215199947357178,-0.6741999983787537
1702296769545423400,30.94542333984375,1.3309999704360962,0.6198999881744385,1.2695999145507812
1702296769605423400,31.00542333984375,-4.049799919128418,2.8613998889923096,1.692199945449829
1702296769665423400,31.06542333984375,-0.2628999948501587,0.7051999568939209,1.128499984741211
1702296769725423400,31.12542333984375,-0.2581000030040741,-3.8660998344421387,1.3411999940872192
1702296769785423400,31.18542333984375,-0.34599998593330383,-1.0824999809265137,-1.3133999109268188
1702296769845423400,31.24542333984375,4.206299781799316,-2.69350004196167,-1.229099988937378
1702296769905425000,31.3054248046875,2.841399908065796,-0.27149999141693115,-2.6113998889923096
1702296769965423400,31.36542333984375,-0.6696000099182129,1.1471999883651733,-0.6966999769210815
1702296770025423400,31.42542333984375,2.9982998371124268,-2.3957998752593994,-3.208699941635132
1702296770085423400,31.48542333984375,0.003499999875202775,1.431899905204773,-4.315000057220459
1702296770145423400,31.54542333984375,1.7704999446868896,9.959400177001953,0.07009999454021454
1702296770205423400,31.60542333984375,2.005199909210205,-0.5618000030517578,2.762699842453003
1702296770265423400,31.66542333984375,-1.8309999704360962,-3.5451998710632324,4.048399925231934
1702296770325423400,31.72542333984375,0.9869999885559082,-4.89769983291626,1.4958999156951904
1702296770385423400,31.78542333984375,0.578000009059906,-2.2581000328063965,4.902199745178223
1702296770445451500,31.845451416015624,0.6672999858856201,0.24879999458789825,-9.158599853515625
1702296770505423400,31.90542333984375,1.2196999788284302,3.0157999992370605,-1.6461999416351318
1702296770565423400,31.96542333984375,2.9684998989105225,2.757499933242798,3.3379998207092285
1702296770625423400,32.02542333984375,-5.019599914550781,3.673099994659424,2.092599868774414
1702296770685423400,32.08542333984375,-0.5687999725341797,1.5268999338150024,0.4377000033855438
1702296770745423400,32.14542333984375,0.6265000104904175,-3.7869999408721924,1.4199999570846558
1702296770805425000,32.2054248046875,-1.344099998474121,-1.8901000022888184,-0.2263999879360199
1702296770865423400,32.26542333984375,4.707299709320068,-1.588499903678894,-1.7143999338150024
1702296770925423400,32.32542333984375,1.591499924659729,-1.4843999147415161,-1.4041999578475952
1702296770985423400,32.38542333984375,1.431999921798706,1.2350999116897583,-2.2604000568389893
1702296771045423400,32.44542333984375,1.6928999423980713,0.5439000129699707,-2.242300033569336
1702296771105423400,32.50542333984375,1.4184999465942383,-2.7854998111724854,-0.48729997873306274
1702296771165423400,32.56542333984375,0.25220000743865967,5.47160005569458,-1.7208999395370483
1702296771225423400,32.62542333984375,1.9607999324798584,3.5311999320983887,2.07099986076355
1702296771285423400,32.68542333984375,0.5940999984741211,-2.628499984741211,1.948699951171875
1702296771345423400,32.74542333984375,-0.4341000020503998,-3.7099997997283936,1.890199899673462
1702296771405423400,32.80542333984375,-0.5593999624252319,-3.7177999019622803,3.7558000087738037
1702296771465423400,32.86542333984375,2.3626999855041504,-1.6589999198913574,2.984099864959717
1702296771525423400,32.92542333984375,-0.21050000190734863,-2.387399911880493,-7.112499713897705
1702296771585423400,32.98542333984375,-5.744999885559082,7.905099868774414,-2.7685999870300293
1702296771645423400,33.04542333984375,0.09459999948740005,-2.262699842453003,4.117099761962891
1702296771705425000,33.1054248046875,-2.3931000232696533,0.8481000065803528,-0.4106999933719635
1702296771765423400,33.16542333984375,-0.9953999519348145,1.5686999559402466,1.6787999868392944
1702296771825423400,33.22542333984375,1.1445999145507812,-3.3439998626708984,2.398099899291992
1702296771885423400,33.28542333984375,-2.4656999111175537,-2.1397998332977295,-2.338599920272827
1702296771945423400,33.34542333984375,3.2226998805999756,-2.1701998710632324,-1.1840999126434326
1702296772005423400,33.40542333984375,1.108299970626831,-0.3139999806880951,-1.6799999475479126
1702296772065423400,33.46542333984375,-0.8014000058174133,2.54830002784729,-0.8410999774932861
1702296772125423400,33.52542333984375,-0.764799952507019,-1.6414999961853027,-0.998699963092804
1702296772185423400,33.58542333984375,1.4180999994277954,-0.007199999876320362,-3.111999988555908
1702296772245423400,33.64542333984375,2.1605000495910645,5.2667999267578125,-1.1678999662399292
1702296772305423400,33.70542333984375,0.9400999546051025,-1.0358999967575073,1.5981999635696411
1702296772365423400,33.76542333984375,-0.21660000085830688,-3.172799825668335,3.389400005340576
1702296772425423400,33.82542333984375,0.10239999741315842,-3.4410998821258545,2.024399995803833
1702296772485423400,33.88542333984375,2.137199878692627,-3.5497000217437744,2.179499864578247
1702296772545423400,33.94542333984375,0.3928000032901764,1.156599998474121,-6.730099678039551
1702296772605425000,34.0054248046875,2.778899908065796,4.484600067138672,-0.08699999749660492
1702296772665423400,34.06542333984375,-0.4396999776363373,3.951200008392334,5.358500003814697
1702296772725423400,34.12542333984375,-2.177000045776367,1.19569993019104,-0.3416000008583069
1702296772785423400,34.18542333984375,0.6977999806404114,0.5065999627113342,0.07339999824762344
1702296772845423400,34.24542333984375,1.713499903678894,-2.809299945831299,0.839199960231781
1702296772905425000,34.3054248046875,0.12520000338554382,-0.9987999796867371,0.6951000094413757
1702296772965423400,34.36542333984375,2.867799997329712,-2.1910998821258545,-2.2525999546051025
1702296773025423400,34.42542333984375,2.4465999603271484,-2.613600015640259,-2.259500026702881
1702296773085423400,34.48542333984375,1.406999945640564,0.471699982881546,-1.0819000005722046
1702296773145423400,34.54542333984375,-0.45329999923706055,-0.0625,-1.3794000148773193
1702296773205423400,34.60542333984375,4.597300052642822,-0.22579999268054962,-4.122499942779541
1702296773265423400,34.66542333984375,0.40609997510910034,1.272499918937683,-1.2603999376296997
1702296773325423400,34.72542333984375,-3.051299810409546,3.2416999340057373,-1.7856999635696411
1702296773385423400,34.78542333984375,0.876800000667572,1.3561999797821045,1.2214000225067139
1702296773445423400,34.84542333984375,0.5145999789237976,-2.8636999130249023,2.5548999309539795
1702296773505423400,34.90542333984375,-1.5784000158309937,-4.824399948120117,-1.1265000104904175
1702296773565423400,34.96542333984375,-1.0856000185012817,-3.1682000160217285,4.061500072479248
1702296773625423400,35.02542333984375,4.148200035095215,1.2667999267578125,2.726300001144409
1702296773685423400,35.08542333984375,1.8113999366760254,-2.8687000274658203,-2.1052000522613525
1702296773745423400,35.14542333984375,-1.2199000120162964,-2.203199863433838,0.30709999799728394
1702296773805423400,35.20542333984375,-8.801599502563477,12.37559986114502,-4.774199962615967
1702296773865423400,35.26542333984375,-5.6092000007629395,-2.6836998462677,2.350600004196167
1702296773925423400,35.32542333984375,-3.5033998489379883,-0.42809998989105225,3.168599843978882
1702296773985423400,35.38542333984375,6.730799674987793,2.827399969100952,-1.6741999387741089
1702296774045423400,35.44542333984375,-6.680500030517578,-1.7706999778747559,1.94760000705719
1702296774105425000,35.5054248046875,1.972999930381775,-0.8069999814033508,-2.105299949645996
1702296774165423400,35.56542333984375,-0.17909999191761017,-1.9645999670028687,-0.019999999552965164
1702296774225423400,35.62542333984375,3.1302998065948486,-2.3078999519348145,-0.5047000050544739
1702296774285423400,35.68542333984375,0.09649999439716339,-1.3720999956130981,-4.464600086212158
1702296774345423400,35.74542333984375,0.34059998393058777,1.5546000003814697,-1.6423999071121216
1702296774405425000,35.8054248046875,2.419299840927124,1.8456999063491821,-3.9126999378204346
1702296774465423400,35.86542333984375,-5.2683000564575195,1.6035999059677124,0.5453999638557434
1702296774525423400,35.92542333984375,1.2630000114440918,1.3976999521255493,0.9133999943733215
1702296774585423400,35.98542333984375,-0.6092999577522278,-0.9332999587059021,1.2023999691009521
1702296774645423400,36.04542333984375,1.917699933052063,-3.183300018310547,-1.30239999294281
1702296774705425000,36.1054248046875,-2.1714999675750732,-2.4387998580932617,2.0360000133514404
1702296774765423400,36.16542333984375,-0.9960999488830566,-2.999199867248535,4.531599998474121
1702296774825423400,36.22542333984375,5.503699779510498,0.4047999978065491,3.0590999126434326
1702296774885423400,36.28542333984375,-1.8493999242782593,-4.394000053405762,-6.375499725341797
1702296774945451500,36.34545141601563,2.6342999935150146,12.552399635314941,-5.836699962615967
1702296775005425000,36.4054248046875,-5.344599723815918,-2.738499879837036,6.032899856567383
1702296775065423400,36.46542333984375,-2.614799976348877,2.575399875640869,3.940699815750122
1702296775125423400,36.52542333984375,-3.6636998653411865,-1.4763000011444092,-0.5902999639511108
1702296775185423400,36.58542333984375,2.32099986076355,-2.3797998428344727,-0.7143999934196472
1702296775245423400,36.64542333984375,-0.1014999970793724,-0.9902999997138977,0.2230999916791916
1702296775305425000,36.7054248046875,2.751199960708618,-0.8126999735832214,-0.41509997844696045
1702296775365423400,36.76542333984375,3.506500005722046,-3.0214998722076416,-1.4404000043869019
1702296775425423400,36.82542333984375,2.3422000408172607,0.3646000027656555,-1.8150999546051025
1702296775485425000,36.8854248046875,-1.7203999757766724,4.106199741363525,-1.611899971961975
1702296775545423400,36.94542333984375,1.8887999057769775,1.7831000089645386,-1.7342000007629395
1702296775605423400,37.00542333984375,-0.26659998297691345,0.2818000018596649,1.1836999654769897
1702296775665423400,37.06542333984375,1.3329999446868896,3.0025999546051025,-0.28439998626708984
1702296775725423400,37.12542333984375,1.129599928855896,-1.3573999404907227,3.720399856567383
1702296775785423400,37.18542333984375,0.19619999825954437,-5.593999862670898,0.13599999248981476
1702296775845423400,37.24542333984375,0.3150999844074249,-2.822499990463257,2.213599920272827
1702296775905423400,37.30542333984375,1.2969999313354492,-3.4537999629974365,4.1728997230529785
1702296775965423400,37.36542333984375,-2.681299924850464,6.786399841308594,-11.326199531555176
1702296776025423400,37.42542333984375,4.071899890899658,-0.21779999136924744,-2.789799928665161
1702296776085423400,37.48542333984375,-5.644399642944336,0.6601999998092651,8.296199798583984
1702296776145423400,37.54542333984375,-4.580699920654297,6.3618998527526855,4.6219000816345215
1702296776205425000,37.6054248046875,-1.1347999572753906,-0.29829999804496765,-0.41449999809265137
1702296776265423400,37.66542333984375,2.5329999923706055,-3.7039999961853027,-2.275399923324585
1702296776325423400,37.72542333984375,-0.04010000079870224,-2.091399908065796,0.7229999899864197
1702296776385423400,37.78542333984375,2.3640999794006348,-0.34939998388290405,-1.5037999153137207
1702296776445423400,37.84542333984375,6.15910005569458,-2.726099967956543,-3.7776999473571777
1702296776505423400,37.90542333984375,0.13930000364780426,1.3494999408721924,-2.6355998516082764
1702296776565423400,37.96542333984375,-0.890999972820282,-0.7382000088691711,-0.3471999764442444
1702296776625423400,38.02542333984375,1.9823999404907227,2.5114998817443848,-1.8535000085830688
1702296776685423400,38.08542333984375,0.839199960231781,4.687399864196777,0.42319998145103455
1702296776745423400,38.14542333984375,2.0500998497009277,-1.8585000038146973,2.6542999744415283
1702296776805425000,38.2054248046875,1.2645999193191528,-4.6006999015808105,0.49939998984336853
1702296776865423400,38.26542333984375,-0.9819999933242798,-4.42519998550415,3.188999891281128
1702296776925423400,38.32542333984375,-1.6875,-0.7548999786376953,5.268099784851074
1702296776985423400,38.38542333984375,1.5978999137878418,1.2343000173568726,-8.236700057983398
1702296777045423400,38.44542333984375,0.7163999676704407,1.6144999265670776,1.2527999877929688
1702296777105423400,38.50542333984375,-3.982800006866455,0.9641000032424927,1.847000002861023
1702296777165423400,38.56542333984375,2.915799856185913,5.793799877166748,3.831699848175049
1702296777225423400,38.62542333984375,-1.295799970626831,-2.8905999660491943,1.4569000005722046
1702296777285423400,38.68542333984375,2.047299861907959,-2.6322999000549316,-0.28110000491142273
1702296777345423400,38.74542333984375,3.6823999881744385,-1.7529000043869019,-1.0037999153137207
1702296777405423400,38.80542333984375,4.923199653625488,-0.9513999819755554,-3.8307998180389404
1702296777465423400,38.86542333984375,1.6287000179290771,2.1640000343322754,-1.4472999572753906
1702296777525423400,38.92542333984375,0.5893999934196472,0.35199999809265137,-1.351199984550476
1702296777585423400,38.98542333984375,-1.594599962234497,1.093500018119812,-3.6230998039245605
1702296777645423400,39.04542333984375,2.4911999702453613,7.1118998527526855,0.3958999812602997
1702296777705423400,39.10542333984375,0.8914999961853027,-0.7985999584197998,4.924799919128418
1702296777765423400,39.16542333984375,-0.9147999882698059,-5.266499996185303,4.0046000480651855
1702296777825423400,39.22542333984375,1.3457000255584717,-5.749499797821045,2.446899890899658
1702296777885423400,39.28542333984375,3.4382998943328857,1.2063000202178955,4.415800094604492
1702296777945423400,39.34542333984375,2.0197999477386475,-4.01039981842041,-5.781399726867676
1702296778005425000,39.4054248046875,-5.144499778747559,7.862199783325195,-2.1610000133514404
1702296778065423400,39.46542333984375,-3.0595998764038086,4.040999889373779,6.546099662780762
1702296778125423400,39.52542333984375,-4.577199935913086,1.7430999279022217,1.6930999755859375
1702296778185423400,39.58542333984375,5.273499965667725,0.5590999722480774,-0.9784999489784241
1702296778245423400,39.64542333984375,-2.2177000045776367,-3.55679988861084,-1.507599949836731
1702296778305425000,39.7054248046875,2.850100040435791,-1.5856999158859253,-0.5248000025749207
1702296778365423400,39.76542333984375,5.646399974822998,-2.3439998626708984,-1.7809998989105225
1702296778425423400,39.82542333984375,2.231299877166748,-2.8287999629974365,-3.1024999618530273
1702296778485423400,39.88542333984375,-0.8145999908447266,2.970399856567383,1.368499994277954
1702296778545423400,39.94542333984375,-0.04939999803900719,-0.1370999962091446,-4.220699787139893
1702296778605425000,40.0054248046875,0.053999997675418854,0.06969999521970749,-4.921000003814697
1702296778665423400,40.06542333984375,-1.7405999898910522,6.889999866485596,-0.3351999819278717
1702296778725423400,40.12542333984375,1.6531999111175537,-0.7267999649047852,-0.12809999287128448
1702296778785423400,40.18542333984375,-0.3653999865055084,-3.4846999645233154,3.18969988822937
1702296778845423400,40.24542333984375,-1.0787999629974365,-3.885199785232544,5.417200088500977
1702296778905425000,40.3054248046875,-0.7450000047683716,-5.139400005340576,4.548099994659424
1702296778965423400,40.36542333984375,5.586599826812744,0.7811999917030334,-2.0341999530792236
1702296779025423400,40.42542333984375,1.0074999332427979,-3.0112998485565186,-1.355799913406372
1702296779085423400,40.48542333984375,5.376399993896484,22.623199462890625,-2.8345999717712402
1702296779145423400,40.54542333984375,-5.07859992980957,-3.599799871444702,5.571399688720703
1702296779205425000,40.6054248046875,-4.023299694061279,2.5349998474121094,1.045199990272522
1702296779265423400,40.66542333984375,9.583700180053711,-3.342399835586548,-1.062999963760376
1702296779325423400,40.72542333984375,5.167900085449219,-1.8736999034881592,-1.3269000053405762
1702296779385423400,40.78542333984375,-0.12520000338554382,-2.185999870300293,0.8766999840736389
1702296779445423400,40.84542333984375,5.336999893188477,-3.531899929046631,-1.5230000019073486
1702296779505425000,40.9054248046875,0.4072999954223633,-1.9323999881744385,-5.137499809265137
1702296779565423400,40.96542333984375,-1.570199966430664,3.572000026702881,0.424699991941452
1702296779625423400,41.02542333984375,-1.8336999416351318,-1.4062999486923218,-2.421599864959717
1702296779685423400,41.08542333984375,1.6685999631881714,3.2923998832702637,-4.62529993057251
1702296779745423400,41.14542333984375,0.7846999764442444,5.1778998374938965,1.2752000093460083
1702296779805493800,41.20549365234375,1.1621999740600586,-3.220899820327759,1.782599925994873
1702296779865423400,41.26542333984375,-0.09279999881982803,-3.1026999950408936,2.238999843597412
1702296779925423400,41.32542333984375,-0.7631999850273132,-3.9088997840881348,6.13539981842041
1702296779985423400,41.38542333984375,2.7790000438690186,-2.1404998302459717,3.654399871826172
1702296780045423400,41.44542333984375,-2.68999981880188,0.058799996972084045,-6.320099830627441
1702296780105425000,41.5054248046875,1.108799934387207,7.7328996658325195,-3.081899881362915
1702296780165423400,41.56542333984375,-2.233299970626831,1.0899999141693115,3.236999988555908
1702296780225423400,41.62542333984375,-5.180200099945068,3.4502999782562256,1.5358999967575073
1702296780285423400,41.68542333984375,6.033599853515625,-2.5764999389648438,-1.2602999210357666
1702296780345423400,41.74542333984375,1.7163000106811523,-3.6125998497009277,-0.7172999978065491
1702296780405423400,41.80542333984375,0.9501999616622925,-1.4259999990463257,0.6442999839782715
1702296780465423400,41.86542333984375,3.3192999362945557,-2.6452999114990234,0.30799999833106995
1702296780525423400,41.92542333984375,2.0132999420166016,-1.2516999244689941,-1.9994999170303345
1702296780585423400,41.98542333984375,-0.9296000003814697,0.7252999544143677,-3.2563998699188232
1702296780645423400,42.04542333984375,-1.3554999828338623,0.4526999890804291,-3.8726999759674072
1702296780705425000,42.1054248046875,2.9721999168395996,7.231799602508545,-1.20169997215271
1702296780765423400,42.16542333984375,0.9902999997138977,4.985499858856201,3.2592999935150146
1702296780825423400,42.22542333984375,1.0128999948501587,-1.7734999656677246,3.559000015258789
1702296780885423400,42.28542333984375,-3.1956000328063965,-4.322000026702881,1.4696999788284302
1702296780945423400,42.34542333984375,-0.3910999894142151,-2.740499973297119,5.619100093841553
1702296781005425000,42.4054248046875,1.580299973487854,-1.930799961090088,6.232399940490723
1702296781065423400,42.46542333984375,2.74399995803833,1.1137999296188354,-12.772199630737305
1702296781125423400,42.52542333984375,-2.5037999153137207,7.323699951171875,-1.3342000246047974
1702296781185423400,42.58542333984375,-1.500999927520752,1.3638999462127686,4.5457000732421875
1702296781245423400,42.64542333984375,-4.331500053405762,3.7717998027801514,3.50849986076355
1702296781305425000,42.7054248046875,-1.416599988937378,3.359999895095825,1.0691999197006226
1702296781365423400,42.76542333984375,0.13159999251365662,-2.9823999404907227,0.41349998116493225
1702296781425423400,42.82542333984375,1.361899971961975,-4.426199913024902,-3.5618999004364014
1702296781485423400,42.88542333984375,1.615799903869629,0.4511999785900116,-0.8312000036239624
1702296781545423400,42.94542333984375,6.52239990234375,-0.4147000014781952,-4.413700103759766
1702296781605425000,43.0054248046875,7.856799602508545,-7.039999961853027,-2.757699966430664
1702296781665423400,43.06542333984375,-1.9943000078201294,-5.098999977111816,2.0379998683929443
1702296781725423400,43.12542333984375,-2.6480000019073486,5.680799961090088,1.7024999856948853
1702296781785423400,43.18542333984375,8.283100128173828,-0.14549998939037323,-4.619899749755859
1702296781845423400,43.24542333984375,1.1324999332427979,2.8292999267578125,-4.000400066375732
1702296781905425000,43.3054248046875,-0.3301999866962433,5.407599925994873,-2.0005998611450195
1702296781965423400,43.36542333984375,-2.7834999561309814,1.6721999645233154,3.182499885559082
1702296782025423400,43.42542333984375,-4.008999824523926,-3.9328999519348145,-1.6787999868392944
1702296782085423400,43.48542333984375,-1.5995999574661255,-3.2913999557495117,2.512500047683716
1702296782145423400,43.54542333984375,-9.88659954071045,-1.0612999200820923,9.199600219726562
1702296782205423400,43.60542333984375,-3.760200023651123,-6.283599853515625,5.651400089263916
1702296782265423400,43.66542333984375,1.5937999486923218,6.938599586486816,-1.2939999103546143
1702296782325423400,43.72542333984375,4.200900077819824,0.38349997997283936,-3.690500020980835
1702296782385423400,43.78542333984375,2.6315999031066895,5.569399833679199,-2.890199899673462
1702296782445451500,43.84545141601563,-13.680899620056152,-1.3853999376296997,7.4238996505737305
1702296782505425000,43.9054248046875,-2.535099983215332,7.068999767303467,4.561399936676025
1702296782565423400,43.96542333984375,-4.921099662780762,-1.232699990272522,-3.86899995803833
1702296782625423400,44.02542333984375,-1.740899920463562,-2.1814000606536865,-5.165999889373779
1702296782685423400,44.08542333984375,6.200099945068359,-6.600100040435791,-3.7548999786376953
1702296782745423400,44.14542333984375,-1.152999997138977,-0.2320999950170517,-1.1100000143051147
1702296782805425000,44.2054248046875,1.0270999670028687,-0.3814999759197235,2.3892998695373535
1702296782865423400,44.26542333984375,6.729099750518799,-2.8427999019622803,-0.5798999667167664
1702296782925423400,44.32542333984375,-2.9609999656677246,4.1377997398376465,1.1093000173568726
1702296782985423400,44.38542333984375,0.9251999855041504,5.589200019836426,-1.5509999990463257
1702296783045423400,44.44542333984375,-1.6525999307632446,4.489999771118164,-0.8227999806404114
1702296783105425000,44.5054248046875,3.1619999408721924,8.030499458312988,0.800599992275238
1702296783165423400,44.56542333984375,0.5924000144004822,-1.1251999139785767,1.9071999788284302
1702296783225423400,44.62542333984375,-0.9929999709129333,-4.103499889373779,3.1952998638153076
1702296783285423400,44.68542333984375,-0.6274999976158142,-6.603600025177002,3.852099895477295
1702296783345423400,44.74542333984375,1.0658999681472778,-7.230199813842773,4.151099681854248
1702296783405425000,44.8054248046875,10.121500015258789,8.248899459838867,-7.184199810028076
1702296783465423400,44.86542333984375,4.69950008392334,-3.1854000091552734,2.8690998554229736
1702296783525423400,44.92542333984375,-12.256400108337402,5.904999732971191,-4.713799953460693
1702296783585423400,44.98542333984375,-3.6133999824523926,2.937700033187866,1.6114000082015991
1702296783645423400,45.04542333984375,0.024000000208616257,-1.5441999435424805,-1.0467000007629395
1702296783705425000,45.1054248046875,-2.38319993019104,-1.0018999576568604,3.178799867630005
1702296783765423400,45.16542333984375,3.554299831390381,-0.2786000072956085,3.277400016784668
1702296783825425000,45.2254248046875,3.6542999744415283,-2.272599935531616,-3.2207000255584717
1702296783885425000,45.2854248046875,4.610099792480469,-2.7288999557495117,-2.562199831008911
1702296783945423400,45.34542333984375,1.3330999612808228,2.250499963760376,-2.3086998462677
1702296784005425000,45.4054248046875,-0.8707999587059021,1.0870000123977661,-1.931899905204773
1702296784065423400,45.46542333984375,0.7792999744415283,-1.5820000171661377,-0.850600004196167
1702296784125423400,45.52542333984375,1.6398999691009521,10.912699699401855,-3.0500998497009277
1702296784185423400,45.58542333984375,2.2495999336242676,1.8249999284744263,2.0083999633789062
1702296784245423400,45.64542333984375,0.20309999585151672,-2.472899913787842,4.2667999267578125
1702296784305425000,45.7054248046875,-1.4164999723434448,-5.149699687957764,1.7759000062942505
1702296784365423400,45.76542333984375,0.41110000014305115,-5.187099933624268,4.584799766540527
1702296784425423400,45.82542333984375,1.9715999364852905,0.901199996471405,2.5257999897003174
1702296784485423400,45.88542333984375,4.317800045013428,-3.4032998085021973,-5.501299858093262
1702296784545423400,45.94542333984375,-6.180599689483643,6.490299701690674,-3.0002999305725098
1702296784605425000,46.0054248046875,0.508899986743927,-0.9413999915122986,2.2126998901367188
1702296784665423400,46.06542333984375,-4.144400119781494,2.154899835586548,0.9746999740600586
1702296784725423400,46.12542333984375,4.17140007019043,0.2360999882221222,1.4648000001907349
1702296784785425000,46.1854248046875,0.5260999798774719,-3.7304999828338623,3.14139986038208
1702296784845425000,46.2454248046875,0.9472999572753906,-1.101099967956543,-0.7444999814033508
1702296784905423400,46.30542333984375,3.6706998348236084,-2.0246999263763428,-1.8531999588012695
1702296784965425000,46.3654248046875,4.945699691772461,-1.0068999528884888,-1.9120999574661255
1702296785025423400,46.42542333984375,2.1461000442504883,2.9965999126434326,-1.4924999475479126
1702296785085423400,46.48542333984375,1.3090999126434326,1.3464999198913574,-4.689599990844727
1702296785145423400,46.54542333984375,1.8422999382019043,-1.6830999851226807,-3.4062998294830322
1702296785205425000,46.6054248046875,-0.344899982213974,7.3048996925354,-1.8077999353408813
1702296785265423400,46.66542333984375,2.283400058746338,0.2612999975681305,3.7264997959136963
1702296785325423400,46.72542333984375,-0.7303999662399292,-3.117499828338623,3.864799976348877
1702296785385423400,46.78542333984375,-1.4186999797821045,-4.2779998779296875,0.6834999918937683
1702296785445423400,46.84542333984375,-1.3102999925613403,-2.3553998470306396,5.35759973526001
1702296785505425000,46.9054248046875,13.452399253845215,5.6875,0.559499979019165
1702296785565423400,46.96542333984375,3.7154998779296875,-5.615200042724609,-3.949899911880493
1702296785625423400,47.02542333984375,-1.0685999393463135,4.834399700164795,-0.7774999737739563
1702296785685423400,47.08542333984375,-4.4243998527526855,1.8953999280929565,0.28369998931884766
1702296785745423400,47.14542333984375,-1.9778999090194702,3.477299928665161,2.501499891281128
1702296785805425000,47.2054248046875,0.9991999864578247,-1.622999906539917,1.2426999807357788
1702296785865423400,47.26542333984375,-0.5525999665260315,-3.5735998153686523,3.1877999305725098
1702296785925423400,47.32542333984375,2.1426000595092773,-0.5692999958992004,-2.010699987411499
1702296785985423400,47.38542333984375,4.857199668884277,-2.580699920654297,-3.888199806213379
1702296786045423400,47.44542333984375,3.7064998149871826,0.8264999985694885,-3.182799816131592
1702296786105423400,47.50542333984375,1.1202999353408813,1.5644999742507935,-1.2249000072479248
1702296786165423400,47.56542333984375,0.08419999480247498,0.6789000034332275,-2.459399938583374
1702296786225423400,47.62542333984375,-0.8113999962806702,6.260499954223633,-2.0683999061584473
1702296786285423400,47.68542333984375,5.206699848175049,2.355799913406372,1.7996999025344849
1702296786345423400,47.74542333984375,-1.3003000020980835,-2.8897998332977295,4.752799987792969
1702296786405425000,47.8054248046875,-0.7024999856948853,-5.373499870300293,2.635499954223633
1702296786465423400,47.86542333984375,-0.9985999464988708,-3.9052000045776367,4.227799892425537
1702296786525423400,47.92542333984375,7.364299774169922,5.729899883270264,3.257699966430664
1702296786585423400,47.98542333984375,3.380499839782715,-5.692999839782715,-7.836299896240234
1702296786645425000,48.0454248046875,-6.40310001373291,7.691299915313721,1.5585999488830566
1702296786705425000,48.1054248046875,-2.1991000175476074,-1.368399977684021,3.3860998153686523
1702296786765423400,48.16542333984375,-2.047299861907959,4.577600002288818,0.8355000019073486
1702296786825423400,48.22542333984375,2.694399833679199,-0.5759999752044678,1.2314999103546143
1702296786885423400,48.28542333984375,-1.4520999193191528,-4.207799911499023,3.4061999320983887
1702296786945451500,48.34545141601563,0.5284000039100647,-1.081399917602539,-1.927799940109253
1702296787005425000,48.4054248046875,4.619100093841553,-1.7109999656677246,-2.940699815750122
1702296787065423400,48.46542333984375,2.708400011062622,-0.4152999818325043,-2.1153998374938965
1702296787125423400,48.52542333984375,0.1516999900341034,-0.02589999884366989,-1.2132999897003174
1702296787185423400,48.58542333984375,1.6552999019622803,-1.0084999799728394,-2.02620005607605
1702296787245423400,48.64542333984375,1.1420999765396118,1.9148999452590942,-1.4133999347686768
1702296787305423400,48.70542333984375,1.1288999319076538,8.769299507141113,-1.403499960899353
1702296787365423400,48.76542333984375,2.0586998462677,-0.1590999960899353,2.5367000102996826
1702296787425423400,48.82542333984375,-1.8951998949050903,-2.743499994277954,3.9819998741149902
1702296787485423400,48.88542333984375,0.7087999582290649,-5.483399868011475,2.4251999855041504
1702296787545423400,48.94542333984375,0.19349999725818634,-3.2986998558044434,5.018899917602539
1702296787605425000,49.0054248046875,3.8902997970581055,3.40559983253479,-8.624799728393555
1702296787665423400,49.06542333984375,2.0497000217437744,-3.041800022125244,1.3720999956130981
1702296787725423400,49.12542333984375,-2.2535998821258545,9.262100219726562,2.1506998538970947
1702296787785423400,49.18542333984375,-4.08929967880249,0.3895999789237976,2.36080002784729
1702296787845423400,49.24542333984375,-1.1845999956130981,2.4909000396728516,1.3672000169754028
1702296787905425000,49.3054248046875,0.275299996137619,-1.6511999368667603,0.9621999859809875
1702296787965423400,49.36542333984375,-1.5059999227523804,-0.5166999697685242,1.4097999334335327
1702296788025423400,49.42542333984375,3.6626999378204346,-1.1492999792099,-2.024399995803833
1702296788085425000,49.4854248046875,3.1675000190734863,-3.754199981689453,-3.0934998989105225
1702296788145423400,49.54542333984375,2.0490000247955322,-0.22439999878406525,-1.1721999645233154
1702296788205425000,49.6054248046875,0.181099995970726,-1.1231999397277832,-0.7823999524116516
1702296788265423400,49.66542333984375,0.8070999979972839,0.042799998074769974,-1.8140000104904175
1702296788325423400,49.72542333984375,2.2196998596191406,7.5702996253967285,-4.160599708557129
1702296788385423400,49.78542333984375,3.380699872970581,1.928399920463562,0.8314999938011169
1702296788445423400,49.84542333984375,0.6784999966621399,-2.720099925994873,2.246999979019165
1702296788505425000,49.9054248046875,-10.675199508666992,-0.9038999676704407,7.697299957275391
1702296788565423400,49.96542333984375,-1.199299931526184,-3.131899833679199,3.9482998847961426
1702296788625423400,50.02542333984375,0.5277999639511108,0.42249998450279236,4.717799663543701
1702296788685423400,50.08542333984375,4.313699722290039,0.5394999980926514,-6.145899772644043
1702296788745423400,50.14542333984375,6.990900039672852,-1.2555999755859375,1.205899953842163
1702296788805423400,50.20542333984375,-4.416999816894531,5.026700019836426,2.4103000164031982
1702296788865423400,50.26542333984375,1.1906999349594116,4.1691999435424805,2.4661998748779297
1702296788925423400,50.32542333984375,-2.533399820327759,-0.07729999721050262,0.7057999968528748
1702296788985425000,50.3854248046875,3.0124998092651367,-2.1203999519348145,1.0478999614715576
1702296789045423400,50.44542333984375,-1.9711999893188477,-1.4957000017166138,2.082900047302246
1702296789105425000,50.5054248046875,4.451900005340576,-1.3155999183654785,-3.7170000076293945
1702296789165423400,50.56542333984375,3.915299892425537,-3.2028000354766846,-4.099499702453613
1702296789225423400,50.62542333984375,1.0235999822616577,0.04349999874830246,-2.1935999393463135
1702296789285423400,50.68542333984375,0.9479999542236328,0.9196999669075012,-1.674899935722351
1702296789345423400,50.74542333984375,0.21719999611377716,1.0642999410629272,-0.9200999736785889
1702296789405425000,50.8054248046875,0.9027000069618225,3.1240999698638916,-2.453699827194214
1702296789465423400,50.86542333984375,2.6069998741149902,6.2692999839782715,2.6175999641418457
1702296789525423400,50.92542333984375,1.5539000034332275,-2.6743998527526855,2.4289000034332275
1702296789585425000,50.9854248046875,-1.50409996509552,-3.7263998985290527,2.5760998725891113
1702296789645425000,51.0454248046875,-0.282399982213974,-3.5515999794006348,2.77239990234375
1702296789705425000,51.1054248046875,0.5591999888420105,-1.9598000049591064,5.484899997711182
1702296789765423400,51.16542333984375,6.182999610900879,1.0091999769210815,-7.723099708557129
1702296789825423400,51.22542333984375,0.6110999584197998,1.1464999914169312,-2.1613998413085938
1702296789885423400,51.28542333984375,2.0211000442504883,5.9965996742248535,6.152599811553955
1702296789945423400,51.34542333984375,-3.322700023651123,1.2813999652862549,0.07729999721050262
1702296790005425000,51.4054248046875,1.7185999155044556,-0.8905999660491943,-2.085399866104126
1702296790065423400,51.46542333984375,0.9321999549865723,-3.058799982070923,1.9183999300003052
1702296790125423400,51.52542333984375,-1.4077999591827393,-0.1842999905347824,2.8892998695373535
1702296790185425000,51.5854248046875,3.722599983215332,-1.6272999048233032,-0.257099986076355
1702296790245423400,51.64542333984375,4.590399742126465,-0.026099998503923416,-1.5381999015808105
1702296790305425000,51.7054248046875,3.1266000270843506,1.549899935722351,-2.2911999225616455
1702296790365423400,51.76542333984375,0.9202999472618103,2.060699939727783,-3.030400037765503
1702296790425423400,51.82542333984375,-0.06260000169277191,-1.254499912261963,-4.289899826049805
1702296790485423400,51.88542333984375,2.118499994277954,5.448800086975098,0.9763999581336975
1702296790545423400,51.94542333984375,-1.8621999025344849,0.30949997901916504,-1.4534999132156372
1702296790605425000,52.0054248046875,0.3211999833583832,-2.1159000396728516,3.817699909210205
1702296790665423400,52.06542333984375,-1.9542999267578125,-4.066999912261963,4.914599895477295
1702296790725423400,52.12542333984375,-0.863599956035614,-4.124599933624268,2.3178000450134277
1702296790785423400,52.18542333984375,-0.4883999824523926,0.22669999301433563,0.7480999827384949
1702296790845425000,52.2454248046875,5.835000038146973,1.319700002670288,1.0643999576568604
1702296790905425000,52.3054248046875,-5.375899791717529,5.812699794769287,0.0892999991774559
1702296790965423400,52.36542333984375,-0.3301999866962433,-0.4603999853134155,1.361199975013733
1702296791025423400,52.42542333984375,-3.549999952316284,2.52810001373291,1.4153999090194702
1702296791085423400,52.48542333984375,0.911899983882904,0.0762999951839447,1.6685999631881714
1702296791145423400,52.54542333984375,1.930999994277954,-4.01609992980957,-1.0281000137329102
1702296791205425000,52.6054248046875,-1.6407999992370605,-0.7804999947547913,2.717599868774414
1702296791265423400,52.66542333984375,5.164400100708008,-1.0465999841690063,-1.3380999565124512
1702296791325423400,52.72542333984375,3.251199960708618,-0.7371000051498413,-3.189199924468994
1702296791385423400,52.78542333984375,1.0677000284194946,0.9434999823570251,-1.7393999099731445
1702296791445425000,52.8454248046875,3.617299795150757,-0.03709999844431877,-4.2428998947143555
1702296791505423400,52.90542333984375,1.2666999101638794,2.3372998237609863,-1.9301999807357788
1702296791565423400,52.96542333984375,2.450700044631958,7.565799713134766,-0.08100000023841858
1702296791625423400,53.02542333984375,1.3334999084472656,-1.0830999612808228,2.1991000175476074
1702296791685423400,53.08542333984375,-1.2226999998092651,-3.4445998668670654,3.902400016784668
1702296791745423400,53.14542333984375,0.28459998965263367,-4.042299747467041,0.32999998331069946
1702296791805423400,53.20542333984375,-0.843999981880188,-2.3984999656677246,5.1566996574401855
1702296791865423400,53.26542333984375,11.733599662780762,8.773399353027344,1.9666999578475952
1702296791925423400,53.32542333984375,3.934499979019165,-7.40749979019165,-4.842599868774414
1702296791985423400,53.38542333984375,-1.652400016784668,5.7469000816345215,-2.4619998931884766
1702296792045423400,53.44542333984375,-3.8994998931884766,0.8654999732971191,-0.047199998050928116
1702296792105425000,53.5054248046875,-1.4283000230789185,1.2080999612808228,-0.4968999922275543
1702296792165423400,53.56542333984375,-0.4738999903202057,-1.0721999406814575,1.4323999881744385
1702296792225423400,53.62542333984375,0.9517999887466431,-2.7291998863220215,5.119499683380127
1702296792285423400,53.68542333984375,-0.948699951171875,-0.08100000023841858,-1.7086999416351318
1702296792345423400,53.74542333984375,3.931199789047241,-1.8220999240875244,-2.68969988822937
1702296792405423400,53.80542333984375,3.8917999267578125,-1.150399923324585,-3.4305999279022217
1702296792465423400,53.86542333984375,3.0976998805999756,0.19349999725818634,-2.4482998847961426
1702296792525423400,53.92542333984375,-0.31119999289512634,-0.14800000190734863,-0.7073999643325806
1702296792585423400,53.98542333984375,-1.4473999738693237,3.108799934387207,-2.5845999717712402
1702296792645423400,54.04542333984375,2.6155998706817627,7.273499965667725,-1.2137999534606934
1702296792705425000,54.1054248046875,2.1526999473571777,0.02159999869763851,2.026099920272827
1702296792765425000,54.1654248046875,-1.6916999816894531,-2.547499895095825,5.111099720001221
1702296792825423400,54.22542333984375,0.6329999566078186,-5.770299911499023,2.0551998615264893
1702296792885423400,54.28542333984375,-0.6299999952316284,-2.4428000450134277,6.010499954223633
1702296792945423400,54.34542333984375,11.4847993850708,9.010099411010742,-3.6277999877929688
1702296793005425000,54.4054248046875,5.8968000411987305,-2.5404000282287598,-4.537099838256836
1702296793065425000,54.4654248046875,-2.2600998878479004,3.6633999347686768,4.060999870300293
1702296793125423400,54.52542333984375,-2.2639000415802,0.9138999581336975,-0.4193999767303467
1702296793185423400,54.58542333984375,0.13930000364780426,2.9955999851226807,1.6003999710083008
1702296793245423400,54.64542333984375,1.3274999856948853,-3.4938998222351074,1.785099983215332
1702296793305425000,54.7054248046875,-1.6169999837875366,-0.7829999923706055,1.9569000005722046
1702296793365423400,54.76542333984375,3.5638999938964844,-0.7074999809265137,-1.9400999546051025
1702296793425425000,54.8254248046875,6.004899978637695,-2.8966000080108643,-3.2444000244140625
1702296793485425000,54.8854248046875,1.9971998929977417,1.0907999277114868,-2.241999864578247
1702296793545425000,54.9454248046875,0.17029999196529388,0.950499951839447,-1.3711999654769897
1702296793605423400,55.00542333984375,0.5188999772071838,0.004399999976158142,-2.1354000568389893
1702296793665423400,55.06542333984375,0.8661999702453613,5.065899848937988,-3.986999988555908
1702296793725423400,55.12542333984375,4.3592000007629395,3.3235998153686523,1.6453999280929565
1702296793785423400,55.18542333984375,0.22019998729228973,-2.5652999877929688,3.1180999279022217
1702296793845423400,55.24542333984375,-0.660099983215332,-3.9296000003814697,2.1933000087738037
1702296793905425000,55.3054248046875,-0.774899959564209,-3.9843997955322266,3.8945000171661377
1702296793965423400,55.36542333984375,1.8180999755859375,-0.9993000030517578,3.3703999519348145
1702296794025423400,55.42542333984375,2.2030999660491943,0.22869999706745148,-6.968799591064453
1702296794085423400,55.48542333984375,-2.0060999393463135,0.9842000007629395,-3.2672998905181885
1702296794145423400,55.54542333984375,-1.0169999599456787,4.460299968719482,4.423099994659424
1702296794205423400,55.60542333984375,-1.9200999736785889,1.7548999786376953,-0.2102999985218048
1702296794265425000,55.6654248046875,2.0462000370025635,-0.06749999523162842,0.374099999666214
1702296794325423400,55.72542333984375,3.350600004196167,-5.235099792480469,2.504499912261963
1702296794385423400,55.78542333984375,-0.4177999794483185,-0.2525999844074249,-0.11479999870061874
1702296794445423400,55.84542333984375,3.4275999069213867,-0.9911999702453613,-0.7809000015258789
1702296794505425000,55.9054248046875,2.4315998554229736,-1.0430999994277954,-2.93969988822937
1702296794565423400,55.96542333984375,0.84579998254776,0.15969999134540558,-3.430799961090088
1702296794625425000,56.0254248046875,-1.549399971961975,-0.2733999788761139,-1.3722999095916748
1702296794685423400,56.08542333984375,2.076900005340576,2.2918999195098877,-2.3427000045776367
1702296794745423400,56.14542333984375,3.623699903488159,11.185099601745605,1.1516000032424927
1702296794805423400,56.20542333984375,1.8325999975204468,-2.1438000202178955,3.0239999294281006
1702296794865423400,56.26542333984375,-0.6304999589920044,-3.400099992752075,3.9275999069213867
1702296794925423400,56.32542333984375,1.166599988937378,-6.07480001449585,1.5348999500274658
1702296794985423400,56.38542333984375,0.015599999576807022,-5.390699863433838,4.7388997077941895
1702296795045423400,56.44542333984375,4.195499897003174,11.181300163269043,-3.738600015640259
1702296795105425000,56.5054248046875,9.613200187683105,-5.0046000480651855,-1.5923999547958374
1702296795165423400,56.56542333984375,-8.44320011138916,4.94350004196167,-0.8373000025749207
1702296795225423400,56.62542333984375,-0.007400000002235174,3.221799850463867,2.512500047683716
1702296795285423400,56.68542333984375,-1.2853999137878418,1.020900011062622,-0.33069998025894165
1702296795345425000,56.7454248046875,1.3250999450683594,-1.3701999187469482,0.6926000118255615
1702296795405425000,56.8054248046875,1.3202999830245972,-4.113699913024902,3.418099880218506
1702296795465423400,56.86542333984375,0.8579999804496765,-0.48539999127388,-2.5745999813079834
1702296795525423400,56.92542333984375,5.812999725341797,-2.7654998302459717,-3.51039981842041
1702296795585425000,56.9854248046875,3.646699905395508,0.6003000140190125,-3.938499927520752
1702296795645425000,57.0454248046875,0.8004999756813049,1.2656999826431274,-1.4539999961853027
1702296795705425000,57.1054248046875,0.48639997839927673,-1.4377999305725098,-2.541599988937378
1702296795765423400,57.16542333984375,-0.0018999999156221747,3.5363998413085938,-2.293299913406372
1702296795825423400,57.22542333984375,2.9038000106811523,4.903599739074707,1.8136999607086182
1702296795885423400,57.28542333984375,1.1090999841690063,-3.009999990463257,2.7772998809814453
1702296795945423400,57.34542333984375,-1.5503000020980835,-6.6342997550964355,1.6227999925613403
1702296796005423400,57.40542333984375,-1.980699896812439,-3.256199836730957,4.410900115966797
1702296796065423400,57.46542333984375,9.107799530029297,8.463299751281738,4.137499809265137
1702296796125423400,57.52542333984375,0.6334999799728394,-6.4079999923706055,-6.351199626922607
1702296796185423400,57.58542333984375,-2.521899938583374,8.679900169372559,-0.8981999754905701
1702296796245425000,57.6454248046875,-3.212399959564209,-1.5884000062942505,3.1982998847961426
1702296796305425000,57.7054248046875,-0.3222000002861023,3.321899890899658,1.2549999952316284
1702296796365423400,57.76542333984375,0.6911999583244324,-2.3922998905181885,0.5823999643325806
1702296796425423400,57.82542333984375,1.1022000312805176,-4.080100059509277,1.7440999746322632
1702296796485423400,57.88542333984375,0.9122999906539917,-0.29729998111724854,-2.0817999839782715
1702296796545423400,57.94542333984375,3.1266000270843506,-1.9019999504089355,-2.4974000453948975
1702296796605425000,58.0054248046875,2.740000009536743,0.3953999876976013,-2.559499979019165
1702296796665423400,58.06542333984375,0.7545999884605408,1.660099983215332,-2.7958998680114746
1702296796725423400,58.12542333984375,0.7181000113487244,-1.3633999824523926,-2.9554998874664307
1702296796785423400,58.18542333984375,0.4381999969482422,3.8476998805999756,-3.3745999336242676
1702296796845423400,58.24542333984375,3.6425998210906982,2.8718998432159424,2.2558000087738037
1702296796905425000,58.3054248046875,-1.2552999258041382,-4.18720006942749,3.2503998279571533
1702296796965423400,58.36542333984375,0.6212999820709229,-4.67140007019043,0.9409999847412109
1702296797025423400,58.42542333984375,-0.6899999976158142,-2.6275999546051025,4.207600116729736
1702296797085423400,58.48542333984375,3.740000009536743,7.150199890136719,2.3509998321533203
1702296797145423400,58.54542333984375,3.4052000045776367,-7.6464996337890625,-7.33929967880249
1702296797205425000,58.6054248046875,-5.9328999519348145,5.519199848175049,1.2525999546051025
1702296797265423400,58.66542333984375,-0.8184999823570251,2.4902000427246094,2.1263999938964844
1702296797325423400,58.72542333984375,-2.1064999103546143,0.8070999979972839,0.5076999664306641
1702296797385423400,58.78542333984375,2.1643998622894287,-2.225600004196167,0.9975000023841858
1702296797445423400,58.84542333984375,0.09149999916553497,-3.7137999534606934,1.8883999586105347
1702296797505423400,58.90542333984375,2.3093998432159424,-1.3832999467849731,-3.664599895477295
1702296797565423400,58.96542333984375,2.7581000328063965,-1.618499994277954,-2.2019999027252197
1702296797625423400,59.02542333984375,0.7465999722480774,1.4469999074935913,-4.042299747467041
1702296797685423400,59.08542333984375,3.1297998428344727,1.7378000020980835,-3.632699966430664
1702296797745425000,59.1454248046875,0.6355999708175659,0.5874999761581421,0.3270999789237976
1702296797805425000,59.2054248046875,1.2621999979019165,6.102799892425537,-1.0787999629974365
1702296797865423400,59.26542333984375,2.5994999408721924,-1.1302000284194946,0.839199960231781
1702296797925423400,59.32542333984375,-0.7518999576568604,-3.191999912261963,3.9921000003814697
1702296797985423400,59.38542333984375,-0.028099998831748962,-5.040499687194824,1.2206000089645386
1702296798045423400,59.44542333984375,0.6283999681472778,-3.98799991607666,3.6728999614715576
1702296798105425000,59.5054248046875,12.894899368286133,8.728899955749512,-3.0339999198913574
1702296798165423400,59.56542333984375,7.754899978637695,-6.782899856567383,-0.45329999923706055
1702296798225423400,59.62542333984375,-3.88919997215271,6.364999771118164,-1.6212999820709229
1702296798285425000,59.6854248046875,-4.11870002746582,0.02149999886751175,0.460099995136261
1702296798345423400,59.74542333984375,-2.4333999156951904,-0.7303999662399292,-1.0327999591827393
1702296798405425000,59.8054248046875,-0.08020000159740448,-1.30239999294281,1.590499997138977
1702296798465423400,59.86542333984375,1.1245999336242676,-1.7572999000549316,3.437999963760376
1702296798525423400,59.92542333984375,4.605899810791016,-2.4925999641418457,-2.624300003051758
1702296798585423400,59.98542333984375,3.5909998416900635,-2.592599868774414,-3.609299898147583
1702296798645423400,60.04542333984375,-0.7206999659538269,1.7810999155044556,-2.1850998401641846
1702296798705423400,60.10542333984375,2.200000047683716,-0.07919999957084656,-2.3265998363494873
1702296798765423400,60.16542333984375,-1.2497999668121338,0.23119999468326569,-5.212199687957764
1702296798825423400,60.22542333984375,1.3930000066757202,8.054100036621094,-2.6118998527526855
1702296798885423400,60.28542333984375,2.100299835205078,-2.159299850463867,1.1174999475479126
1702296798945423400,60.34542333984375,-1.1222000122070312,-5.296499729156494,1.3844999074935913
1702296799005423400,60.40542333984375,-2.9442999362945557,-2.699899911880493,3.1298999786376953
1702296799065423400,60.46542333984375,-2.055500030517578,1.542099952697754,7.009999752044678
1702296799125423400,60.52542333984375,9.134300231933594,3.9711999893188477,-0.5485000014305115
1702296799185423400,60.58542333984375,2.840399980545044,-8.860300064086914,-5.323400020599365
1702296799245423400,60.64542333984375,4.190999984741211,7.024299621582031,-2.046299934387207
1702296799305425000,60.7054248046875,-4.265699863433838,2.090399980545044,2.0053000450134277
1702296799365423400,60.76542333984375,-1.0166000127792358,1.0372999906539917,2.6664998531341553
1702296799425423400,60.82542333984375,1.3849999904632568,-1.4845999479293823,2.4733998775482178
1702296799485423400,60.88542333984375,-1.52239990234375,-2.543599843978882,0.5214999914169312
1702296799545423400,60.94542333984375,4.268799781799316,-2.1138999462127686,-1.1934000253677368
1702296799605425000,61.0054248046875,6.245199680328369,-2.8264999389648438,-4.791399955749512
1702296799665423400,61.06542333984375,2.360599994659424,0.75,-2.7416000366210938
1702296799725423400,61.12542333984375,-0.2759000062942505,0.6090999841690063,-1.3859999179840088
1702296799785423400,61.18542333984375,1.9782999753952026,1.6166999340057373,-3.560999870300293
1702296799845425000,61.2454248046875,1.2178000211715698,7.53879976272583,-0.69159996509552
1702296799905425000,61.3054248046875,3.086199998855591,2.945499897003174,2.4809999465942383
1702296799965425000,61.3654248046875,0.06430000066757202,-2.0604000091552734,4.666599750518799
1702296800025423400,61.42542333984375,-1.5263999700546265,-3.9419000148773193,1.7785999774932861
1702296800085423400,61.48542333984375,0.7973999977111816,-4.259799957275391,4.167200088500977
1702296800145423400,61.54542333984375,-0.12610000371932983,-0.8306999802589417,3.539299964904785
1702296800205425000,61.6054248046875,2.9408998489379883,-4.464900016784668,-9.523099899291992
1702296800265423400,61.66542333984375,-7.832499980926514,7.429999828338623,3.5302000045776367
1702296800325423400,61.72542333984375,-0.3443000018596649,-1.8980998992919922,1.3451999425888062
1702296800385423400,61.78542333984375,-2.958899974822998,5.5640997886657715,1.615899920463562
1702296800445423400,61.84542333984375,0.8109999895095825,-1.6231999397277832,0.6769999861717224
1702296800505425000,61.9054248046875,-0.43689998984336853,-3.2894999980926514,3.555999994277954
1702296800565423400,61.96542333984375,0.524399995803833,-0.9761999845504761,-1.569700002670288
1702296800625423400,62.02542333984375,3.6750998497009277,-1.2569999694824219,-1.7716999053955078
1702296800685423400,62.08542333984375,2.2772998809814453,-0.07149999588727951,-2.556299924850464
1702296800745423400,62.14542333984375,1.691100001335144,0.8294000029563904,-1.2350000143051147
1702296800805423400,62.20542333984375,2.8282999992370605,-0.38189998269081116,-1.6366000175476074
1702296800865423400,62.26542333984375,1.326799988746643,1.7977999448776245,-2.0132999420166016
1702296800925423400,62.32542333984375,1.406999945640564,5.284999847412109,-1.9154999256134033
1702296800985423400,62.38542333984375,2.4515998363494873,1.326200008392334,1.896799921989441
1702296801045423400,62.44542333984375,-0.4052000045776367,-3.2760000228881836,3.5620999336242676
1702296801105425000,62.5054248046875,-0.39139997959136963,-3.0169999599456787,0.8780999779701233
1702296801165423400,62.56542333984375,-1.0850999355316162,-2.8705999851226807,3.601099967956543
1702296801225423400,62.62542333984375,0.9820999503135681,1.5267000198364258,3.7709999084472656
1702296801285423400,62.68542333984375,0.2856999933719635,-3.7052998542785645,-7.4828996658325195
1702296801345423400,62.74542333984375,-0.11339999735355377,-3.8344998359680176,1.9118999242782593
1702296801405423400,62.80542333984375,3.2167999744415283,8.01259994506836,3.777400016784668
1702296801465423400,62.86542333984375,-0.8003999590873718,2.235499858856201,0.6237999796867371
1702296801525423400,62.92542333984375,-0.020600000396370888,-1.536099910736084,0.25189998745918274
1702296801585423400,62.98542333984375,2.0804998874664307,-2.226599931716919,1.7638999223709106
1702296801645423400,63.04542333984375,-5.570799827575684,0.4359000027179718,2.6845998764038086
1702296801705423400,63.10542333984375,8.16469955444336,-1.977199912071228,-3.128700017929077
1702296801765423400,63.16542333984375,4.5376996994018555,-2.4113998413085938,-2.9219000339508057
1702296801825423400,63.22542333984375,1.1385999917984009,0.5572999715805054,-0.849299967288971
1702296801885423400,63.28542333984375,-0.04729999974370003,0.32989999651908875,-0.5076000094413757
1702296801945423400,63.34542333984375,0.8746999502182007,1.589900016784668,-4.22629976272583
1702296802005425000,63.4054248046875,0.91839998960495,9.651299476623535,-3.976799964904785
1702296802065423400,63.46542333984375,3.253499984741211,0.7719999551773071,1.244499921798706
1702296802125423400,63.52542333984375,-1.111799955368042,-3.513000011444092,4.49869966506958
1702296802185423400,63.58542333984375,-0.6421999931335449,-4.401400089263916,2.069499969482422
1702296802245423400,63.64542333984375,-1.1898999214172363,-4.467899799346924,6.433399677276611
1702296802305425000,63.7054248046875,1.264799952507019,0.8795999884605408,1.7878999710083008
1702296802365423400,63.76542333984375,0.36959999799728394,-4.2052998542785645,-10.401800155639648
1702296802425425000,63.8254248046875,-4.16379976272583,5.012700080871582,2.2348999977111816
1702296802485423400,63.88542333984375,-0.02539999969303608,2.094599962234497,2.7719998359680176
1702296802545423400,63.94542333984375,-2.8892998695373535,1.9412999153137207,1.6800999641418457
1702296802605425000,64.0054248046875,1.5411999225616455,0.0771000012755394,0.3837999999523163
1702296802665423400,64.06542333984375,1.5985000133514404,-5.319599628448486,0.69159996509552
1702296802725423400,64.12542333984375,0.9061999917030334,-1.0794999599456787,-0.8330000042915344
1702296802785425000,64.1854248046875,2.5635998249053955,-1.4199999570846558,-0.9364999532699585
1702296802845425000,64.2454248046875,2.8401999473571777,-0.5776000022888184,-3.6236000061035156
1702296802905425000,64.3054248046875,2.548099994659424,-0.034199997782707214,-2.745999813079834
1702296802965423400,64.36542333984374,-0.11879999935626984,-0.3691999912261963,-1.5886999368667603
1702296803025423400,64.42542333984375,1.246999979019165,1.374899983406067,-3.2465999126434326
1702296803085423400,64.48542333984375,1.9158999919891357,8.179399490356445,-0.9750999808311462
1702296803145423400,64.54542333984375,2.7017998695373535,-0.6101999878883362,1.754599928855896
1702296803205425000,64.6054248046875,-1.149399995803833,-3.3111000061035156,3.772199869155884
1702296803265423400,64.66542333984376,-0.26909998059272766,-3.5717999935150146,1.4182000160217285
1702296803325423400,64.72542333984374,-0.8570999503135681,-1.8468999862670898,5.503799915313721
1702296803385423400,64.78542333984375,11.657499313354492,9.630000114440918,0.682699978351593
1702296803445425000,64.8454248046875,4.523099899291992,-8.115900039672852,-5.65310001373291
1702296803505425000,64.9054248046875,-2.3671998977661133,4.492199897766113,3.11299991607666
1702296803565423400,64.96542333984375,-3.3576998710632324,2.9398999214172363,0.4447000026702881
1702296803625423400,65.02542333984375,-1.6244999170303345,1.768899917602539,1.0084999799728394
1702296803685423400,65.08542333984374,0.9350999593734741,-1.3148999214172363,1.3806999921798706
1702296803745425000,65.1454248046875,-0.34219998121261597,-3.11329984664917,3.247299909591675
1702296803805423400,65.20542333984375,1.914199948310852,-1.1126999855041504,-2.1277999877929688
1702296803865423400,65.26542333984375,1.9808999300003052,-1.3880000114440918,-1.089900016784668
1702296803925423400,65.32542333984375,2.456399917602539,0.37880000472068787,-1.7596999406814575
1702296803985423400,65.38542333984375,-0.23269999027252197,-0.1890999972820282,-3.402899980545044
1702296804045423400,65.44542333984376,1.7031999826431274,-1.6513999700546265,-0.5277000069618225
1702296804105425000,65.5054248046875,-0.218299999833107,3.3320999145507812,-2.8245999813079834
1702296804165423400,65.56542333984375,3.7788000106811523,7.477399826049805,1.784999966621399
1702296804225423400,65.62542333984375,1.3203999996185303,-2.2002999782562256,2.8264999389648438
1702296804285423400,65.68542333984375,1.0513999462127686,-3.3720998764038086,1.3637999296188354
1702296804345423400,65.74542333984375,0.17430000007152557,-2.80649995803833,0.7091999650001526
1702296804405425000,65.8054248046875,1.2602999210357666,-4.01099967956543,6.50629997253418
1702296804465425000,65.8654248046875,5.177599906921387,6.143099784851074,-3.561199903488159
1702296804525423400,65.92542333984375,6.0467000007629395,-2.89520001411438,-1.6881999969482422
1702296804585423400,65.98542333984375,-2.0806000232696533,3.501699924468994,0.7770999670028687
1702296804645423400,66.04542333984375,-5.581599712371826,2.5625998973846436,0.9533999562263489
1702296804705425000,66.1054248046875,0.0559999980032444,2.9365999698638916,2.309000015258789
1702296804765423400,66.16542333984376,0.375,-1.0077999830245972,1.7167999744415283
1702296804825423400,66.22542333984374,0.4569000005722046,-2.522199869155884,2.4804999828338623
1702296804885423400,66.28542333984375,-0.3568999767303467,-1.579800009727478,-1.0965999364852905
1702296804945423400,66.34542333984375,5.197199821472168,-2.4754998683929443,-2.756199836730957
1702296805005423400,66.40542333984375,3.8945000171661377,-1.250100016593933,-2.1638998985290527
1702296805065423400,66.46542333984375,1.202799916267395,-0.05419999733567238,-2.291100025177002
1702296805125423400,66.52542333984375,1.8055999279022217,1.1294000148773193,-2.0363998413085938
1702296805185423400,66.58542333984374,0.9857999682426453,1.4843000173568726,-0.746399998664856
1702296805245423400,66.64542333984375,4.6579999923706055,11.061699867248535,-0.926099956035614
1702296805305423400,66.70542333984375,1.5216000080108643,-0.7710999846458435,1.689099907875061
1702296805365423400,66.76542333984375,-1.0140999555587769,-3.3297998905181885,4.208699703216553
1702296805425423400,66.82542333984375,0.6917999982833862,-7.476500034332275,1.6335999965667725
1702296805485423400,66.88542333984375,2.880699872970581,-4.025300025939941,3.5720999240875244
1702296805545423400,66.94542333984376,-0.6256999969482422,-3.156899929046631,-5.655999660491943
1702296805605423400,67.00542333984374,-8.730299949645996,7.8842997550964355,-1.4531999826431274
1702296805665423400,67.06542333984375,-0.03579999879002571,-1.3691999912261963,3.41729998588562
1702296805725423400,67.12542333984375,-3.881699800491333,2.7932000160217285,0.2393999993801117
1702296805785423400,67.18542333984375,2.3422000408172607,-1.093400001525879,2.616799831390381
1702296805845423400,67.24542333984375,1.4142999649047852,-2.836599826812744,3.5914998054504395
1702296805905423400,67.30542333984376,2.8304998874664307,-1.7984999418258667,-1.6332999467849731
1702296805965423400,67.36542333984374,1.311900019645691,-0.8335999846458435,-0.02850000001490116
1702296806025423400,67.42542333984375,0.4323999881744385,-0.2532999813556671,-2.663800001144409
1702296806085423400,67.48542333984375,4.645999908447266,-1.6388999223709106,-2.925999879837036
1702296806145423400,67.54542333984375,0.9822999835014343,-0.49699997901916504,-1.0140999555587769
1702296806205423400,67.60542333984375,-0.045899998396635056,2.4619998931884766,-3.033399820327759
1702296806265423400,67.66542333984376,2.2165000438690186,10.00879955291748,0.5103999972343445
1702296806325423400,67.72542333984374,1.3935999870300293,-1.1253999471664429,2.8687000274658203
1702296806385423400,67.78542333984375,-0.597599983215332,-4.367499828338623,3.1427998542785645
1702296806445423400,67.84542333984375,-1.2587000131607056,-3.760499954223633,2.101799964904785
1702296806505423400,67.90542333984375,-1.7763999700546265,-1.3339999914169312,5.746500015258789
1702296806565423400,67.96542333984375,15.16819953918457,7.947000026702881,-3.353600025177002
1702296806625423400,68.02542333984375,1.7426999807357788,-3.696199893951416,-0.3109999895095825
1702296806685423400,68.08542333984374,-1.1869999170303345,3.0346999168395996,0.3474999964237213
1702296806745423400,68.14542333984375,0.9752999544143677,6.934799671173096,0.11169999837875366
1702296806805425000,68.2054248046875,-2.0873000621795654,0.46559998393058777,1.2889000177383423
1702296806865423400,68.26542333984375,-0.1867000013589859,1.228600025177002,1.9667999744415283
1702296806925423400,68.32542333984375,4.35290002822876,-3.548799991607666,0.6710000038146973
1702296806985423400,68.38542333984375,-1.327199935913086,-1.9210000038146973,-0.9406999945640564
1702296807045423400,68.44542333984376,3.4915997982025146,-2.7333998680114746,-0.41169998049736023
1702296807105423400,68.50542333984374,2.112299919128418,0.7466999888420105,-1.8240998983383179
1702296807165423400,68.56542333984375,2.009000062942505,2.162899971008301,-2.8300998210906982
1702296807225423400,68.62542333984375,-0.6840999722480774,-2.1935999393463135,0.3382999897003174
1702296807285423400,68.68542333984375,3.1113998889923096,3.219599962234497,-2.5750999450683594
1702296807345423400,68.74542333984375,1.2591999769210815,3.2570998668670654,0.01769999973475933
1702296807405423400,68.80542333984376,2.037600040435791,-1.730299949645996,1.8616999387741089
1702296807465423400,68.86542333984374,-0.3822999894618988,-3.415299892425537,2.6777000427246094
1702296807525425000,68.9254248046875,-0.06019999831914902,-2.2540998458862305,4.144899845123291
1702296807585423400,68.98542333984375,2.3357999324798584,-1.785099983215332,2.788800001144409
1702296807645423400,69.04542333984375,3.672499895095825,1.236299991607666,-7.834299564361572
1702296807705423400,69.10542333984375,4.508800029754639,1.3644999265670776,-1.1787999868392944
1702296807765423400,69.16542333984376,-0.05689999833703041,0.5807999968528748,2.194700002670288
1702296807825423400,69.22542333984374,-3.7594997882843018,3.702199935913086,0.8184999823570251
1702296807885423400,69.28542333984375,-1.7883999347686768,2.018199920654297,1.467099905014038
1702296807945425000,69.3454248046875,1.0540999174118042,-1.3061000108718872,1.705399990081787
1702296808005425000,69.4054248046875,0.3125999867916107,-2.631500005722046,0.6759999990463257
1702296808065423400,69.46542333984375,2.361999988555908,-1.0684999227523804,-1.209999918937683
1702296808125423400,69.52542333984375,6.255399703979492,-2.3165998458862305,-3.1255998611450195
1702296808185423400,69.58542333984374,1.969599962234497,0.21779999136924744,-1.8328999280929565
1702296808245423400,69.64542333984375,1.1812000274658203,0.3983999788761139,-2.116499900817871
1702296808305425000,69.7054248046875,-0.8745999932289124,-0.9108999967575073,-1.0231999158859253
1702296808365423400,69.76542333984375,0.996999979019165,4.355299949645996,-1.9958999156951904
1702296808425423400,69.82542333984375,2.259199857711792,5.001899719238281,1.0993000268936157
1702296808485423400,69.88542333984375,1.2472000122070312,-1.5959999561309814,3.2472000122070312
1702296808545423400,69.94542333984376,-0.48330000042915344,-3.909899950027466,2.2087998390197754
1702296808605425000,70.0054248046875,0.2466999888420105,-3.9891998767852783,3.25219988822937
1702296808665423400,70.06542333984375,1.7984999418258667,0.1808999925851822,3.8919999599456787
1702296808725423400,70.12542333984375,0.5200999975204468,-3.6926000118255615,-8.111100196838379
1702296808785423400,70.18542333984375,-2.6610000133514404,7.191999912261963,-0.9711999893188477
1702296808845423400,70.24542333984375,3.6766998767852783,0.2126999944448471,2.108099937438965
1702296808905423400,70.30542333984376,-3.7602999210357666,4.913000106811523,2.103600025177002
1702296808965423400,70.36542333984374,3.0810999870300293,-0.21570000052452087,0.7834999561309814
1702296809025423400,70.42542333984375,-0.39800000190734863,-4.061500072479248,2.3046998977661133
1702296809085423400,70.48542333984375,2.3336000442504883,-0.9542999863624573,-1.1495000123977661
1702296809145423400,70.54542333984375,3.5269999504089355,-0.682699978351593,-0.026899999007582664
1702296809205423400,70.60542333984375,3.274099826812744,-1.1245999336242676,-1.7207999229431152
1702296809265423400,70.66542333984376,1.965399980545044,0.9908999800682068,-1.913100004196167
1702296809325423400,70.72542333984374,2.097899913787842,0.6150999665260315,-1.92739999294281
1702296809385423400,70.78542333984375,0.19179999828338623,-0.16279999911785126,-1.3150999546051025
1702296809445423400,70.84542333984375,2.5013999938964844,7.209399700164795,-1.3421999216079712
1702296809505423400,70.90542333984375,1.8381999731063843,1.7404999732971191,2.319000005722046
1702296809565423400,70.96542333984375,0.14659999310970306,-2.8516998291015625,3.548799991607666
1702296809625423400,71.02542333984375,-0.2538999915122986,-4.341300010681152,1.7121999263763428
1702296809685423400,71.08542333984374,-0.29679998755455017,-3.623499870300293,3.806999921798706
1702296809745423400,71.14542333984375,5.018499851226807,5.910099983215332,2.456199884414673
1702296809805425000,71.2054248046875,4.3765997886657715,-5.607199668884277,-4.080399990081787
1702296809865423400,71.26542333984375,-4.677999973297119,4.916599750518799,0.5033000111579895
1702296809925423400,71.32542333984375,0.9277999997138977,0.7489999532699585,1.3322999477386475
1702296809985423400,71.38542333984375,-2.6656999588012695,2.061199903488159,0.24639999866485596
1702296810045423400,71.44542333984376,3.059299945831299,-0.9054999947547913,1.13919997215271
1702296810105425000,71.5054248046875,0.8361999988555908,-2.49429988861084,2.563199996948242
1702296810165423400,71.56542333984375,1.952299952507019,-0.5306000113487244,-0.4285999834537506
1702296810225423400,71.62542333984375,2.7174999713897705,-2.05649995803833,-0.7978999614715576
1702296810285423400,71.68542333984375,1.9098999500274658,-1.0964000225067139,-1.0289000272750854
1702296810345423400,71.74542333984375,1.914199948310852,0.09999999403953552,-1.972999930381775
1702296810405425000,71.8054248046875,-1.5673999786376953,-0.16509999334812164,-0.7487999796867371
1702296810465423400,71.86542333984374,1.555299997329712,1.3097999095916748,-2.958699941635132
1702296810525423400,71.92542333984375,3.931199789047241,10.98390007019043,-0.37139999866485596
1702296810585423400,71.98542333984375,2.147199869155884,-1.006500005722046,3.119799852371216
1702296810645423400,72.04542333984375,-0.9336999654769897,-3.6390998363494873,3.4609999656677246
1702296810705423400,72.10542333984375,0.9964999556541443,-3.702699899673462,1.25
1702296810765423400,72.16542333984376,-0.6578999757766724,-3.2936999797821045,5.194900035858154
1702296810825423400,72.22542333984374,12.952899932861328,11.157299995422363,-2.0428998470306396
1702296810885423400,72.28542333984375,7.742599964141846,-4.500799655914307,0.6261999607086182
1702296810945453000,72.345453125,0.558899998664856,6.517099857330322,1.730699896812439
1702296811005425000,72.4054248046875,-3.4482998847961426,1.9411998987197876,-0.5349999666213989
1702296811065425000,72.4654248046875,-2.0992000102996826,0.21849998831748962,0.482699990272522
1702296811125425000,72.5254248046875,0.5593000054359436,-1.0068999528884888,1.9120999574661255
1702296811185423400,72.58542333984374,-0.8018999695777893,-0.8014999628067017,3.6285998821258545
1702296811245423400,72.64542333984375,4.206900119781494,-1.0776000022888184,-2.0767998695373535
1702296811305425000,72.7054248046875,3.2258999347686768,-2.2683000564575195,-2.3833999633789062
1702296811365423400,72.76542333984375,2.690199851989746,-0.23539999127388,-2.11080002784729
1702296811425423400,72.82542333984375,1.6667999029159546,0.8406999707221985,-2.0274999141693115
1702296811485423400,72.88542333984375,0.42649999260902405,-1.6895999908447266,-0.19569998979568481
1702296811545423400,72.94542333984376,0.18679998815059662,2.78659987449646,-2.4819998741149902
1702296811605425000,73.0054248046875,3.3688998222351074,8.315699577331543,-0.4797999858856201
1702296811665423400,73.06542333984375,2.4326000213623047,-0.36159998178482056,1.4888999462127686
1702296811725423400,73.12542333984375,-1.9583998918533325,-2.4247000217437744,3.4335999488830566
1702296811785423400,73.18542333984375,-0.5074999928474426,-3.2401998043060303,3.2916998863220215
1702296811845423400,73.24542333984375,-0.6428999900817871,-1.5636999607086182,5.992599964141846
1702296811905423400,73.30542333984376,11.472899436950684,8.436200141906738,-2.1039998531341553
1702296811965423400,73.36542333984374,5.84089994430542,-5.558899879455566,-1.4524999856948853
1702296812025423400,73.42542333984375,-1.4530999660491943,5.519899845123291,-0.349700003862381
1702296812085423400,73.48542333984375,-3.244999885559082,0.06439999490976334,1.3495999574661255
1702296812145423400,73.54542333984375,-1.5297999382019043,3.2035999298095703,2.5058000087738037
1702296812205425000,73.6054248046875,1.8077999353408813,-0.0746999979019165,1.1119999885559082
1702296812265423400,73.66542333984376,-1.2613999843597412,-1.7996000051498413,2.2614998817443848
1702296812325423400,73.72542333984374,2.104300022125244,-1.6309999227523804,-1.1261999607086182
1702296812385423400,73.78542333984375,4.099299907684326,-2.7063000202178955,-2.3587000370025635
1702296812445451500,73.84545141601562,1.5275999307632446,-0.3077999949455261,-0.7037000060081482
1702296812505425000,73.9054248046875,2.0820999145507812,1.2180999517440796,-0.5047000050544739
1702296812565423400,73.96542333984375,2.204900026321411,-1.6246999502182007,-1.216499924659729
1702296812625423400,74.02542333984375,2.985100030899048,-2.0078999996185303,-3.14520001411438
1702296812685423400,74.08542333984374,-0.4493999779224396,6.239500045776367,-3.3093998432159424
1702296812745425000,74.1454248046875,3.526899814605713,3.172999858856201,1.3066999912261963
1702296812805425000,74.2054248046875,-0.8077999949455261,-1.6840999126434326,3.0872998237609863
1702296812865423400,74.26542333984375,0.2996000051498413,-3.1654999256134033,1.7472000122070312
1702296812925423400,74.32542333984375,-1.2660999298095703,-3.9012999534606934,5.395199775695801
1702296812985423400,74.38542333984375,3.706899881362915,1.8282999992370605,4.9365997314453125
1702296813045423400,74.44542333984376,-2.896399974822998,-3.2932000160217285,-7.698699951171875
1702296813105425000,74.5054248046875,0.1670999974012375,5.172999858856201,-1.8188999891281128
1702296813165423400,74.56542333984375,2.3413000106811523,2.8954999446868896,-0.25779998302459717
1702296813225423400,74.62542333984375,-2.6432998180389404,3.090399980545044,3.176999807357788
1702296813285423400,74.68542333984375,0.9084999561309814,1.1771999597549438,0.9957999587059021
1702296813345423400,74.74542333984375,0.2953999936580658,-2.52020001411438,2.881199836730957
1702296813405425000,74.8054248046875,2.0125999450683594,-0.974399983882904,1.3531999588012695
1702296813465423400,74.86542333984374,4.023399829864502,-0.7800999879837036,-2.6373000144958496
1702296813525423400,74.92542333984375,3.43999981880188,-1.5592999458312988,-2.760999917984009
1702296813585423400,74.98542333984375,1.2348999977111816,0.6473000049591064,-2.088899850845337
1702296813645423400,75.04542333984375,1.7206999063491821,0.5031999945640564,-1.771399974822998
1702296813705425000,75.1054248046875,2.046999931335449,0.2759000062942505,-1.8982999324798584
1702296813765423400,75.16542333984376,0.05769999697804451,7.0777997970581055,-2.0762999057769775
1702296813825425000,75.2254248046875,4.792699813842773,1.7727999687194824,1.3051999807357788
1702296813885423400,75.28542333984375,-0.8543999791145325,-1.6996999979019165,3.4532999992370605
1702296813945423400,75.34542333984375,0.09119999408721924,-4.115999698638916,2.2467000484466553
1702296814005425000,75.4054248046875,-0.7432000041007996,-4.18720006942749,5.670300006866455
1702296814065423400,75.46542333984375,8.259599685668945,9.728400230407715,1.4569000005722046
1702296814125423400,75.52542333984375,4.53849983215332,-7.834499835968018,-7.865699768066406
1702296814185423400,75.58542333984374,-4.338599681854248,6.043999671936035,3.292099952697754
1702296814245423400,75.64542333984375,-1.5295000076293945,3.1038999557495117,1.8614000082015991
1702296814305425000,75.7054248046875,-2.4549999237060547,2.2855000495910645,2.7054998874664307
1702296814365423400,75.76542333984375,1.5255999565124512,0.4138999879360199,1.7445999383926392
