time,seconds_elapsed,z,y,x
1705062671335434200,0.047434326171875,1.320199966430664,0.1225999966263771,0.7802000045776367
1705062671395432700,0.1074326171875,0.0835999995470047,-0.0015999999595806003,-0.08709999918937683
1705062671455432700,0.1674326171875,0.1678999960422516,-0.006599999964237213,-0.16899999976158142
1705062671515432700,0.2274326171875,0.18320000171661377,-0.0608999989926815,-0.010900000110268593
1705062671575432700,0.2874326171875,0.1014999970793724,-0.06719999760389328,0.05570000037550926
1705062671635432700,0.3474326171875,0.26319998502731323,-0.2611999809741974,0.25119999051094055
1705062671695432700,0.4074326171875,-0.020600000396370888,-0.19169999659061432,0.06719999760389328
1705062671755432700,0.4674326171875,0.31279999017715454,0.1476999968290329,-0.11099999397993088
1705062671815432700,0.5274326171875,-0.37469998002052307,0.9807999730110168,-0.057999998331069946
1705062671875432700,0.5874326171875,-0.5006999969482422,1.2508999109268188,-0.9961999654769897
1705062671935432700,0.6474326171875,-0.3684999942779541,1.2851999998092651,-1.9887999296188354
1705062671995432700,0.7074326171875,-1.2569999694824219,0.2061999887228012,-2.7219998836517334
1705062672055432700,0.7674326171875,0.19299998879432678,-0.8941999673843384,-2.0105998516082764
1705062672115432700,0.8274326171875,0.7671999931335449,-1.2781999111175537,-0.6098999977111816
1705062672175432700,0.8874326171875,-0.5902999639511108,-0.14559999108314514,0.4851999878883362
1705062672235432700,0.9474326171875,4.314799785614014,1.0351999998092651,1.5281999111175537
1705062672295432700,1.0074326171875,1.4359999895095825,0.6222999691963196,-1.298799991607666
1705062672355432700,1.0674326171875,1.626099944114685,1.2529000043869019,-2.0039000511169434
1705062672415432700,1.1274326171875,2.25600004196167,1.7069000005722046,-0.3385999798774719
1705062672475432700,1.1874326171875,4.538000106811523,1.1934999227523804,1.1140999794006348
1705062672535432700,1.2474326171875,1.2888000011444092,0.6021999716758728,-1.9275999069213867
1705062672595432700,1.3074326171875,1.1639999151229858,-1.215399980545044,0.10949999839067459
1705062672655432700,1.3674326171875,-0.564300000667572,-0.7337999939918518,-1.1794999837875366
1705062672715432700,1.4274326171875,-2.2135000228881836,-1.3494999408721924,-0.4811999797821045
1705062672775432700,1.4874326171875,-1.5286999940872192,0.4615999758243561,-0.22679999470710754
1705062672835432700,1.5474326171875,-2.4756999015808105,-0.2012999951839447,-1.2218999862670898
1705062672895432700,1.6074326171875,-0.8984999656677246,-1.5990999937057495,-1.5575999021530151
1705062672955432700,1.6674326171875,-0.07189999520778656,-2.0314998626708984,-0.7190999984741211
1705062673015432700,1.7274326171875,-1.3763999938964844,-0.9163999557495117,-2.557299852371216
1705062673075432700,1.7874326171875,-1.119499921798706,-0.6919999718666077,-2.093600034713745
1705062673135432700,1.8474326171875,1.7791999578475952,0.3757999837398529,1.514299988746643
1705062673195432700,1.9074326171875,-0.7426999807357788,1.7208999395370483,1.7738999128341675
1705062673255432700,1.9674326171875,-0.6757999658584595,1.8566999435424805,-0.04259999841451645
1705062673315432700,2.0274326171875,1.7565999031066895,0.9584999680519104,0.7721999883651733
1705062673375432700,2.0874326171875,0.18140000104904175,-2.1424999237060547,0.8743999600410461
1705062673435432700,2.1474326171875,-1.4198999404907227,-3.331199884414673,2.546099901199341
1705062673495432700,2.2074326171875,1.2661999464035034,-0.8657000064849854,0.0965999960899353
1705062673555432700,2.2674326171875,2.6252999305725098,-1.4018999338150024,1.833299994468689
1705062673615434200,2.327434326171875,-4.741799831390381,1.5055999755859375,-2.3165998458862305
1705062673675432700,2.3874326171875,0.3651999831199646,2.303299903869629,0.7028999924659729
1705062673735432700,2.4474326171875,0.19820000231266022,3.054299831390381,0.07909999787807465
1705062673795432700,2.5074326171875,-0.2483000010251999,-0.45969998836517334,-0.2410999983549118
1705062673855432700,2.5674326171875,0.5501999855041504,0.2538999915122986,-2.195499897003174
1705062673915432700,2.6274326171875,-1.12909996509552,-0.21629999577999115,-2.740499973297119
1705062673975432700,2.6874326171875,0.33649998903274536,-0.16449999809265137,-0.5049999952316284
1705062674035432700,2.7474326171875,-0.05049999803304672,-0.8780999779701233,-1.0121999979019165
1705062674095432700,2.8074326171875,-1.5400999784469604,0.6312999725341797,-0.2865000069141388
1705062674155432700,2.8674326171875,-1.4912999868392944,1.086300015449524,-1.2069000005722046
1705062674215432700,2.9274326171875,-1.24809992313385,0.777999997138977,-0.724399983882904
1705062674275432700,2.9874326171875,-0.5541999936103821,0.018799999728798866,-1.3222999572753906
1705062674335432700,3.0474326171875,0.09539999812841415,-0.773099958896637,1.205399990081787
1705062674395432700,3.1074326171875,-0.4761999845504761,0.18519999086856842,0.5995000004768372
1705062674455432700,3.1674326171875,-0.6990999579429626,0.18320000171661377,-0.2255999892950058
1705062674515432700,3.2274326171875,-0.028099998831748962,-1.3804999589920044,0.9914000034332275
1705062674575432700,3.2874326171875,-0.574999988079071,-0.6466999650001526,-0.511900007724762
1705062674635432700,3.3474326171875,0.6638000011444092,-0.45479997992515564,0.2886999845504761
1705062674695432700,3.4074326171875,0.48079997301101685,0.39069998264312744,-0.5805999636650085
1705062674755432700,3.4674326171875,0.649399995803833,0.05209999904036522,-0.5338999629020691
1705062674815432700,3.5274326171875,1.14329993724823,-1.1770999431610107,1.3468999862670898
1705062674875432700,3.5874326171875,0.694599986076355,-1.059499979019165,0.30539998412132263
1705062674935432700,3.6474326171875,0.1379999965429306,0.28679999709129333,-0.1664000004529953
1705062674995432700,3.7074326171875,0.1776999980211258,-0.010900000110268593,0.1340000033378601
1705062675055432700,3.7674326171875,0.6575999855995178,-0.786799967288971,0.14190000295639038
1705062675115432700,3.8274326171875,1.1622999906539917,-0.9598000049591064,0.008599999360740185
1705062675175432700,3.8874326171875,0.46069997549057007,-0.9236999750137329,-1.146899938583374
1705062675235432700,3.9474326171875,-0.8593999743461609,-1.5607999563217163,-0.7321000099182129
1705062675295432700,4.0074326171875,-1.2110999822616577,-1.3925999402999878,-0.6065999865531921
1705062675355432700,4.0674326171875,-0.915399968624115,-1.3106999397277832,-1.2404999732971191
1705062675415432700,4.1274326171875,-0.32569998502731323,-0.210999995470047,-1.3047000169754028
1705062675475432700,4.1874326171875,0.8998000025749207,-0.04569999873638153,-1.0059000253677368
1705062675535432700,4.2474326171875,1.0960999727249146,1.3708999156951904,-0.85999995470047
1705062675595432700,4.3074326171875,0.3968999981880188,2.934299945831299,-0.3757999837398529
1705062675655432700,4.3674326171875,0.4285999834537506,3.4582998752593994,-0.2474999874830246
1705062675715432700,4.4274326171875,0.7268999814987183,2.4728000164031982,0.664900004863739
1705062675775432700,4.4874326171875,2.194000005722046,1.4573999643325806,-0.37689998745918274
1705062675835432700,4.5474326171875,-0.08419999480247498,-1.4878000020980835,-0.3109000027179718
1705062675895432700,4.6074326171875,-2.9628000259399414,-3.1658999919891357,-2.8334999084472656
1705062675955432700,4.6674326171875,-2.291300058364868,-0.010400000028312206,-0.5692999958992004
1705062676015432700,4.7274326171875,-0.35429999232292175,0.07959999889135361,0.4007999897003174
1705062676075432700,4.7874326171875,-0.2849999964237213,-0.3222000002861023,-0.34919998049736023
1705062676135432700,4.8474326171875,0.6456999778747559,-0.11229999363422394,-0.20989999175071716
1705062676195432700,4.9074326171875,-0.2378999888896942,-0.37880000472068787,0.2766000032424927
1705062676255432700,4.9674326171875,0.22259999811649323,0.32989999651908875,-0.9419999718666077
1705062676315432700,5.0274326171875,0.05480000004172325,-0.47939997911453247,-0.382999986410141
1705062676375432700,5.0874326171875,-0.07039999961853027,-0.2680000066757202,0.5224999785423279
1705062676435432700,5.1474326171875,0.36719998717308044,-0.5412999987602234,0.6912999749183655
1705062676495432700,5.2074326171875,-0.15039999783039093,-0.4421999752521515,0.5254999995231628
1705062676555432700,5.2674326171875,0.8819999694824219,0.4025000035762787,0.257999986410141
1705062676615432700,5.3274326171875,-0.34619998931884766,-1.4089999198913574,0.31839999556541443
1705062676675432700,5.3874326171875,-0.42579999566078186,-0.5302000045776367,-1.2251999378204346
1705062676735432700,5.4474326171875,0.05249999836087227,0.8667999505996704,-0.7315999865531921
1705062676795432700,5.5074326171875,-1.5968999862670898,2.389400005340576,1.70579993724823
1705062676855432700,5.5674326171875,0.09769999980926514,0.12389999628067017,0.1492999941110611
1705062676915432700,5.6274326171875,0.17839999496936798,0.09809999912977219,-1.7860000133514404
1705062676975432700,5.6874326171875,2.635699987411499,-1.9292999505996704,-0.5828999876976013
1705062677035432700,5.7474326171875,0.36079999804496765,0.632099986076355,0.795799970626831
1705062677095432700,5.8074326171875,0.5584999918937683,-1.0512999296188354,1.4649999141693115
1705062677155432700,5.8674326171875,0.6690999865531921,-0.6998999714851379,0.5020999908447266
1705062677215432700,5.9274326171875,0.3443000018596649,-3.2995998859405518,0.43050000071525574
1705062677275432700,5.9874326171875,-0.6371999979019165,1.0867999792099,1.1469999551773071
1705062677335432700,6.0474326171875,-1.1018999814987183,6.96019983291626,-0.6385999917984009
1705062677395432700,6.1074326171875,0.0697999969124794,2.7093000411987305,0.09619999676942825
1705062677455432700,6.1674326171875,1.6881999969482422,-1.2459999322891235,1.1592999696731567
1705062677515432700,6.2274326171875,1.6276999711990356,-3.174799919128418,-0.041600000113248825
1705062677575432700,6.2874326171875,0.20059999823570251,-0.9927999973297119,-1.695199966430664
1705062677635432700,6.3474326171875,-0.4431999921798706,-0.8277999758720398,-0.5523999929428101
1705062677695432700,6.4074326171875,0.15070000290870667,-2.2863998413085938,-0.0803999975323677
1705062677755432700,6.4674326171875,0.5065999627113342,-2.1373000144958496,0.8093000054359436
1705062677815432700,6.5274326171875,1.1220999956130981,4.4741997718811035,-0.5562999844551086
1705062677875432700,6.5874326171875,1.0640000104904175,2.3553998470306396,-1.7767999172210693
1705062677935432700,6.6474326171875,-0.121799997985363,-1.5740000009536743,-0.9229999780654907
1705062677995432700,6.7074326171875,-3.129699945449829,0.10989999771118164,0.17069999873638153
1705062678055432700,6.7674326171875,-2.456699848175049,-0.8860999941825867,-0.5390999913215637
1705062678115432700,6.8274326171875,1.3026999235153198,-4.625999927520752,0.8524999618530273
1705062678175432700,6.8874326171875,2.178799867630005,-5.650599956512451,5.361199855804443
1705062678235432700,6.9474326171875,-1.4341999292373657,7.865199565887451,-2.41729998588562
1705062678295432700,7.0074326171875,-3.9921998977661133,1.4223999977111816,-1.6150999069213867
1705062678355432700,7.0674326171875,-4.35099983215332,2.5760998725891113,-2.7925000190734863
1705062678415432700,7.1274326171875,1.0023999214172363,2.5703999996185303,0.10949999839067459
1705062678475432700,7.1874326171875,4.727200031280518,-2.0225000381469727,-0.1444000005722046
1705062678535432700,7.2474326171875,2.9433000087738037,-3.686699867248535,1.705899953842163
1705062678595432700,7.3074326171875,0.0689999982714653,-1.341499924659729,1.1619999408721924
1705062678655432700,7.3674326171875,-1.3217999935150146,-0.17419999837875366,1.8291999101638794
1705062678715432700,7.4274326171875,-2.4293999671936035,1.5637999773025513,0.9226999878883362
1705062678775432700,7.4874326171875,-1.8931999206542969,-0.5809000134468079,1.6488999128341675
1705062678835432700,7.5474326171875,-1.2788000106811523,-1.3690999746322632,2.218600034713745
1705062678895432700,7.6074326171875,-2.7901999950408936,-0.8718000054359436,1.077199935913086
1705062678955432700,7.6674326171875,-3.5759999752044678,-1.2746999263763428,2.0530998706817627
1705062679015432700,7.7274326171875,-3.260999917984009,-0.5148999691009521,-2.1972999572753906
1705062679075432700,7.7874326171875,-0.4545999765396118,3.1668999195098877,-2.862299919128418
1705062679135432700,7.8474326171875,0.3604999780654907,2.300299882888794,-3.0065999031066895
1705062679195432700,7.9074326171875,0.34199997782707214,0.1265999972820282,0.49869999289512634
1705062679255432700,7.9674326171875,0.7728999853134155,-1.3593000173568726,4.202600002288818
1705062679315460900,8.0274609375,1.5090999603271484,-0.7112999558448792,2.3086998462677
1705062679375432700,8.0874326171875,4.723400115966797,0.16899999976158142,-0.7554000020027161
1705062679435432700,8.1474326171875,0.353300005197525,-2.772199869155884,-1.8006999492645264
1705062679495432700,8.2074326171875,-1.6996999979019165,-2.5607998371124268,0.41349998116493225
1705062679555432700,8.2674326171875,-3.2426998615264893,1.323699951171875,-4.027199745178223
1705062679615432700,8.3274326171875,-1.2489999532699585,0.8933999538421631,-1.086899995803833
1705062679675432700,8.3874326171875,-1.7804999351501465,2.3833999633789062,1.0285999774932861
1705062679735432700,8.4474326171875,-0.3366999924182892,0.6236000061035156,-0.39640000462532043
1705062679795432700,8.5074326171875,0.3937000036239624,-1.830399990081787,1.2228999137878418
1705062679855432700,8.5674326171875,-0.6462000012397766,-3.4178998470306396,2.1629998683929443
1705062679915432700,8.6274326171875,1.458400011062622,-5.0543999671936035,3.365799903869629
1705062679975432700,8.6874326171875,0.2793999910354614,-3.9663000106811523,0.24849998950958252
1705062680035432700,8.7474326171875,0.7929999828338623,2.897199869155884,-0.7236999869346619
1705062680095432700,8.8074326171875,-1.4872000217437744,-2.1092000007629395,-4.723199844360352
1705062680155432700,8.8674326171875,-3.3981997966766357,-1.9124999046325684,-2.3785998821258545
1705062680215432700,8.9274326171875,-0.6317999958992004,-2.460899829864502,-0.38979998230934143
1705062680275432700,8.9874326171875,-1.5125999450683594,10.518099784851074,-0.4448999762535095
1705062680335432700,9.0474326171875,1.6720999479293823,2.954200029373169,2.0306999683380127
1705062680395432700,9.1074326171875,3.2804999351501465,-3.5306999683380127,1.5853999853134155
1705062680455432700,9.1674326171875,0.46549999713897705,-3.2802000045776367,2.7934999465942383
1705062680515432700,9.2274326171875,-1.4435999393463135,-1.8185999393463135,3.069399833679199
1705062680575432700,9.2874326171875,-1.2121999263763428,-2.2927000522613525,0.284199982881546
1705062680635432700,9.3474326171875,-0.39089998602867126,0.6780999898910522,-2.2266998291015625
1705062680695432700,9.4074326171875,-0.21939998865127563,2.246999979019165,-2.2193000316619873
1705062680755432700,9.4674326171875,-0.9775999784469604,2.245499849319458,-0.8373000025749207
1705062680815432700,9.5274326171875,1.2086999416351318,1.255199909210205,1.5544999837875366
1705062680875432700,9.5874326171875,0.13699999451637268,0.9418999552726746,-0.6398999691009521
1705062680935432700,9.6474326171875,-0.5722999572753906,-4.27239990234375,1.7322999238967896
1705062680995432700,9.7074326171875,0.7741000056266785,-6.390500068664551,2.5088999271392822
1705062681055432700,9.7674326171875,0.5218999981880188,-2.5760998725891113,1.7669999599456787
1705062681115432700,9.8274326171875,-0.6843999624252319,1.4732999801635742,2.799799919128418
1705062681175432700,9.8874326171875,-0.3278000056743622,1.8421999216079712,-0.8238999843597412
1705062681235432700,9.9474326171875,-1.0938999652862549,0.9289000034332275,-5.539999961853027
1705062681295432700,10.0074326171875,-2.0097999572753906,1.8787999153137207,-8.038899421691895
1705062681355432700,10.0674326171875,-1.1780999898910522,7.035399913787842,-5.257299900054932
1705062681415432700,10.1274326171875,0.044199999421834946,3.5720999240875244,-3.3820998668670654
1705062681475432700,10.1874326171875,0.7098000049591064,0.06780000030994415,-0.8970999717712402
1705062681535432700,10.2474326171875,1.323699951171875,-2.019399881362915,1.7258999347686768
1705062681595432700,10.3074326171875,2.492300033569336,-1.4124000072479248,2.4173998832702637
1705062681655432700,10.3674326171875,3.13349986076355,0.8781999945640564,3.3546998500823975
1705062681715432700,10.4274326171875,3.2934999465942383,4.523499965667725,4.15369987487793
1705062681775432700,10.4874326171875,-0.7665999531745911,2.6016998291015625,5.924699783325195
1705062681835432700,10.5474326171875,-2.5077998638153076,2.7856998443603516,6.483699798583984
1705062681895432700,10.6074326171875,-0.651699960231781,2.6854000091552734,2.2858998775482178
1705062681955432700,10.6674326171875,-0.31369999051094055,5.783899784088135,3.3127999305725098
1705062682015432700,10.7274326171875,-0.30550000071525574,1.0794999599456787,1.1664999723434448
1705062682075432700,10.7874326171875,1.8246999979019165,-1.7254999876022339,-0.8205999732017517
1705062682135432700,10.8474326171875,3.544299840927124,-1.1644999980926514,-2.016700029373169
1705062682195432700,10.9074326171875,1.8834999799728394,1.2740999460220337,-3.77020001411438
1705062682255432700,10.9674326171875,1.5367000102996826,1.1934999227523804,-7.283999919891357
1705062682315432700,11.0274326171875,0.6274999976158142,1.6243000030517578,-8.495599746704102
1705062682375432700,11.0874326171875,0.14669999480247498,2.5336999893188477,-6.902699947357178
1705062682435432700,11.1474326171875,1.3920999765396118,5.475800037384033,-5.916199684143066
1705062682495432700,11.2074326171875,1.0670000314712524,5.673699855804443,-3.5969998836517334
1705062682555432700,11.2674326171875,0.9968999624252319,0.87909996509552,-0.3700999915599823
1705062682615432700,11.3274326171875,1.8424999713897705,-0.344899982213974,1.2922999858856201
1705062682675432700,11.3874326171875,3.7099997997283936,0.9019999504089355,2.4881999492645264
1705062682735432700,11.4474326171875,4.710299968719482,3.0023000240325928,2.4739999771118164
1705062682795432700,11.5074326171875,3.880699872970581,3.0759999752044678,4.651199817657471
1705062682855432700,11.5674326171875,1.4470999240875244,2.3724000453948975,5.614599704742432
1705062682915432700,11.6274326171875,-4.403199672698975,3.16759991645813,7.052000045776367
1705062682975432700,11.6874326171875,-1.036199927330017,6.474999904632568,3.4707000255584717
1705062683035432700,11.7474326171875,-2.706399917602539,3.2552998065948486,3.2345998287200928
1705062683095432700,11.8074326171875,0.2985999882221222,-1.3351999521255493,1.2490999698638916
1705062683155432700,11.8674326171875,1.225000023841858,-2.186199903488159,-0.5264999866485596
1705062683215432700,11.9274326171875,0.5789999961853027,-0.2700999975204468,-3.3076000213623047
1705062683275432700,11.9874326171875,0.3828999996185303,-0.17989999055862427,-4.3090996742248535
1705062683335432700,12.0474326171875,1.0118999481201172,-0.1078999936580658,-5.542799949645996
1705062683395432700,12.1074326171875,1.5464999675750732,1.6721999645233154,-6.666199684143066
1705062683455432700,12.1674326171875,2.2100000381469727,3.921799898147583,-5.284999847412109
1705062683515432700,12.2274326171875,1.9483999013900757,5.575599670410156,-4.106800079345703
1705062683575432700,12.2874326171875,1.1437000036239624,2.402899980545044,-3.617999792098999
1705062683635432700,12.3474326171875,1.070599913597107,-1.2689999341964722,-1.0921999216079712
1705062683695432700,12.4074326171875,2.475299835205078,-1.0240999460220337,0.8985999822616577
1705062683755432700,12.4674326171875,3.328399896621704,1.157599925994873,1.6603999137878418
1705062683815432700,12.5274326171875,3.2346999645233154,4.6427998542785645,3.1801998615264893
1705062683875432700,12.5874326171875,0.8208000063896179,4.204899787902832,5.761600017547607
1705062683935432700,12.6474326171875,-0.8152999877929688,2.5913000106811523,7.398399829864502
1705062683995432700,12.7074326171875,-1.7972999811172485,3.526700019836426,7.920300006866455
1705062684055432700,12.7674326171875,0.42489999532699585,7.279999732971191,3.798299789428711
1705062684115432700,12.8274326171875,-0.18439999222755432,2.8381998538970947,1.4617999792099
1705062684175432700,12.8874326171875,1.1145999431610107,-1.4062999486923218,-0.32339999079704285
1705062684235432700,12.9474326171875,2.456699848175049,-1.4607999324798584,-1.7258999347686768
1705062684295432700,13.0074326171875,3.0590999126434326,1.7848999500274658,-4.0092997550964355
1705062684355432700,13.0674326171875,1.9702999591827393,2.490799903869629,-6.365699768066406
1705062684415432700,13.1274326171875,2.519399881362915,2.557499885559082,-7.335999965667725
1705062684475432700,13.1874326171875,1.5024999380111694,2.347399950027466,-7.673999786376953
1705062684535432700,13.2474326171875,0.7386999726295471,3.4848999977111816,-5.461299896240234
1705062684595432700,13.3074326171875,-0.031599998474121094,5.718599796295166,-1.8453999757766724
1705062684655432700,13.3674326171875,0.11329999566078186,5.61359977722168,-0.299699991941452
1705062684715432700,13.4274326171875,1.173699975013733,-0.06610000133514404,1.8177999258041382
1705062684775432700,13.4874326171875,1.5311999320983887,-2.010200023651123,4.2230000495910645
1705062684835432700,13.5474326171875,2.935499906539917,-1.2424999475479126,4.007800102233887
1705062684895432700,13.6074326171875,3.158399820327759,0.854200005531311,3.3578999042510986
1705062684955432700,13.6674326171875,2.359099864959717,1.5922999382019043,3.929999828338623
1705062685015432700,13.7274326171875,-0.8844999670982361,3.879699945449829,6.455899715423584
1705062685075432700,13.7874326171875,-1.4002999067306519,5.048699855804443,6.030799865722656
1705062685135432700,13.8474326171875,0.4518999755382538,6.733199596405029,4.867700099945068
1705062685195432700,13.9074326171875,-0.1687999963760376,5.5169997215271,1.0471999645233154
1705062685255432700,13.9674326171875,1.4259999990463257,0.2402999997138977,-0.4919999837875366
1705062685315432700,14.0274326171875,3.5809998512268066,-2.8862998485565186,-2.8845999240875244
1705062685375432700,14.0874326171875,3.1771998405456543,0.9930999875068665,-4.131700038909912
1705062685435432700,14.1474326171875,2.509399890899658,2.5358998775482178,-5.301699638366699
1705062685495432700,14.2074326171875,3.1714999675750732,-0.750499963760376,-7.856400012969971
1705062685555432700,14.2674326171875,1.666700005531311,2.9738998413085938,-7.930500030517578
1705062685615432700,14.3274326171875,0.038599997758865356,2.200399875640869,-6.880399703979492
1705062685675432700,14.3874326171875,0.9243999719619751,4.456399917602539,-5.263199806213379
1705062685735432700,14.4474326171875,0.36309999227523804,6.0966997146606445,-2.035399913787842
1705062685795432700,14.5074326171875,0.2531000077724457,4.409999847412109,-0.09009999781847
1705062685855432700,14.5674326171875,1.2467999458312988,1.4799000024795532,0.7489999532699585
1705062685915432700,14.6274326171875,3.4526000022888184,1.1233999729156494,3.1910998821258545
1705062685975432700,14.6874326171875,4.529399871826172,2.679999828338623,4.310999870300293
1705062686035432700,14.7474326171875,4.377299785614014,3.6826999187469482,5.531199932098389
1705062686095432700,14.8074326171875,2.4756999015808105,1.5855000019073486,7.31279993057251
1705062686155432700,14.8674326171875,-0.15919999778270721,5.152100086212158,7.365599632263184
1705062686215432700,14.9274326171875,0.6151999831199646,6.094699859619141,5.501100063323975
1705062686275432700,14.9874326171875,-0.2256999909877777,6.888599872589111,1.5321999788284302
1705062686335432700,15.0474326171875,-1.2782999277114868,1.343999981880188,0.8039999604225159
1705062686395432700,15.1074326171875,1.0441999435424805,-1.168299913406372,-0.4323999881744385
1705062686455432700,15.1674326171875,1.7690999507904053,0.8357999920845032,-2.555999994277954
1705062686515432700,15.2274326171875,1.7134000062942505,3.648699998855591,-4.398399829864502
1705062686575432700,15.2874326171875,3.0368998050689697,2.731299877166748,-7.137099742889404
1705062686635432700,15.3474326171875,1.4993000030517578,0.8425999879837036,-8.73330020904541
1705062686695432700,15.4074326171875,1.5547999143600464,0.9012999534606934,-8.289999961853027
1705062686755432700,15.4674326171875,1.6638000011444092,5.204099655151367,-6.2916998863220215
1705062686815432700,15.5274326171875,-0.34849998354911804,7.008399963378906,-3.2460999488830566
1705062686875432700,15.5874326171875,-0.10329999774694443,3.417099952697754,0.012600000016391277
1705062686935432700,15.6474326171875,0.13699999451637268,0.03889999911189079,0.46480000019073486
1705062686995432700,15.7074326171875,2.9056999683380127,1.0356999635696411,1.754499912261963
1705062687055432700,15.7674326171875,4.484699726104736,2.735299825668335,2.573699951171875
1705062687115432700,15.8274326171875,4.698999881744385,4.103699684143066,4.689599990844727
1705062687175432700,15.8874326171875,2.158900022506714,2.4565000534057617,6.35890007019043
1705062687235432700,15.9474326171875,0.051500000059604645,3.0936999320983887,7.023399829864502
1705062687295432700,16.0074326171875,0.38259997963905334,5.584499835968018,4.590799808502197
1705062687355432700,16.0674326171875,0.6747999787330627,7.398900032043457,3.1355998516082764
1705062687415432700,16.1274326171875,0.4099999964237213,1.5030999183654785,1.4107999801635742
1705062687475432700,16.1874326171875,1.5174999237060547,-0.6632999777793884,-0.40309998393058777
1705062687535432700,16.2474326171875,1.7874999046325684,1.2973999977111816,-3.078699827194214
1705062687595432700,16.3074326171875,0.8048999905586243,2.3608999252319336,-4.734699726104736
1705062687655432700,16.3674326171875,2.890199899673462,2.110300064086914,-7.150300025939941
1705062687715432700,16.4274326171875,1.4282000064849854,2.498499870300293,-8.916399955749512
1705062687775432700,16.4874326171875,-0.18129999935626984,0.676099956035614,-8.132800102233887
1705062687835432700,16.5474326171875,1.5746999979019165,3.9786999225616455,-6.428400039672852
1705062687895432700,16.6074326171875,-0.5221999883651733,5.827899932861328,-3.177299976348877
1705062687955432700,16.6674326171875,-0.12109999358654022,3.8200998306274414,-1.011299967765808
1705062688015432700,16.7274326171875,0.9850999712944031,0.7799999713897705,0.7152999639511108
1705062688075432700,16.7874326171875,3.049799919128418,0.9226999878883362,2.5708999633789062
1705062688135432700,16.8474326171875,4.121200084686279,2.6980998516082764,3.2151999473571777
1705062688195432700,16.9074326171875,4.835899829864502,5.088699817657471,4.560800075531006
1705062688255432700,16.9674326171875,1.9218999147415161,3.6053998470306396,5.726500034332275
1705062688315432700,17.0274326171875,-0.01489999983459711,2.5107998847961426,6.0040998458862305
1705062688375432700,17.0874326171875,0.18479999899864197,5.2683000564575195,3.9524998664855957
1705062688435432700,17.1474326171875,0.3553999960422516,5.813499927520752,3.106299877166748
1705062688495432700,17.2074326171875,0.8363999724388123,0.06809999793767929,1.680299997329712
1705062688555432700,17.2674326171875,1.1037999391555786,-1.9444999694824219,-0.033399999141693115
1705062688615432700,17.3274326171875,1.3370999097824097,0.2935999929904938,-2.072200059890747
1705062688675432700,17.3874326171875,0.6051999926567078,4.433700084686279,-2.950199842453003
1705062688735432700,17.4474326171875,2.121299982070923,3.9606997966766357,-4.720900058746338
1705062688795432700,17.5074326171875,1.1019999980926514,1.5925999879837036,-7.632299900054932
1705062688855432700,17.5674326171875,0.4520999789237976,0.08069999516010284,-8.503799438476562
1705062688915432700,17.6274326171875,0.7662000060081482,3.285599946975708,-5.843699932098389
1705062688975434200,17.687434326171875,0.4235000014305115,3.674299955368042,-4.113999843597412
1705062689035432700,17.7474326171875,1.2695999145507812,1.9303998947143555,-2.479599952697754
1705062689095432700,17.8074326171875,1.5571999549865723,-0.21279999613761902,-0.5669000148773193
1705062689155432700,17.8674326171875,2.88349986076355,1.090399980545044,1.094499945640564
1705062689215432700,17.9274326171875,3.4779999256134033,2.913599967956543,2.6698999404907227
1705062689275432700,17.9874326171875,3.366499900817871,4.3628997802734375,3.3345999717712402
1705062689335432700,18.0474326171875,1.987299919128418,3.746799945831299,5.153899669647217
1705062689395432700,18.1074326171875,0.9353999495506287,1.6531000137329102,7.825599670410156
1705062689455432700,18.1674326171875,-0.14999999105930328,4.643199920654297,7.656599998474121
1705062689515432700,18.2274326171875,1.7197999954223633,5.009999752044678,2.947700023651123
1705062689575432700,18.2874326171875,0.4643999934196472,2.59909987449646,1.1323000192642212
1705062689635432700,18.3474326171875,0.7709999680519104,-1.3877999782562256,-0.46449998021125793
1705062689695432700,18.4074326171875,2.471299886703491,-2.5722999572753906,-1.2107999324798584
1705062689755432700,18.4674326171875,1.8442999124526978,0.35679998993873596,-3.400399923324585
1705062689815432700,18.5274326171875,-0.044999998062849045,1.9296000003814697,-4.839099884033203
1705062689875432700,18.5874326171875,-0.3926999866962433,2.515899896621704,-6.636199951171875
1705062689935432700,18.6474326171875,-0.5608999729156494,0.8542999625205994,-7.818299770355225
1705062689995432700,18.7074326171875,-0.7328000068664551,2.1922998428344727,-7.152099609375
1705062690055432700,18.7674326171875,-1.1072999238967896,4.81279993057251,-3.4935998916625977
1705062690115432700,18.8274326171875,0.7214999794960022,3.3767998218536377,-3.6865999698638916
1705062690175432700,18.8874326171875,0.8034999966621399,0.8150999546051025,-1.191100001335144
1705062690235432700,18.9474326171875,1.9631999731063843,-0.6214999556541443,1.771799921989441
1705062690295432700,19.0074326171875,3.2963998317718506,0.703000009059906,3.123199939727783
1705062690355432700,19.0674326171875,3.3766000270843506,2.7704999446868896,2.9687998294830322
1705062690415432700,19.1274326171875,2.9522998332977295,3.861599922180176,3.0650999546051025
1705062690475432700,19.1874326171875,0.6164999604225159,-0.17659999430179596,7.432399749755859
1705062690535432700,19.2474326171875,-0.08789999783039093,2.894699811935425,7.600800037384033
1705062690595432700,19.3074326171875,0.6044999957084656,7.882499694824219,4.793999671936035
1705062690655432700,19.3674326171875,1.4836000204086304,3.410799980163574,1.3166999816894531
1705062690715432700,19.4274326171875,1.9805999994277954,-1.5793999433517456,-0.16759999096393585
1705062690775432700,19.4874326171875,2.8401999473571777,-2.4868998527526855,-1.0717999935150146
1705062690835432700,19.5474326171875,2.7619998455047607,0.5627999901771545,-3.1250998973846436
1705062690895432700,19.6074326171875,0.9661999940872192,2.920099973678589,-4.593400001525879
1705062690955432700,19.6674326171875,0.2133999913930893,3.4004998207092285,-6.719299793243408
1705062691015432700,19.7274326171875,0.09339999407529831,0.11629999428987503,-8.792099952697754
1705062691075432700,19.7874326171875,-1.1816999912261963,-0.15070000290870667,-7.401000022888184
1705062691135432700,19.8474326171875,0.27629998326301575,3.630699872970581,-5.02810001373291
1705062691195432700,19.9074326171875,0.38439998030662537,5.457599639892578,-3.7296998500823975
1705062691255432700,19.9674326171875,0.1565999984741211,3.113999843597412,-0.45569998025894165
1705062691315432700,20.0274326171875,1.607100009918213,0.6467999815940857,1.410599946975708
1705062691375432700,20.0874326171875,2.9856998920440674,0.7389000058174133,2.687299966812134
1705062691435432700,20.1474326171875,3.3138999938964844,2.769399881362915,2.9758999347686768
1705062691495432700,20.2074326171875,3.435999870300293,2.399099826812744,4.910899639129639
1705062691555432700,20.2674326171875,1.5458999872207642,0.8565999865531921,6.610899925231934
1705062691615432700,20.3274326171875,0.3619999885559082,2.1538000106811523,5.764499664306641
1705062691675432700,20.3874326171875,1.6871999502182007,5.816499710083008,4.660799980163574
1705062691735432700,20.4474326171875,0.7448999881744385,5.757999897003174,2.554299831390381
1705062691795432700,20.5074326171875,0.20109999179840088,0.647599995136261,0.4587000012397766
1705062691855432700,20.5674326171875,1.8284999132156372,-1.3387999534606934,-0.6159999966621399
1705062691915432700,20.6274326171875,2.1098999977111816,0.7699999809265137,-2.6250998973846436
1705062691975432700,20.6874326171875,1.5561000108718872,2.8165998458862305,-4.121200084686279
1705062692035432700,20.7474326171875,1.0504000186920166,3.547299861907959,-6.632299900054932
1705062692095432700,20.8074326171875,-0.8698999881744385,2.210099935531616,-8.648699760437012
1705062692155432700,20.8674326171875,-0.9569000005722046,1.3007999658584595,-7.1514997482299805
1705062692215432700,20.9274326171875,0.586899995803833,3.135200023651123,-5.354000091552734
1705062692275432700,20.9874326171875,0.3303999900817871,3.9903998374938965,-4.21589994430542
1705062692335432700,21.0474326171875,0.9109999537467957,0.7350999712944031,-2.082900047302246
1705062692395432700,21.1074326171875,2.6073999404907227,0.44859999418258667,0.6225999593734741
1705062692455432700,21.1674326171875,3.19599986076355,1.795799970626831,1.774999976158142
1705062692515432700,21.2274326171875,3.3112998008728027,4.8684000968933105,2.553799867630005
1705062692575432700,21.2874326171875,2.2898998260498047,4.592499732971191,6.113699913024902
1705062692635432700,21.3474326171875,1.1832000017166138,3.0690999031066895,8.56190013885498
1705062692695432700,21.4074326171875,0.20999999344348907,4.185299873352051,7.669999599456787
1705062692755432700,21.4674326171875,0.34039998054504395,6.3242998123168945,3.989300012588501
1705062692815432700,21.5274326171875,1.0638999938964844,1.2106999158859253,2.1930999755859375
1705062692875432700,21.5874326171875,1.6955000162124634,-1.7577999830245972,-0.2606000006198883
1705062692935432700,21.6474326171875,1.9131999015808105,-0.012199999764561653,-2.325700044631958
1705062692995432700,21.7074326171875,0.979699969291687,2.725800037384033,-3.844899892807007
1705062693055432700,21.7674326171875,0.7197999954223633,2.0348000526428223,-5.450099945068359
1705062693115432700,21.8274326171875,0.40309998393058777,1.7773000001907349,-8.274299621582031
1705062693175432700,21.8874326171875,0.5694999694824219,2.499500036239624,-7.410899639129639
1705062693235503000,21.947503173828125,0.6807000041007996,1.3306000232696533,-5.708600044250488
1705062693295432700,22.0074326171875,0.7410999536514282,4.249499797821045,-3.563199996948242
1705062693355432700,22.0674326171875,0.19629999995231628,4.826600074768066,-2.154599905014038
1705062693415432700,22.1274326171875,1.3392999172210693,1.218500018119812,0.19509999454021454
1705062693475432700,22.1874326171875,2.450000047683716,0.007499999832361937,1.7263998985290527
1705062693535432700,22.2474326171875,3.574899911880493,2.3064000606536865,2.347100019454956
1705062693595432700,22.3074326171875,3.4614999294281006,4.236799716949463,3.282399892807007
1705062693655432700,22.3674326171875,1.7069000005722046,3.051299810409546,7.331899642944336
1705062693715432700,22.4274326171875,0.49069997668266296,2.9686999320983887,7.791199684143066
1705062693775432700,22.4874326171875,1.2745000123977661,3.1350998878479004,5.870800018310547
1705062693835432700,22.5474326171875,1.7853999137878418,6.463299751281738,3.467599868774414
1705062693895432700,22.6074326171875,1.8255999088287354,2.608799934387207,0.8996999859809875
1705062693955432700,22.6674326171875,1.7776999473571777,-0.47999998927116394,-0.5410999655723572
1705062694015432700,22.7274326171875,2.337899923324585,0.6287999749183655,-1.4881999492645264
1705062694075432700,22.7874326171875,1.719499945640564,2.737799882888794,-2.9438998699188232
1705062694135432700,22.8474326171875,2.5444998741149902,2.756700038909912,-7.129499912261963
1705062694195432700,22.9074326171875,-0.3779999911785126,2.562000036239624,-8.239399909973145
1705062694255432700,22.9674326171875,-2.3357999324798584,1.382099986076355,-8.264399528503418
1705062694315432700,23.0274326171875,-1.1762999296188354,1.6335999965667725,-6.602200031280518
1705062694375432700,23.0874326171875,-1.6739000082015991,4.394199848175049,-4.207299709320068
1705062694435432700,23.1474326171875,0.4283999800682068,4.528299808502197,-1.7414000034332275
1705062694495432700,23.2074326171875,1.2699999809265137,1.775399923324585,-0.9910999536514282
1705062694555432700,23.2674326171875,3.4622998237609863,1.0976999998092651,1.5865999460220337
1705062694615432700,23.3274326171875,4.499799728393555,2.7630999088287354,2.3987998962402344
1705062694675432700,23.3874326171875,4.5864996910095215,3.0316998958587646,4.119499683380127
1705062694735432700,23.4474326171875,4.30649995803833,3.1359000205993652,5.273600101470947
1705062694795432700,23.5074326171875,1.1669999361038208,3.1958999633789062,6.917299747467041
1705062694855432700,23.5674326171875,0.370199978351593,5.486099720001221,5.596399784088135
1705062694915432700,23.6274326171875,-0.5383999943733215,5.638400077819824,3.8213999271392822
1705062694975432700,23.6874326171875,0.40139999985694885,1.8185999393463135,2.644399881362915
1705062695035432700,23.7474326171875,0.2809000015258789,-1.0917999744415283,-0.7134000062942505
1705062695095432700,23.8074326171875,1.8043999671936035,-1.5565999746322632,-1.5820999145507812
1705062695155432700,23.8674326171875,1.3773999214172363,0.9984999895095825,-3.9079999923706055
1705062695215432700,23.9274326171875,0.6141999959945679,3.1160998344421387,-4.730999946594238
1705062695275432700,23.9874326171875,0.5889999866485596,3.0353000164031982,-6.447199821472168
1705062695335432700,24.0474326171875,1.8601999282836914,-0.7360999584197998,-9.266399383544922
1705062695395432700,24.1074326171875,1.5576999187469482,1.7802999019622803,-7.067800045013428
1705062695455432700,24.1674326171875,0.960599958896637,6.255399703979492,-4.247600078582764
1705062695515432700,24.2274326171875,0.3172000050544739,6.172399997711182,-2.227299928665161
1705062695575432700,24.2874326171875,0.6202999949455261,1.9483000040054321,0.4408999979496002
1705062695635432700,24.3474326171875,1.844099998474121,0.16489998996257782,1.921799898147583
1705062695695432700,24.4074326171875,3.460899829864502,0.2483000010251999,3.208400011062622
1705062695755432700,24.4674326171875,4.529799938201904,3.0657999515533447,3.3718998432159424
1705062695815432700,24.5274326171875,3.9567999839782715,3.421099901199341,6.883899688720703
1705062695875432700,24.5874326171875,2.2070000171661377,4.8942999839782715,10.865699768066406
1705062695935432700,24.6474326171875,0.4285999834537506,5.28849983215332,5.637399673461914
1705062695995432700,24.7074326171875,0.5699999928474426,7.939499855041504,2.1612000465393066
1705062696055432700,24.7674326171875,0.2312999963760376,3.378000020980835,0.5144000053405762
1705062696115432700,24.8274326171875,0.6863999962806702,0.7095999717712402,-1.6172999143600464
1705062696175432700,24.8874326171875,1.0921000242233276,0.6428999900817871,-3.496299982070923
1705062696235432700,24.9474326171875,2.3413000106811523,1.0914000272750854,-5.853499889373779
1705062696295432700,25.0074326171875,1.2421000003814697,2.500499963760376,-8.33549976348877
1705062696355432700,25.0674326171875,-1.0339000225067139,4.196199893951416,-8.813199996948242
1705062696415432700,25.1274326171875,-1.3424999713897705,1.7871999740600586,-8.408299446105957
1705062696475432700,25.1874326171875,0.09779999405145645,2.7379000186920166,-5.636899948120117
1705062696535432700,25.2474326171875,0.6110999584197998,4.784899711608887,-3.9694998264312744
1705062696595434200,25.307434326171876,0.7827999591827393,5.831199645996094,-2.5269999504089355
1705062696655432700,25.3674326171875,2.51639986038208,2.8055999279022217,0.6913999915122986
1705062696715432700,25.4274326171875,4.494800090789795,2.22160005569458,2.728099822998047
1705062696775432700,25.4874326171875,5.137399673461914,3.3775999546051025,3.4786999225616455
1705062696835432700,25.5474326171875,5.517399787902832,4.943999767303467,5.214799880981445
1705062696895432700,25.6074326171875,3.509399890899658,1.7874000072479248,6.878599643707275
1705062696955432700,25.6674326171875,0.5703999996185303,3.442699909210205,4.877799987792969
1705062697015432700,25.7274326171875,-0.14489999413490295,6.998499870300293,4.841700077056885
1705062697075432700,25.7874326171875,0.7418999671936035,6.245299816131592,4.300699710845947
1705062697135432700,25.8474326171875,0.9351999759674072,2.191499948501587,1.8750998973846436
1705062697195432700,25.9074326171875,0.45819997787475586,-2.3006999492645264,-0.8138999938964844
1705062697255432700,25.9674326171875,1.893399953842163,-1.4739999771118164,-0.6714000105857849
1705062697315432700,26.0274326171875,1.383099913597107,4.406499862670898,-2.942199945449829
1705062697375432700,26.0874326171875,1.5197999477386475,4.8476996421813965,-5.118799686431885
1705062697435432700,26.1474326171875,1.9259999990463257,2.9863998889923096,-8.123899459838867
1705062697495432700,26.2074326171875,0.6782999634742737,1.8766999244689941,-8.880599975585938
1705062697555432700,26.2674326171875,0.17870000004768372,2.641899824142456,-5.7846999168396
1705062697615432700,26.3274326171875,0.06449999660253525,3.1016998291015625,-3.461899995803833
1705062697675432700,26.3874326171875,-0.48079997301101685,3.457899808883667,-2.736799955368042
1705062697735432700,26.4474326171875,0.9291999936103821,1.850600004196167,-2.4184999465942383
1705062697795432700,26.5074326171875,3.0539000034332275,0.3407000005245209,1.7967000007629395
1705062697855432700,26.5674326171875,4.487199783325195,0.9580000042915344,3.11299991607666
1705062697915432700,26.6274326171875,4.553800106048584,3.3176000118255615,3.3056998252868652
1705062697975432700,26.6874326171875,4.190400123596191,4.24429988861084,4.676499843597412
1705062698035432700,26.7474326171875,0.9251999855041504,4.144700050354004,6.832200050354004
1705062698095432700,26.8074326171875,-0.3139999806880951,2.7517998218536377,5.229399681091309
1705062698155432700,26.8674326171875,1.3621000051498413,5.623300075531006,3.900899887084961
1705062698215432700,26.9274326171875,0.1460999995470047,2.2567999362945557,1.817099928855896
1705062698275432700,26.9874326171875,0.8482999801635742,-0.8440999984741211,0.257099986076355
1705062698335432700,27.0474326171875,2.2832000255584717,-0.6229000091552734,-0.5151000022888184
1705062698395432700,27.1074326171875,1.90749990940094,1.3615999221801758,-2.6815998554229736
1705062698455432700,27.1674326171875,3.232499837875366,1.4017000198364258,-6.580499649047852
1705062698515432700,27.2274326171875,0.5074999928474426,3.004999876022339,-7.210999965667725
1705062698575432700,27.2874326171875,2.9487998485565186,2.9398000240325928,-6.94219970703125
1705062698635432700,27.3474326171875,2.963099956512451,1.6121999025344849,-6.379199981689453
1705062698695432700,27.4074326171875,1.5346999168395996,4.63700008392334,-3.561699867248535
1705062698755432700,27.4674326171875,0.7019999623298645,4.986499786376953,-1.8646999597549438
1705062698815432700,27.5274326171875,0.18060000240802765,0.27140000462532043,-2.1998000144958496
1705062698875432700,27.5874326171875,1.6368999481201172,-1.0666999816894531,-0.12860000133514404
1705062698935432700,27.6474326171875,3.4800000190734863,1.5276999473571777,2.3271000385284424
1705062698995432700,27.7074326171875,3.4895999431610107,4.78279972076416,4.633899688720703
1705062699055432700,27.7674326171875,2.078199863433838,4.95389986038208,7.628299713134766
1705062699115432700,27.8274326171875,1.9923999309539795,2.176100015640259,8.28339958190918
1705062699175432700,27.8874326171875,2.7783000469207764,3.798499822616577,6.112400054931641
1705062699235432700,27.9474326171875,1.4648000001907349,7.050999641418457,2.884399890899658
1705062699295432700,28.0074326171875,0.3969999849796295,3.280399799346924,0.6801999807357788
1705062699355432700,28.0674326171875,1.6726999282836914,-1.0398999452590942,-0.44269999861717224
1705062699415432700,28.1274326171875,2.190500020980835,-2.0530998706817627,-1.8823999166488647
1705062699475432700,28.1874326171875,1.4752999544143677,1.1785999536514282,-4.304100036621094
1705062699535432700,28.2474326171875,0.1347000002861023,2.2407000064849854,-6.2114996910095215
1705062699595432700,28.3074326171875,0.20759999752044678,1.7186999320983887,-7.094799995422363
1705062699655432700,28.3674326171875,-0.25599998235702515,0.9777999520301819,-9.001500129699707
1705062699715432700,28.4274326171875,0.33329999446868896,2.1979000568389893,-6.078999996185303
1705062699775432700,28.4874326171875,1.046199917793274,4.1419997215271,-5.184299945831299
1705062699835432700,28.5474326171875,0.5144000053405762,7.6092000007629395,-3.1676998138427734
1705062699895432700,28.6074326171875,1.7501999139785767,2.4052000045776367,0.18289999663829803
1705062699955432700,28.6674326171875,2.4733998775482178,0.5985000133514404,1.8753999471664429
1705062700015432700,28.7274326171875,3.9498000144958496,1.2345999479293823,2.837599992752075
1705062700075432700,28.7874326171875,4.568299770355225,2.524600028991699,3.7007999420166016
1705062700135432700,28.8474326171875,4.729099750518799,3.341399908065796,4.975500106811523
1705062700195432700,28.9074326171875,2.52020001411438,2.474799871444702,6.148099899291992
1705062700255432700,28.9674326171875,-0.45889997482299805,4.075900077819824,6.202399730682373
1705062700315432700,29.0274326171875,2.022599935531616,7.055500030517578,2.8020999431610107
1705062700375432700,29.0874326171875,1.3504999876022339,3.977599859237671,2.4338998794555664
1705062700435432700,29.1474326171875,0.3349999785423279,-0.4672999978065491,-0.21529999375343323
1705062700495432700,29.2074326171875,2.3015999794006348,-2.275899887084961,-0.7687000036239624
1705062700555432700,29.2674326171875,1.9822999238967896,0.1891999989748001,-3.448499917984009
1705062700615432700,29.3274326171875,2.069200038909912,4.385900020599365,-5.710899829864502
1705062700675432700,29.3874326171875,2.3648998737335205,2.8378000259399414,-9.54949951171875
1705062700735432700,29.4474326171875,1.6664999723434448,0.09470000118017197,-9.405099868774414
1705062700795432700,29.5074326171875,2.064199924468994,1.3492999076843262,-5.82480001449585
1705062700855432700,29.5674326171875,1.8519999980926514,10.017000198364258,-0.5126000046730042
1705062700915432700,29.6274326171875,1.1137999296188354,9.135899543762207,9.300600051879883
1705062700975432700,29.6874326171875,5.23259973526001,-6.596199989318848,9.66249942779541
1705062701035432700,29.7474326171875,6.607399940490723,-5.811800003051758,8.128999710083008
1705062701095432700,29.8074326171875,0.6414999961853027,-0.7425000071525574,-0.8853999972343445
1705062701155432700,29.8674326171875,-0.14569999277591705,-0.45749998092651367,-2.111299991607666
1705062701215432700,29.9274326171875,-0.3231000006198883,1.3567999601364136,-3.7675998210906982
1705062701275432700,29.9874326171875,0.5895000100135803,2.280900001525879,-2.9809999465942383
1705062701335432700,30.0474326171875,0.9825999736785889,0.8657999634742737,-0.17979998886585236
1705062701395432700,30.1074326171875,3.1029999256134033,4.698400020599365,0.1964999884366989
1705062701455432700,30.1674326171875,1.928299903869629,2.524099826812744,-6.249599933624268
1705062701515432700,30.2274326171875,-4.386199951171875,-6.9375,4.184199810028076
1705062701575432700,30.2874326171875,-0.8694999814033508,-5.742300033569336,5.305099964141846
1705062701635432700,30.3474326171875,1.5085999965667725,-2.7200000286102295,5.105899810791016
1705062701695432700,30.4074326171875,2.1407999992370605,-1.2297999858856201,4.131499767303467
1705062701755432700,30.4674326171875,1.9644999504089355,0.7418000102043152,-2.925299882888794
1705062701815432700,30.5274326171875,0.21059998869895935,2.2774999141693115,-2.5272998809814453
1705062701875432700,30.5874326171875,1.531999945640564,7.484099864959717,-1.4740999937057495
1705062701935432700,30.6474326171875,-1.7174999713897705,7.1173996925354,1.452299952507019
1705062701995432700,30.7074326171875,0.946899950504303,0.17009998857975006,-3.906899929046631
1705062702055432700,30.7674326171875,0.6941999793052673,-3.329699993133545,-0.5929999947547913
1705062702115432700,30.8274326171875,0.3352999985218048,-5.093599796295166,1.2980999946594238
1705062702175432700,30.8874326171875,1.19569993019104,-4.499599933624268,1.6790999174118042
1705062702235432700,30.9474326171875,2.1854000091552734,-2.0169999599456787,1.7059999704360962
1705062702295432700,31.0074326171875,1.8983999490737915,2.204699993133545,0.858299970626831
1705062702355432700,31.0674326171875,-0.9167999625205994,2.1956000328063965,2.5284998416900635
1705062702415432700,31.1274326171875,0.07409999519586563,4.843299865722656,2.1066999435424805
1705062702475432700,31.1874326171875,-0.4745999872684479,-0.025699999183416367,3.874199867248535
1705062702535432700,31.2474326171875,1.4158999919891357,6.201999664306641,0.7687999606132507
1705062702595432700,31.3074326171875,0.6912999749183655,0.6593999862670898,0.5432999730110168
1705062702655432700,31.3674326171875,3.069399833679199,-4.009399890899658,0.03350000083446503
1705062702715432700,31.4274326171875,3.451900005340576,-4.1855998039245605,-0.5837000012397766
1705062702775432700,31.4874326171875,1.86899995803833,-1.8213999271392822,-2.703199863433838
1705062702835432700,31.5474326171875,0.1581999957561493,0.3407000005245209,-3.977099895477295
1705062702895432700,31.6074326171875,0.10349999368190765,2.4565000534057617,-4.297999858856201
1705062702955432700,31.6674326171875,0.46379998326301575,1.9769999980926514,-6.003599643707275
1705062703015432700,31.7274326171875,1.5570999383926392,6.25,-4.749000072479248
1705062703075432700,31.7874326171875,-0.47099998593330383,6.017699718475342,-3.110499858856201
1705062703135432700,31.8474326171875,0.7734999656677246,1.302799940109253,-0.3901999890804291
1705062703195432700,31.9074326171875,0.9493999481201172,-1.1763999462127686,1.6222999095916748
1705062703255432700,31.9674326171875,2.50849986076355,-0.5055999755859375,3.375200033187866
1705062703315432700,32.0274326171875,3.4709999561309814,0.9264999628067017,4.152100086212158
1705062703375432700,32.0874326171875,3.780399799346924,2.023099899291992,5.373899936676025
1705062703435432700,32.1474326171875,1.2244999408721924,2.7816998958587646,5.619499683380127
1705062703495432700,32.2074326171875,0.7800999879837036,6.702399730682373,6.142699718475342
1705062703555432700,32.2674326171875,1.9504998922348022,6.681699752807617,4.696300029754639
1705062703615432700,32.3274326171875,1.3571999073028564,6.230999946594238,2.1651999950408936
1705062703675432700,32.3874326171875,0.7601999640464783,0.833299994468689,0.005799999926239252
1705062703735432700,32.4474326171875,2.2259998321533203,-1.903899908065796,-0.7942999601364136
1705062703795432700,32.5074326171875,3.072999954223633,-0.36569997668266296,-2.4918999671936035
1705062703855432700,32.5674326171875,2.2156999111175537,2.370300054550171,-4.176199913024902
1705062703915432700,32.6274326171875,1.6489999294281006,5.686999797821045,-6.035599708557129
1705062703975432700,32.6874326171875,0.42479997873306274,2.09879994392395,-7.757499694824219
1705062704035432700,32.7474326171875,-2.33489990234375,0.9394999742507935,-8.935199737548828
1705062704095432700,32.8074326171875,-0.8682000041007996,0.6478999853134155,-4.8578996658325195
1705062704155432700,32.8674326171875,-0.27709999680519104,5.103799819946289,-3.606599807739258
1705062704215432700,32.9274326171875,0.20309999585151672,5.240299701690674,-3.3831000328063965
1705062704275432700,32.9874326171875,1.2813999652862549,1.6150999069213867,-0.3739999830722809
1705062704335434200,33.047434326171874,4.8968000411987305,1.253000020980835,2.6538000106811523
1705062704395432700,33.1074326171875,4.601399898529053,3.4635000228881836,3.114499807357788
1705062704455432700,33.1674326171875,4.164700031280518,5.880799770355225,3.563999891281128
1705062704515432700,33.2274326171875,2.0264999866485596,1.6495999097824097,8.411999702453613
1705062704575432700,33.2874326171875,1.7187999486923218,1.9919999837875366,6.573299884796143
1705062704635432700,33.3474326171875,2.043799877166748,9.121899604797363,4.224400043487549
1705062704695432700,33.4074326171875,1.5231000185012817,5.283999919891357,3.2841999530792236
1705062704755432700,33.4674326171875,1.708299994468689,0.3229999840259552,0.6850000023841858
1705062704815432700,33.5274326171875,1.530900001525879,-1.6445999145507812,-1.2274999618530273
1705062704875432700,33.5874326171875,1.9257999658584595,1.3805999755859375,-2.5673999786376953
1705062704935432700,33.6474326171875,1.382099986076355,3.627699851989746,-3.5939998626708984
1705062704995432700,33.7074326171875,2.4514000415802,5.878399848937988,-5.621799945831299
1705062705055432700,33.7674326171875,2.0081000328063965,1.5654999017715454,-6.9213995933532715
1705062705115432700,33.8274326171875,-1.1682000160217285,0.3828999996185303,-9.824699401855469
1705062705175432700,33.8874326171875,-1.3693000078201294,2.874699831008911,-3.687999963760376
1705062705235432700,33.9474326171875,-1.3281999826431274,3.967099905014038,-4.811699867248535
1705062705295432700,34.0074326171875,-1.2940999269485474,1.2983999252319336,0.5593999624252319
1705062705355432700,34.0674326171875,1.2760000228881836,0.38599997758865356,-1.9758999347686768
1705062705415432700,34.1274326171875,4.213099956512451,1.9084999561309814,0.5619999766349792
1705062705475432700,34.1874326171875,4.854700088500977,3.2516000270843506,0.8714999556541443
1705062705535432700,34.2474326171875,5.225800037384033,5.487400054931641,2.929299831390381
1705062705595432700,34.3074326171875,3.638199806213379,4.153299808502197,7.021199703216553
1705062705655432700,34.3674326171875,1.8601999282836914,3.1945998668670654,7.745699882507324
1705062705715432700,34.4274326171875,0.7915999889373779,6.027899742126465,4.398900032043457
1705062705775432700,34.4874326171875,-0.554099977016449,4.446499824523926,4.105799674987793
1705062705835432700,34.5474326171875,1.6114000082015991,-0.0908999964594841,2.7695999145507812
1705062705895432700,34.6074326171875,2.142199993133545,-2.073199987411499,0.343099981546402
1705062705955432700,34.6674326171875,1.8484998941421509,0.20189999043941498,-2.194399833679199
1705062706015432700,34.7274326171875,1.216599941253662,4.88129997253418,-3.0570998191833496
1705062706075432700,34.7874326171875,-0.043299999088048935,6.13539981842041,-4.8013997077941895
1705062706135432700,34.8474326171875,0.18039999902248383,0.8299999833106995,-8.092899322509766
1705062706195432700,34.9074326171875,0.20160000026226044,-1.9564999341964722,-9.87239933013916
1705062706255432700,34.9674326171875,-0.6575999855995178,5.282399654388428,-4.659499645233154
1705062706315432700,35.0274326171875,-0.7364000082015991,5.662999629974365,-4.1026997566223145
1705062706375432700,35.0874326171875,1.2922999858856201,1.4241999387741089,-2.1213998794555664
1705062706435432700,35.1474326171875,1.3489999771118164,-0.18609999120235443,0.31610000133514404
1705062706495432700,35.2074326171875,3.720899820327759,0.6679999828338623,2.0771000385284424
1705062706555432700,35.2674326171875,4.299600124359131,3.3529999256134033,2.3202998638153076
1705062706615432700,35.3274326171875,3.9696998596191406,4.907099723815918,4.160900115966797
1705062706675432700,35.3874326171875,1.0200999975204468,2.2493999004364014,6.831099987030029
1705062706735432700,35.4474326171875,1.3107999563217163,3.415099859237671,6.345999717712402
1705062706795432700,35.5074326171875,1.4204999208450317,7.615799903869629,2.480599880218506
1705062706855432700,35.5674326171875,0.6308000087738037,4.150199890136719,2.6963000297546387
1705062706915432700,35.6274326171875,2.0111000537872314,-1.4013999700546265,1.4990999698638916
1705062706975432700,35.6874326171875,2.9983999729156494,-3.05049991607666,0.24949999153614044
1705062707035432700,35.7474326171875,2.6572999954223633,0.840499997138977,-2.7017998695373535
1705062707095432700,35.8074326171875,0.09569999575614929,5.4654998779296875,-4.621799945831299
1705062707155432700,35.8674326171875,0.07919999957084656,4.344899654388428,-5.893599987030029
1705062707215432700,35.9274326171875,0.8312000036239624,1.0223000049591064,-7.648399829864502
1705062707275432700,35.9874326171875,0.7437999844551086,1.7608999013900757,-6.4375
1705062707335432700,36.0474326171875,-0.3328000009059906,3.5844998359680176,-3.1078999042510986
1705062707395432700,36.1074326171875,0.5439000129699707,4.068599700927734,-2.579200029373169
1705062707455432700,36.1674326171875,0.7634999752044678,1.2497999668121338,-0.5133000016212463
1705062707515432700,36.2274326171875,1.7730998992919922,-1.0023999214172363,0.9789999723434448
1705062707575432700,36.2874326171875,4.525300025939941,-0.9496999979019165,2.559999942779541
1705062707635432700,36.3474326171875,5.083099842071533,2.061300039291382,2.2899999618530273
1705062707695432700,36.4074326171875,4.507199764251709,5.908400058746338,3.497499942779541
1705062707755432700,36.4674326171875,2.238499879837036,5.980899810791016,6.881899833679199
1705062707815432700,36.5274326171875,1.7870999574661255,4.11929988861084,6.678199768066406
1705062707875432700,36.5874326171875,0.9477999806404114,6.461799621582031,2.071699857711792
1705062707935432700,36.6474326171875,0.958299994468689,1.5396000146865845,3.3790998458862305
1705062707995432700,36.7074326171875,1.6690999269485474,-2.4096999168395996,1.1104999780654907
1705062708055432700,36.7674326171875,2.1907999515533447,-2.3202998638153076,-0.5681999921798706
1705062708115432700,36.8274326171875,1.1187999248504639,2.373199939727783,-3.499199867248535
1705062708175432700,36.8874326171875,-1.503000020980835,3.3875999450683594,-3.536099910736084
1705062708235432700,36.9474326171875,0.9902999997138977,2.3001999855041504,-5.726999759674072
1705062708295432700,37.0074326171875,1.706299901008606,1.313099980354309,-6.948699951171875
1705062708355432700,37.0674326171875,2.220599889755249,1.8506999015808105,-5.316799640655518
1705062708415432700,37.1274326171875,2.836599826812744,5.405900001525879,-3.2026000022888184
1705062708475432700,37.1874326171875,2.235100030899048,4.2505998611450195,-1.868899941444397
1705062708535432700,37.2474326171875,1.7561999559402466,1.0356999635696411,0.3357999920845032
1705062708595432700,37.3074326171875,2.111799955368042,0.02759999968111515,2.706199884414673
1705062708655432700,37.3674326171875,3.0901999473571777,2.0167999267578125,3.0809998512268066
1705062708715432700,37.4274326171875,3.1389999389648438,3.048099994659424,3.742499828338623
1705062708775432700,37.4874326171875,3.1517999172210693,1.6449999809265137,6.375899791717529
1705062708835432700,37.5474326171875,0.40059998631477356,2.8987998962402344,5.202399730682373
1705062708895432700,37.6074326171875,1.8363999128341675,6.4730000495910645,3.834199905395508
1705062708955432700,37.6674326171875,0.9930999875068665,6.197700023651123,3.1714999675750732
1705062709015432700,37.7274326171875,1.1520999670028687,1.4108999967575073,1.3899999856948853
1705062709075432700,37.7874326171875,2.7523999214172363,-2.6417999267578125,0.34769999980926514
1705062709135432700,37.8474326171875,2.329699993133545,-2.1735999584198,-2.6054999828338623
1705062709195432700,37.9074326171875,0.5001000165939331,-0.7816999554634094,-4.095999717712402
1705062709255432700,37.9674326171875,0.028299998492002487,2.743499994277954,-4.147299766540527
1705062709315432700,38.0274326171875,1.0691999197006226,1.354699969291687,-6.488699913024902
1705062709375432700,38.0874326171875,2.1059000492095947,1.0145999193191528,-6.143499851226807
1705062709435432700,38.1474326171875,2.048799991607666,4.056099891662598,-3.27839994430542
1705062709495432700,38.2074326171875,1.2742999792099,6.46429967880249,-0.4016000032424927
1705062709555432700,38.2674326171875,0.9178999662399292,1.9993999004364014,0.3807999789714813
1705062709615432700,38.3274326171875,0.06669999659061432,-1.771299958229065,2.623999834060669
1705062709675432700,38.3874326171875,-0.4949999749660492,-2.9704999923706055,1.403999924659729
1705062709735432700,38.4474326171875,0.8776999711990356,-2.515199899673462,-0.3782999813556671
1705062709795432700,38.5074326171875,2.737799882888794,2.3028998374938965,2.1765999794006348
1705062709855432700,38.5674326171875,0.20509999990463257,5.113499641418457,5.238999843597412
1705062709915432700,38.6274326171875,1.4709999561309814,5.3968000411987305,6.595799922943115
1705062709975432700,38.6874326171875,1.838499903678894,9.133099555969238,7.550099849700928
1705062710035432700,38.7474326171875,1.9916999340057373,4.676300048828125,3.82289981842041
1705062710095432700,38.8074326171875,1.987899899482727,0.027799999341368675,1.4988999366760254
1705062710155432700,38.8674326171875,2.248999834060669,-2.4814000129699707,-0.39479997754096985
1705062710215432700,38.9274326171875,2.0586998462677,-0.039799999445676804,-2.6044998168945312
1705062710275432700,38.9874326171875,0.32189998030662537,4.623799800872803,-4.402699947357178
1705062710335432700,39.0474326171875,1.2360999584197998,3.2523000240325928,-6.381999969482422
1705062710395432700,39.1074326171875,0.9416999816894531,0.8784999847412109,-9.134200096130371
1705062710455432700,39.1674326171875,1.2283999919891357,-0.11469999700784683,-8.80009937286377
1705062710515432700,39.2274326171875,2.554800033569336,3.9343998432159424,-6.1265997886657715
1705062710575432700,39.2874326171875,1.3602999448776245,10.091899871826172,-3.414599895477295
1705062710635432700,39.3474326171875,1.3802999258041382,6.498799800872803,-0.683899998664856
1705062710695432700,39.4074326171875,2.218600034713745,1.7897999286651611,2.7151999473571777
1705062710755432700,39.4674326171875,3.565999984741211,1.9233999252319336,3.9475998878479004
1705062710815432700,39.5274326171875,5.172199726104736,4.350800037384033,4.457699775695801
1705062710875432700,39.5874326171875,5.086699962615967,4.05109977722168,5.548699855804443
1705062710935432700,39.6474326171875,3.1425998210906982,3.154399871826172,7.8690996170043945
1705062710995432700,39.7074326171875,0.16579999029636383,5.168600082397461,8.74389934539795
1705062711055432700,39.7674326171875,2.613800048828125,8.253399848937988,3.515699863433838
1705062711115432700,39.8274326171875,1.1521999835968018,7.670699596405029,1.1886999607086182
1705062711175432700,39.8874326171875,0.5559999942779541,1.4005999565124512,-0.2935999929904938
1705062711235432700,39.9474326171875,1.7639999389648438,-0.611299991607666,0.12370000034570694
1705062711295432700,40.0074326171875,1.4016000032424927,1.3026999235153198,-3.3812999725341797
1705062711355432700,40.0674326171875,-0.374099999666214,3.929999828338623,-7.315699577331543
1705062711415432700,40.1274326171875,0.6663999557495117,2.121500015258789,-8.893899917602539
1705062711475432700,40.1874326171875,1.13510000705719,0.718999981880188,-9.880899429321289
1705062711535432700,40.2474326171875,1.803299903869629,-0.13769999146461487,-7.00629997253418
1705062711595432700,40.3074326171875,2.248999834060669,8.685599327087402,-3.9368999004364014
1705062711655432700,40.3674326171875,0.7691999673843384,9.99370002746582,-1.9717999696731567
1705062711715432700,40.4274326171875,2.267899990081787,4.0742998123168945,0.6545999646186829
1705062711775432700,40.4874326171875,2.7030999660491943,1.375599980354309,3.991499900817871
1705062711835432700,40.5474326171875,3.578699827194214,1.6138999462127686,4.584099769592285
1705062711895432700,40.6074326171875,4.308000087738037,2.3073999881744385,5.7916998863220215
1705062711955432700,40.6674326171875,3.970399856567383,2.062700033187866,6.978799819946289
1705062712015432700,40.7274326171875,0.45509999990463257,2.5862998962402344,5.776299953460693
1705062712075432700,40.7874326171875,0.4900999963283539,5.060800075531006,4.8364996910095215
1705062712135432700,40.8474326171875,3.2642998695373535,10.594900131225586,3.348599910736084
1705062712195432700,40.9074326171875,1.5168999433517456,7.152499675750732,2.0279998779296875
1705062712255432700,40.9674326171875,-0.30649998784065247,1.615299940109253,-0.18559999763965607
1705062712315432700,41.0274326171875,2.853299856185913,-0.6592999696731567,0.34450000524520874
1705062712375432700,41.0874326171875,3.1083998680114746,-0.004600000102072954,-4.09060001373291
1705062712435432700,41.1474326171875,2.2540998458862305,2.583699941635132,-6.6763997077941895
1705062712495432700,41.2074326171875,2.586099863052368,5.580599784851074,-6.455999851226807
1705062712555432700,41.2674326171875,5.5630998611450195,1.63319993019104,-9.220799446105957
1705062712615432700,41.3274326171875,2.226300001144409,1.3726999759674072,-8.396200180053711
1705062712675432700,41.3874326171875,2.027600049972534,6.066400051116943,-4.148900032043457
1705062712735432700,41.4474326171875,0.14630000293254852,8.291500091552734,-2.353299856185913
1705062712795432700,41.5074326171875,2.0390000343322754,4.5167999267578125,-0.45479997992515564
1705062712855432700,41.5674326171875,3.6768999099731445,2.243499994277954,2.9335999488830566
1705062712915432700,41.6274326171875,4.425699710845947,2.3345999717712402,4.1066999435424805
1705062712975432700,41.6874326171875,5.453000068664551,3.9719998836517334,4.922499656677246
1705062713035432700,41.7474326171875,4.817800045013428,3.4319000244140625,6.495299816131592
1705062713095432700,41.8074326171875,2.4191999435424805,2.784600019454956,7.371399879455566
1705062713155432700,41.8674326171875,0.8768999576568604,5.511099815368652,5.700200080871582
1705062713215432700,41.9274326171875,1.7730000019073486,8.064499855041504,2.837399959564209
1705062713275432700,41.9874326171875,0.5715999603271484,4.209399700164795,0.37619999051094055
1705062713335432700,42.0474326171875,0.07329999655485153,0.051899999380111694,-0.3806999921798706
1705062713395432700,42.1074326171875,1.449299931526184,-0.07750000059604645,-0.8587999939918518
1705062713455432700,42.1674326171875,1.1891999244689941,2.6419999599456787,-3.4579999446868896
1705062713515432700,42.2274326171875,1.9703999757766724,3.6160998344421387,-5.932799816131592
1705062713575432700,42.2874326171875,3.933799982070923,1.8603999614715576,-7.194699764251709
1705062713635432700,42.3474326171875,3.9169998168945312,1.197700023651123,-7.684499740600586
1705062713695432700,42.4074326171875,3.3685998916625977,5.224299907684326,-5.401599884033203
1705062713755432700,42.4674326171875,1.4710999727249146,8.319700241088867,-1.7766999006271362
1705062713815432700,42.5274326171875,0.8923999667167664,5.1967997550964355,-0.6089999675750732
1705062713875432700,42.5874326171875,1.830199956893921,0.6262999773025513,1.6042999029159546
1705062713935432700,42.6474326171875,2.205899953842163,-0.027799999341368675,2.905900001525879
1705062713995432700,42.7074326171875,3.3259999752044678,0.8466999530792236,3.6847000122070312
1705062714055432700,42.7674326171875,4.585999965667725,3.2933998107910156,3.1057000160217285
1705062714115432700,42.8274326171875,3.0879998207092285,3.7881999015808105,6.653299808502197
1705062714175432700,42.8874326171875,1.0787999629974365,3.9502999782562256,6.840399742126465
1705062714235432700,42.9474326171875,1.0433999300003052,2.710700035095215,5.8827996253967285
1705062714295432700,43.0074326171875,1.8605999946594238,6.118299961090088,1.5989999771118164
1705062714355432700,43.0674326171875,0.4294999837875366,3.6691999435424805,1.110700011253357
1705062714415432700,43.1274326171875,1.1247999668121338,-0.4587000012397766,0.4202999770641327
1705062714475432700,43.1874326171875,2.5471999645233154,-1.2533999681472778,-1.6110999584197998
1705062714535432700,43.2474326171875,2.042099952697754,0.4481000006198883,-4.562399864196777
1705062714595432700,43.3074326171875,1.9270999431610107,2.165799856185913,-5.117799758911133
1705062714655432700,43.3674326171875,3.144899845123291,2.2627999782562256,-5.592499732971191
1705062714715432700,43.4274326171875,3.8536999225616455,1.9793999195098877,-7.262699604034424
1705062714775432700,43.4874326171875,3.1830999851226807,4.125800132751465,-4.561500072479248
1705062714835432700,43.5474326171875,2.250999927520752,7.966099739074707,-2.559999942779541
1705062714895432700,43.6074326171875,1.0357999801635742,6.078799724578857,0.7825999855995178
1705062714955432700,43.6674326171875,0.20019999146461487,1.3660999536514282,1.980299949645996
1705062715015432700,43.7274326171875,2.1385998725891113,0.7050999999046326,3.4491000175476074
1705062715075432700,43.7874326171875,3.89959979057312,1.653999924659729,4.113500118255615
1705062715135432700,43.8474326171875,4.6743998527526855,3.34689998626709,5.550899982452393
1705062715195432700,43.9074326171875,2.457900047302246,1.3905999660491943,7.529599666595459
1705062715255432700,43.9674326171875,0.0030999998562037945,4.466700077056885,5.05620002746582
1705062715315432700,44.0274326171875,1.3559999465942383,9.003399848937988,3.457199811935425
1705062715375432700,44.0874326171875,2.124699831008911,6.695899963378906,3.8534998893737793
1705062715435432700,44.1474326171875,1.1875,1.6466000080108643,0.8908999562263489
1705062715495432700,44.2074326171875,2.282899856567383,-0.5432999730110168,-0.35259997844696045
1705062715555432700,44.2674326171875,2.7523999214172363,-1.0018999576568604,-1.5644999742507935
1705062715615432700,44.3274326171875,2.2360999584198,2.2784998416900635,-4.463399887084961
1705062715675432700,44.3874326171875,3.623699903488159,4.681399822235107,-3.8183000087738037
1705062715735432700,44.4474326171875,4.232100009918213,1.7805999517440796,-7.0792999267578125
1705062715795432700,44.5074326171875,3.1938998699188232,1.9391999244689941,-6.174799919128418
1705062715855432700,44.5674326171875,2.407899856567383,5.989199638366699,-4.176300048828125
1705062715915432700,44.6274326171875,0.16569998860359192,5.211699962615967,-0.21930000185966492
1705062715975432700,44.6874326171875,-0.7994999885559082,0.3814999759197235,2.125999927520752
1705062716035432700,44.7474326171875,0.05379999801516533,-1.8924999237060547,0.965399980545044
1705062716095432700,44.8074326171875,2.9595999717712402,-1.3667999505996704,2.341899871826172
1705062716155432700,44.8674326171875,4.330599784851074,0.3342999815940857,2.2376999855041504
1705062716215432700,44.9274326171875,4.014999866485596,2.8564000129699707,2.964900016784668
1705062716275432700,44.9874326171875,1.1786999702453613,3.9821999073028564,5.1946001052856445
1705062716335432700,45.0474326171875,0.734499990940094,5.471399784088135,6.284800052642822
1705062716395432700,45.1074326171875,1.5210999250411987,5.950200080871582,1.5978999137878418
1705062716455432700,45.1674326171875,0.41999998688697815,4.211899757385254,1.6335999965667725
1705062716515432700,45.2274326171875,1.2333999872207642,-0.949999988079071,0.5982999801635742
1705062716575432700,45.2874326171875,2.325899839401245,-3.641899824142456,0.14479999244213104
1705062716635432700,45.3474326171875,2.6605000495910645,-1.490299940109253,-1.994399905204773
1705062716695432700,45.4074326171875,1.3768999576568604,0.9616999626159668,-4.21429967880249
1705062716755432700,45.4674326171875,0.4163999855518341,2.2500998973846436,-5.43120002746582
1705062716815432700,45.5274326171875,1.1236000061035156,2.6648998260498047,-7.731599807739258
1705062716875432700,45.5874326171875,0.7645999789237976,2.5497000217437744,-5.763299942016602
1705062716935432700,45.6474326171875,0.3929999768733978,6.649999618530273,-3.7321999073028564
1705062716995432700,45.7074326171875,0.49300000071525574,6.634799957275391,-0.9875999689102173
1705062717055432700,45.7674326171875,0.4520999789237976,1.5870000123977661,0.35599997639656067
1705062717115432700,45.8274326171875,2.9284000396728516,0.9259999990463257,2.493000030517578
1705062717175432700,45.8874326171875,4.401700019836426,1.7497999668121338,3.910099983215332
1705062717235432700,45.9474326171875,4.950200080871582,3.41129994392395,5.541299819946289
1705062717295432700,46.0074326171875,3.8633999824523926,2.268899917602539,7.638399600982666
1705062717355432700,46.0674326171875,2.4621999263763428,3.662799835205078,5.127899646759033
1705062717415432700,46.1274326171875,0.6732999682426453,6.131999969482422,5.017299652099609
1705062717475432700,46.1874326171875,2.051800012588501,9.379599571228027,3.9133999347686768
1705062717535432700,46.2474326171875,0.9124999642372131,4.5000996589660645,2.3825998306274414
1705062717595432700,46.3074326171875,0.23229999840259552,0.48099997639656067,-0.649899959564209
1705062717655432700,46.3674326171875,1.8194999694824219,-0.3716999888420105,-1.452199935913086
1705062717715432700,46.4274326171875,1.5733000040054321,0.48159998655319214,-3.571499824523926
1705062717775432700,46.4874326171875,3.1584999561309814,1.4997999668121338,-6.6454997062683105
1705062717835432700,46.5474326171875,3.594299793243408,3.873699903488159,-7.075599670410156
1705062717895432700,46.6074326171875,3.7764999866485596,1.5060999393463135,-9.005599975585938
1705062717955432700,46.6674326171875,3.030400037765503,2.118799924850464,-6.311299800872803
1705062718015432700,46.7274326171875,2.3113999366760254,8.18589973449707,-3.534099817276001
1705062718075432700,46.7874326171875,1.2697999477386475,6.846199989318848,-1.7412999868392944
1705062718135432700,46.8474326171875,1.6207000017166138,2.8345999717712402,1.222599983215332
1705062718195432700,46.9074326171875,2.722299814224243,0.7123000025749207,2.5386998653411865
1705062718255432700,46.9674326171875,4.119499683380127,2.0137999057769775,2.999699831008911
1705062718315432700,47.0274326171875,5.362499713897705,3.3945000171661377,4.01039981842041
1705062718375432700,47.0874326171875,5.117300033569336,4.67009973526001,5.549200057983398
1705062718435432700,47.1474326171875,3.090399980545044,3.8929998874664307,6.406099796295166
1705062718495432700,47.2074326171875,0.8222000002861023,5.758699893951416,7.1194000244140625
1705062718555432700,47.2674326171875,1.4951000213623047,7.984799861907959,1.9734998941421509
1705062718615432700,47.3274326171875,0.18469999730587006,3.7045998573303223,2.2358999252319336
1705062718675432700,47.3874326171875,0.790399968624115,-0.6676999926567078,-0.011599999852478504
1705062718735432700,47.4474326171875,1.9530999660491943,-1.0606999397277832,-0.8650999665260315
1705062718795432700,47.5074326171875,1.2192999124526978,2.835099935531616,-3.557499885559082
1705062718855432700,47.5674326171875,1.1003999710083008,3.7236998081207275,-5.018899917602539
1705062718915432700,47.6274326171875,4.678599834442139,2.205899953842163,-6.604300022125244
1705062718975432700,47.6874326171875,4.0381999015808105,3.2314000129699707,-7.4853997230529785
1705062719035432700,47.7474326171875,3.5770998001098633,2.4343998432159424,-4.896999835968018
1705062719095432700,47.8074326171875,2.756500005722046,7.047699928283691,-2.836400032043457
1705062719155432700,47.8674326171875,0.7339000105857849,5.479000091552734,-0.5090999603271484
1705062719215432700,47.9274326171875,1.4948999881744385,1.0526000261306763,1.093500018119812
1705062719275432700,47.9874326171875,2.246299982070923,0.04079999774694443,2.016200065612793
1705062719335432700,48.0474326171875,3.6248998641967773,0.882599949836731,2.8801000118255615
1705062719395432700,48.1074326171875,4.90939998626709,2.838599920272827,3.3957998752593994
1705062719455432700,48.1674326171875,3.40339994430542,2.767699956893921,6.857399940490723
1705062719515432700,48.2274326171875,1.1574000120162964,5.275300025939941,5.763799667358398
1705062719575432700,48.2874326171875,1.0334999561309814,6.6178998947143555,4.877699851989746
1705062719635432700,48.3474326171875,2.259199857711792,7.124699592590332,2.7259998321533203
1705062719695434200,48.407434326171874,1.7835999727249146,2.390199899673462,1.924299955368042
1705062719755432700,48.4674326171875,2.0690999031066895,-0.4405999779701233,-0.43869999051094055
1705062719815432700,48.5274326171875,2.9117000102996826,0.5078999996185303,-1.397499918937683
1705062719875432700,48.5874326171875,2.579699993133545,1.6870999336242676,-3.251499891281128
1705062719935432700,48.6474326171875,3.7642998695373535,3.3137998580932617,-6.379799842834473
1705062719995432700,48.7074326171875,2.7381999492645264,2.261899948120117,-7.719099998474121
1705062720055432700,48.7674326171875,1.8037999868392944,1.6830999851226807,-8.448299407958984
1705062720115432700,48.8274326171875,1.997399926185608,2.402099847793579,-5.2714996337890625
1705062720175432700,48.8874326171875,0.5430999994277954,6.907899856567383,-2.3309998512268066
1705062720235432700,48.9474326171875,0.6678000092506409,5.827499866485596,-1.3770999908447266
1705062720295432700,49.0074326171875,1.2653999328613281,2.4579999446868896,0.8592000007629395
1705062720355432700,49.0674326171875,2.9101998805999756,1.0773999691009521,3.4306998252868652
1705062720415432700,49.1274326171875,4.288000106811523,1.7530999183654785,4.293499946594238
1705062720475432700,49.1874326171875,4.932199954986572,3.0062999725341797,5.467099666595459
1705062720535432700,49.2474326171875,3.9306998252868652,1.5508999824523926,6.796099662780762
1705062720595432700,49.3074326171875,1.5485999584197998,3.9814999103546143,5.365299701690674
1705062720655432700,49.3674326171875,0.09529999643564224,5.754499912261963,4.030399799346924
1705062720715432700,49.4274326171875,1.7656999826431274,7.861999988555908,2.6782000064849854
1705062720775432700,49.4874326171875,-0.2581000030040741,4.428899765014648,1.8080999851226807
1705062720835432700,49.5474326171875,1.278499960899353,0.07589999586343765,1.0805000066757202
1705062720895432700,49.6074326171875,2.9191999435424805,-0.4740999937057495,-0.4487999975681305
1705062720955432700,49.6674326171875,2.8920998573303223,1.1754000186920166,-3.410099983215332
1705062721015432700,49.7274326171875,3.985499858856201,2.0209999084472656,-4.114200115203857
1705062721075432700,49.7874326171875,5.860199928283691,2.9235999584198,-4.229300022125244
1705062721135432700,49.8474326171875,5.264899730682373,1.7660999298095703,-5.707699775695801
1705062721195432700,49.9074326171875,4.10099983215332,4.21429967880249,-5.1946001052856445
1705062721255432700,49.9674326171875,1.8743999004364014,5.879899978637695,-2.379999876022339
1705062721315432700,50.0274326171875,0.3766999840736389,4.500199794769287,-0.27379998564720154
1705062721375432700,50.0874326171875,-1.1136000156402588,0.7881999611854553,-0.5343999862670898
1705062721435432700,50.1474326171875,1.07669997215271,0.12029999494552612,0.936199963092804
1705062721495432700,50.2074326171875,4.922199726104736,0.33480000495910645,3.774399995803833
1705062721555432700,50.2674326171875,4.979000091552734,2.475399971008301,4.079400062561035
1705062721615432700,50.3274326171875,3.2612998485565186,5.452199935913086,5.771399974822998
1705062721675432700,50.3874326171875,0.873699963092804,7.024099826812744,7.113499641418457
1705062721735432700,50.4474326171875,0.6879000067710876,2.84909987449646,4.36299991607666
1705062721795432700,50.5074326171875,2.579200029373169,4.1967997550964355,1.3464999198913574
1705062721855432700,50.5674326171875,0.9585999846458435,1.5,2.0269999504089355
1705062721915432700,50.6274326171875,1.2560999393463135,-1.2649999856948853,0.8863999843597412
1705062721975432700,50.6874326171875,1.8873999118804932,1.0717999935150146,-0.251800000667572
1705062722035432700,50.7474326171875,0.21769998967647552,4.1992998123168945,-1.986899971961975
1705062722095432700,50.8074326171875,2.997999906539917,1.7649999856948853,-4.4375996589660645
1705062722155432700,50.8674326171875,3.426800012588501,1.6922999620437622,-6.225599765777588
1705062722215432700,50.9274326171875,2.7913999557495117,1.0152000188827515,-7.525399684906006
1705062722275432700,50.9874326171875,3.4282000064849854,1.7073999643325806,-5.29640007019043
1705062722335432700,51.0474326171875,1.6662999391555786,7.696199893951416,-2.57889986038208
1705062722395432700,51.1074326171875,0.8203999996185303,4.496399879455566,-1.4794999361038208
1705062722455432700,51.1674326171875,1.8042999505996704,0.722000002861023,2.5966999530792236
1705062722515432700,51.2274326171875,2.2441999912261963,0.5500999689102173,3.7634999752044678
1705062722575432700,51.2874326171875,2.6350998878479004,1.3140000104904175,3.309799909591675
1705062722635432700,51.3474326171875,3.5309998989105225,2.2611000537872314,2.7146999835968018
1705062722695432700,51.4074326171875,2.9303998947143555,4.842799663543701,4.577099800109863
1705062722755432700,51.4674326171875,1.9970999956130981,4.480999946594238,6.515399932861328
1705062722815432700,51.5274326171875,0.028099998831748962,6.350499629974365,5.207099914550781
1705062722875432700,51.5874326171875,0.400299996137619,3.7934999465942383,4.251500129699707
1705062722935432700,51.6474326171875,0.8075000047683716,0.4989999830722809,1.6546999216079712
1705062722995432700,51.7074326171875,0.7112999558448792,-2.3550000190734863,0.18050000071525574
1705062723055432700,51.7674326171875,1.2638999223709106,-1.3350999355316162,-2.313499927520752
1705062723115432700,51.8274326171875,0.13099999725818634,-0.0064999996684491634,-4.186899662017822
1705062723175432700,51.8874326171875,0.7504000067710876,1.448699951171875,-4.723899841308594
1705062723235432700,51.9474326171875,3.3803999423980713,2.1205999851226807,-5.2465996742248535
1705062723295432700,52.0074326171875,3.541599988937378,4.573400020599365,-3.5882999897003174
1705062723355434200,52.06743432617188,2.4475998878479004,6.404799938201904,-1.1340999603271484
1705062723415432700,52.1274326171875,1.5239999294281006,3.85509991645813,-1.0608999729156494
1705062723475432700,52.1874326171875,0.6987999677658081,-1.2587999105453491,0.6888999938964844
1705062723535432700,52.2474326171875,2.561199903488159,-1.2178999185562134,2.213399887084961
1705062723595432700,52.3074326171875,3.0825998783111572,-0.03889999911189079,2.8587000370025635
1705062723655432700,52.3674326171875,3.34060001373291,1.8744999170303345,3.279599905014038
1705062723715432700,52.4274326171875,2.6845998764038086,3.6138999462127686,3.4719998836517334
1705062723775432700,52.4874326171875,-0.03539999946951866,4.539400100708008,4.009599685668945
1705062723835432700,52.5474326171875,-0.282399982213974,2.9666998386383057,4.562099933624268
1705062723895432700,52.6074326171875,1.6785999536514282,6.152599811553955,2.522199869155884
1705062723955432700,52.6674326171875,0.6096999645233154,3.747299909591675,1.9332998991012573
1705062724015432700,52.7274326171875,1.4754999876022339,-0.5099999904632568,0.38909998536109924
1705062724075432700,52.7874326171875,2.7967000007629395,-2.8172998428344727,0.28540000319480896
1705062724135432700,52.8474326171875,3.7476999759674072,-2.268399953842163,-1.3389999866485596
1705062724195432700,52.9074326171875,2.964200019836426,1.0398999452590942,-2.9736998081207275
1705062724255432700,52.9674326171875,2.3062000274658203,2.589599847793579,-4.078999996185303
1705062724315432700,53.0274326171875,3.5546998977661133,2.2911999225616455,-5.5817999839782715
1705062724375432700,53.0874326171875,2.7186999320983887,2.316200017929077,-4.125899791717529
1705062724435432700,53.1474326171875,1.8358999490737915,6.111799716949463,-1.9936999082565308
1705062724495432700,53.2074326171875,-0.16869999468326569,5.545199871063232,1.2936999797821045
1705062724555432700,53.2674326171875,0.05819999799132347,1.124899983406067,1.0710999965667725
1705062724615432700,53.3274326171875,1.036199927330017,-2.072200059890747,2.1382999420166016
1705062724675432700,53.3874326171875,2.6601998805999756,-2.145599842071533,4.045199871063232
1705062724735432700,53.4474326171875,3.568199872970581,-0.5295999646186829,3.5381999015808105
1705062724795432700,53.5074326171875,3.789599895477295,2.067499876022339,3.179299831390381
1705062724855432700,53.5674326171875,2.2498998641967773,3.5720999240875244,3.840099811553955
1705062724915432700,53.6274326171875,1.069000005722046,4.394599914550781,2.6949000358581543
1705062724975432700,53.6874326171875,1.5836999416351318,4.610899925231934,2.3041999340057373
1705062725035432700,53.7474326171875,1.347100019454956,3.9582998752593994,1.0892000198364258
1705062725095432700,53.8074326171875,0.6351000070571899,0.17710000276565552,0.4779999852180481
1705062725155432700,53.8674326171875,1.6222000122070312,-2.4659998416900635,-0.39969998598098755
1705062725215432700,53.9274326171875,2.1427998542785645,-2.014400005340576,-2.8595998287200928
1705062725275432700,53.9874326171875,1.6610000133514404,-0.13570000231266022,-4.904299736022949
1705062725335432700,54.0474326171875,2.0722999572753906,2.958699941635132,-5.356100082397461
1705062725395460900,54.1074609375,2.3060998916625977,0.25779998302459717,-5.061800003051758
1705062725455432700,54.1674326171875,3.98009991645813,2.079400062561035,-6.566699981689453
1705062725515432700,54.2274326171875,2.2337000370025635,7.10159969329834,-2.4697999954223633
1705062725575432700,54.2874326171875,2.3382999897003174,8.823299407958984,-1.2958999872207642
1705062725635432700,54.3474326171875,0.4761999845504761,3.512899875640869,1.0749999284744263
1705062725695432700,54.4074326171875,1.816499948501587,0.3440999984741211,2.5615999698638916
1705062725755432700,54.4674326171875,3.4240000247955322,0.835099995136261,3.4235999584198
1705062725815432700,54.5274326171875,4.4878997802734375,1.2388999462127686,4.059199810028076
1705062725875432700,54.5874326171875,4.521100044250488,3.402599811553955,6.058099746704102
1705062725935432700,54.6474326171875,0.37610000371932983,3.732499837875366,7.165799617767334
1705062725995432700,54.7074326171875,0.918999969959259,6.013199806213379,5.34689998626709
1705062726055432700,54.7674326171875,2.02620005607605,9.517799377441406,2.4164998531341553
1705062726115432700,54.8274326171875,1.622399926185608,4.260799884796143,1.7139999866485596
1705062726175432700,54.8874326171875,1.78249990940094,0.015199999324977398,-0.3199999928474426
1705062726235432700,54.9474326171875,2.3315999507904053,-0.15320000052452087,-1.0763999223709106
1705062726295432700,55.0074326171875,3.2956998348236084,2.1638998985290527,-3.5936999320983887
1705062726355432700,55.0674326171875,4.2129998207092285,2.5005998611450195,-3.769699811935425
1705062726415432700,55.1274326171875,5.078199863433838,2.5565998554229736,-6.434700012207031
1705062726475432700,55.1874326171875,4.812299728393555,1.1952999830245972,-7.7552995681762695
1705062726535432700,55.2474326171875,3.4848999977111816,2.6806998252868652,-5.188600063323975
1705062726595432700,55.3074326171875,1.7484999895095825,7.262399673461914,-2.61929988861084
1705062726655432700,55.3674326171875,0.4558999836444855,7.877099990844727,-0.6542999744415283
1705062726715432700,55.4274326171875,-0.08869999647140503,3.4151999950408936,0.8877999782562256
1705062726775432700,55.4874326171875,1.7805999517440796,1.1545000076293945,2.796799898147583
1705062726835432700,55.5474326171875,3.8382999897003174,1.0282000303268433,3.954699993133545
1705062726895432700,55.6074326171875,4.849499702453613,2.339099884033203,4.999799728393555
1705062726955432700,55.6674326171875,4.522200107574463,2.1232998371124268,6.939399719238281
1705062727015432700,55.7274326171875,0.5388000011444092,2.979300022125244,6.785299777984619
1705062727075432700,55.7874326171875,1.5123000144958496,5.724299907684326,4.638099670410156
1705062727135432700,55.8474326171875,2.058199882507324,8.608099937438965,3.103600025177002
1705062727195432700,55.9074326171875,1.2864999771118164,5.320099830627441,1.9388999938964844
1705062727255432700,55.9674326171875,1.4263999462127686,0.6890999674797058,0.07099999487400055
1705062727315432700,56.0274326171875,2.75600004196167,-0.6783999800682068,-0.23269999027252197
1705062727375432700,56.0874326171875,4.0346999168396,1.1341999769210815,-2.069499969482422
1705062727435432700,56.1474326171875,3.4392998218536377,2.6721999645233154,-4.296499729156494
1705062727495432700,56.2074326171875,2.714099884033203,2.64739990234375,-6.0971999168396
1705062727555432700,56.2674326171875,3.121299982070923,0.703000009059906,-8.33430004119873
1705062727615432700,56.3274326171875,2.5969998836517334,1.768899917602539,-6.575399875640869
1705062727675432700,56.3874326171875,1.8183000087738037,5.7428998947143555,-3.966099977493286
1705062727735432700,56.4474326171875,0.38099998235702515,7.792999744415283,-1.0848000049591064
1705062727795432700,56.5074326171875,0.8955999612808228,3.7228000164031982,1.1089999675750732
1705062727855432700,56.5674326171875,2.2177000045776367,1.3215999603271484,1.9548999071121216
1705062727915432700,56.6274326171875,4.00570011138916,2.049799919128418,3.538100004196167
1705062727975432700,56.6874326171875,5.1103997230529785,3.1898000240325928,4.613500118255615
1705062728035432700,56.7474326171875,5.045499801635742,2.704399824142456,6.263499736785889
1705062728095432700,56.8074326171875,2.3933000564575195,1.4534000158309937,7.041399955749512
1705062728155432700,56.8674326171875,0.2604999840259552,6.558199882507324,5.700099945068359
1705062728215432700,56.9274326171875,2.2958998680114746,8.007499694824219,4.4191999435424805
1705062728275432700,56.9874326171875,0.42479997873306274,5.890100002288818,2.6138999462127686
1705062728335432700,57.0474326171875,-0.4300999939441681,0.9195999503135681,-0.45829999446868896
1705062728395432700,57.1074326171875,2.080699920654297,-3.4624998569488525,-0.0031999999191612005
1705062728455432700,57.1674326171875,2.129199981689453,1.7475999593734741,-1.3665000200271606
1705062728515432700,57.2274326171875,0.9256999492645264,4.507899761199951,-2.6765999794006348
1705062728575432700,57.2874326171875,3.0095999240875244,1.528999924659729,-6.806999683380127
1705062728635432700,57.3474326171875,1.1159999370574951,-0.5867999792098999,-9.369099617004395
1705062728695432700,57.4074326171875,2.622799873352051,2.7219998836517334,-7.179999828338623
1705062728755432700,57.4674326171875,1.6907999515533447,4.70389986038208,-4.4268999099731445
1705062728815432700,57.5274326171875,0.9565999507904053,9.012700080871582,-1.8291999101638794
1705062728875432700,57.5874326171875,0.3976999819278717,5.472399711608887,0.3227999806404114
1705062728935432700,57.6474326171875,1.8151999711990356,1.0822999477386475,1.8418999910354614
1705062728995432700,57.7074326171875,3.6745998859405518,0.42309999465942383,3.5227999687194824
1705062729055432700,57.7674326171875,4.776099681854248,1.631500005722046,4.127599716186523
1705062729115432700,57.8274326171875,5.24970006942749,4.040800094604492,5.07289981842041
1705062729175432700,57.8874326171875,3.16159987449646,2.526700019836426,7.7829999923706055
1705062729235432700,57.9474326171875,1.0164999961853027,5.885599613189697,6.665999889373779
1705062729295432700,58.0074326171875,1.8714998960494995,7.097099781036377,5.292900085449219
1705062729355432700,58.0674326171875,1.6186999082565308,8.07699966430664,2.670300006866455
1705062729415432700,58.1274326171875,0.4560000002384186,3.0095999240875244,0.7507999539375305
1705062729475432700,58.1874326171875,2.214400053024292,0.08879999816417694,-0.1850999891757965
1705062729535432700,58.2474326171875,1.7067999839782715,1.4118999242782593,-2.8874998092651367
1705062729595432700,58.3074326171875,1.736899971961975,2.5311999320983887,-4.910699844360352
1705062729655432700,58.3674326171875,3.506899833679199,1.7587000131607056,-7.536200046539307
1705062729715432700,58.4274326171875,4.950099945068359,0.1832999885082245,-8.294499397277832
1705062729775432700,58.4874326171875,4.764800071716309,2.6449999809265137,-6.898900032043457
1705062729835432700,58.5474326171875,2.9514999389648438,8.191499710083008,-3.182299852371216
1705062729895432700,58.6074326171875,0.8782999515533447,9.179100036621094,-0.03519999980926514
1705062729955432700,58.6674326171875,1.13919997215271,3.3912999629974365,0.9657999873161316
1705062730015432700,58.7274326171875,2.1723999977111816,1.2704999446868896,2.399099826812744
1705062730075432700,58.7874326171875,2.9677000045776367,1.774899959564209,3.9124999046325684
1705062730135432700,58.8474326171875,3.946899890899658,2.737299919128418,5.22760009765625
1705062730195432700,58.9074326171875,3.7732999324798584,3.120999813079834,5.599099636077881
1705062730255432700,58.9674326171875,0.8209999799728394,1.9025999307632446,7.023799896240234
1705062730315432700,59.0274326171875,0.7602999806404114,5.285999774932861,6.078000068664551
1705062730375432700,59.0874326171875,2.3625998497009277,11.125199317932129,3.496299982070923
1705062730435432700,59.1474326171875,0.9296000003814697,5.940899848937988,1.934399962425232
1705062730495432700,59.2074326171875,1.9392999410629272,1.0128999948501587,0.7505999803543091
1705062730555432700,59.2674326171875,2.368799924850464,0.5539000034332275,-0.7495999932289124
1705062730615432700,59.3274326171875,1.803299903869629,3.4946999549865723,-2.6089999675750732
1705062730675432700,59.3874326171875,3.2516000270843506,1.9086999893188477,-4.816699981689453
1705062730735432700,59.4474326171875,3.008999824523926,2.101799964904785,-8.278800010681152
1705062730795432700,59.5074326171875,2.0408999919891357,1.1735999584197998,-9.437600135803223
1705062730855432700,59.5674326171875,3.1521999835968018,1.59499990940094,-7.763799667358398
1705062730915432700,59.6274326171875,2.241299867630005,5.986199855804443,-4.801199913024902
1705062730975432700,59.6874326171875,0.7827000021934509,8.600299835205078,-1.8050999641418457
1705062731035432700,59.7474326171875,1.6354999542236328,4.980400085449219,-0.3978999853134155
1705062731095432700,59.8074326171875,2.990000009536743,3.0720999240875244,1.9809999465942383
1705062731155432700,59.8674326171875,4.241799831390381,3.4684998989105225,3.685499906539917
1705062731215432700,59.9274326171875,5.371500015258789,4.6641998291015625,4.823899745941162
1705062731275432700,59.9874326171875,5.445799827575684,4.151199817657471,7.268199920654297
1705062731335432700,60.0474326171875,1.6368999481201172,2.223599910736084,8.779899597167969
1705062731395432700,60.1074326171875,0.9851999878883362,5.548500061035156,7.070799827575684
1705062731455432700,60.1674326171875,2.674999952316284,9.861299514770508,3.4467999935150146
1705062731515432700,60.2274326171875,1.482800006866455,6.1656999588012695,2.874699831008911
1705062731575432700,60.2874326171875,0.23389999568462372,2.075399875640869,-0.6699999570846558
1705062731635432700,60.3474326171875,2.4702999591827393,-0.6377999782562256,-0.39329999685287476
1705062731695432700,60.4074326171875,2.1517999172210693,3.7533998489379883,-1.3828999996185303
1705062731755432700,60.4674326171875,2.92579984664917,2.790599822998047,-2.9133999347686768
1705062731815432700,60.5274326171875,3.8748998641967773,2.890399932861328,-6.9517998695373535
1705062731875432700,60.5874326171875,2.1721999645233154,1.2009999752044678,-8.706500053405762
1705062731935432700,60.6474326171875,2.087100028991699,1.1164000034332275,-7.59089994430542
1705062731995432700,60.7074326171875,1.3294999599456787,3.596099853515625,-4.93779993057251
1705062732055432700,60.7674326171875,-0.18879999220371246,5.290499687194824,-2.268199920654297
1705062732115432700,60.8274326171875,0.5109999775886536,3.0535998344421387,-1.573599934577942
1705062732175432700,60.8874326171875,2.001499891281128,1.3744999170303345,0.5527999997138977
1705062732235432700,60.9474326171875,4.104899883270264,2.194999933242798,2.5174999237060547
1705062732295432700,61.0074326171875,4.285799980163574,3.7498998641967773,3.3919999599456787
1705062732355432700,61.0674326171875,4.094399929046631,4.187399864196777,5.337500095367432
1705062732415432700,61.1274326171875,2.1226999759674072,3.3424999713897705,7.713899612426758
1705062732475432700,61.1874326171875,1.3844000101089478,4.107399940490723,8.33739948272705
1705062732535432700,61.2474326171875,3.0810999870300293,7.138599872589111,5.479399681091309
1705062732595432700,61.3074326171875,1.951200008392334,6.184700012207031,2.0852999687194824
1705062732655432700,61.3674326171875,0.5672000050544739,1.819599986076355,-0.4957999885082245
1705062732715432700,61.4274326171875,1.6459999084472656,0.7145000100135803,-0.03759999945759773
1705062732775432700,61.4874326171875,1.1495000123977661,2.886399984359741,-1.7766000032424927
1705062732835432700,61.5474326171875,2.4075000286102295,1.2731999158859253,-7.75439977645874
1705062732895432700,61.6074326171875,2.434000015258789,2.8523998260498047,-8.04990005493164
1705062732955432700,61.6674326171875,1.643799901008606,0.5130999684333801,-8.973499298095703
1705062733015432700,61.7274326171875,2.5218000411987305,-0.028599999845027924,-8.511499404907227
1705062733075432700,61.7874326171875,2.4489998817443848,6.362599849700928,-4.758399963378906
1705062733135432700,61.8474326171875,0.8082999587059021,9.65310001373291,-1.9830999374389648
1705062733195432700,61.9074326171875,1.4808999300003052,6.053199768066406,-0.18689998984336853
1705062733255432700,61.9674326171875,2.5843000411987305,3.140899896621704,2.770400047302246
1705062733315432700,62.0274326171875,3.5901999473571777,3.1073999404907227,4.163099765777588
1705062733375432700,62.0874326171875,4.413300037384033,3.113799810409546,5.5055999755859375
1705062733435432700,62.1474326171875,4.837399959564209,2.3392999172210693,7.427999973297119
1705062733495432700,62.2074326171875,2.040099859237671,2.1826000213623047,9.55210018157959
1705062733555432700,62.2674326171875,0.40139999985694885,6.092599868774414,7.744499683380127
1705062733615432700,62.3274326171875,2.4907000064849854,11.112799644470215,3.9751999378204346
1705062733675432700,62.3874326171875,2.2677998542785645,7.239299774169922,3.256999969482422
1705062733735432700,62.4474326171875,0.4163999855518341,3.063199996948242,-1.281000018119812
1705062733795432700,62.5074326171875,1.8878999948501587,1.8100999593734741,-0.5152999758720398
1705062733855432700,62.5674326171875,0.6363999843597412,3.58489990234375,-4.208099842071533
1705062733915432700,62.6274326171875,2.0569000244140625,1.3966999053955078,-6.8572998046875
1705062733975432700,62.6874326171875,5.101900100708008,3.8589999675750732,-7.950399875640869
1705062734035432700,62.7474326171875,4.105899810791016,2.4491000175476074,-10.064000129699707
1705062734095432700,62.8074326171875,3.7095999717712402,2.762899875640869,-6.33489990234375
1705062734155432700,62.8674326171875,2.017699956893921,7.514199733734131,-2.8615000247955322
1705062734215432700,62.9274326171875,0.6089000105857849,7.52679967880249,-1.5816999673843384
1705062734275432700,62.9874326171875,1.6304999589920044,3.4622998237609863,1.2421000003814697
1705062734335432700,63.0474326171875,3.1977999210357666,2.711199998855591,2.9011998176574707
1705062734395432700,63.1074326171875,4.453700065612793,3.4358999729156494,3.636899948120117
1705062734455432700,63.1674326171875,5.185499668121338,4.870100021362305,4.78879976272583
1705062734515432700,63.2274326171875,3.8748998641967773,3.427299976348877,7.933499813079834
1705062734575432700,63.2874326171875,0.8531999588012695,4.084399700164795,9.352299690246582
1705062734635432700,63.3474326171875,1.1912000179290771,7.6915998458862305,6.240599632263184
1705062734695432700,63.4074326171875,1.7874999046325684,7.506899833679199,3.919099807739258
1705062734755432700,63.4674326171875,2.082200050354004,4.407199859619141,1.5666999816894531
1705062734815432700,63.5274326171875,1.702299952507019,1.2638999223709106,-0.5011000037193298
1705062734875432700,63.5874326171875,1.559000015258789,1.112399935722351,-1.0132999420166016
1705062734935432700,63.6474326171875,0.9764999747276306,2.949199914932251,-4.633999824523926
1705062734995432700,63.7074326171875,4.766299724578857,3.066200017929077,-5.014699935913086
1705062735055434200,63.76743432617187,6.331299781799316,1.8905999660491943,-7.907899856567383
1705062735115432700,63.8274326171875,5.1880998611450195,2.3910999298095703,-9.194499969482422
1705062735175432700,63.8874326171875,3.512399911880493,4.315700054168701,-5.127799987792969
1705062735235432700,63.9474326171875,1.9874999523162842,6.9303998947143555,-1.5992999076843262
1705062735295432700,64.0074326171875,1.063499927520752,6.735799789428711,-0.9336999654769897
1705062735355432700,64.0674326171875,1.4162999391555786,3.741999864578247,1.7095999717712402
1705062735415432700,64.1274326171875,2.973599910736084,1.872999906539917,3.677500009536743
1705062735475432700,64.1874326171875,3.9502999782562256,1.6302999258041382,4.6890997886657715
1705062735535432700,64.2474326171875,4.793399810791016,2.9925999641418457,5.183300018310547
1705062735595432700,64.3074326171875,4.262499809265137,2.4730000495910645,6.543999671936035
1705062735655432700,64.3674326171875,0.6148999929428101,4.642499923706055,6.924999713897705
1705062735715432700,64.4274326171875,1.324199914932251,7.2891998291015625,6.636399745941162
1705062735775432700,64.4874326171875,2.1449999809265137,8.456299781799316,3.1538000106811523
1705062735835432700,64.5474326171875,1.2187999486923218,5.273699760437012,1.090999960899353
1705062735895432700,64.6074326171875,1.4304999113082886,2.0199999809265137,-0.8622999787330627
1705062735955432700,64.6674326171875,1.7446999549865723,2.795099973678589,-0.6298999786376953
1705062736015432700,64.7274326171875,2.302999973297119,2.16129994392395,-3.0789999961853027
1705062736075432700,64.7874326171875,6.325399875640869,1.1582000255584717,-5.609899997711182
1705062736135432700,64.8474326171875,4.698999881744385,2.870299816131592,-7.833799839019775
1705062736195432700,64.9074326171875,5.356499671936035,2.9856998920440674,-8.251299858093262
1705062736255432700,64.9674326171875,3.2430999279022217,3.75249981880188,-4.775799751281738
1705062736315432700,65.0274326171875,1.753999948501587,6.433399677276611,-1.8118999004364014
1705062736375432700,65.0874326171875,0.8277999758720398,6.27869987487793,-1.608299970626831
1705062736435432700,65.1474326171875,1.6830999851226807,2.80649995803833,0.5684999823570251
1705062736495432700,65.2074326171875,2.9368999004364014,1.8513998985290527,2.5523998737335205
1705062736555432700,65.2674326171875,4.027100086212158,2.549299955368042,3.2592999935150146
1705062736615432700,65.3274326171875,4.764100074768066,4.440899848937988,4.105199813842773
1705062736675432700,65.3874326171875,3.388000011444092,2.8178999423980713,7.583399772644043
1705062736735432700,65.4474326171875,1.8255999088287354,4.615699768066406,8.250299453735352
1705062736795432700,65.5074326171875,1.212999939918518,5.345099925994873,6.348599910736084
1705062736855432700,65.5674326171875,1.8199999332427979,7.867799758911133,2.6900999546051025
1705062736915432700,65.6274326171875,1.30649995803833,3.427500009536743,1.6454999446868896
1705062736975432700,65.6874326171875,1.8651999235153198,0.09690000116825104,-0.09449999779462814
1705062737035432700,65.7474326171875,2.3660998344421387,0.8483999967575073,-1.0936999320983887
1705062737095432700,65.8074326171875,1.5138999223709106,2.3796000480651855,-3.4624998569488525
1705062737155432700,65.8674326171875,3.0319998264312744,2.468400001525879,-5.581399917602539
1705062737215432700,65.9274326171875,3.6420998573303223,1.6456999778747559,-7.922299861907959
1705062737275432700,65.9874326171875,4.107699871063232,2.7121999263763428,-7.899600028991699
1705062737335432700,66.0474326171875,3.2964999675750732,2.487799882888794,-5.686100006103516
1705062737395432700,66.1074326171875,2.213599920272827,6.561399936676025,-2.9423999786376953
1705062737455432700,66.1674326171875,0.7254999876022339,8.018699645996094,0.035099998116493225
1705062737515432700,66.2274326171875,1.073199987411499,3.1751999855041504,0.5051999688148499
1705062737575432700,66.2874326171875,2.359999895095825,1.6339999437332153,2.8973000049591064
1705062737635432700,66.3474326171875,3.9835000038146973,2.5107998847961426,3.9739999771118164
1705062737695432700,66.4074326171875,4.51609992980957,2.2249999046325684,6.197099685668945
1705062737755432700,66.4674326171875,2.351300001144409,2.0211000442504883,7.133499622344971
1705062737815432700,66.5274326171875,1.0088000297546387,4.770299911499023,7.610499858856201
1705062737875432700,66.5874326171875,1.6311999559402466,6.439399719238281,5.418999671936035
1705062737935432700,66.6474326171875,2.0516998767852783,8.36299991607666,3.76669979095459
1705062737995432700,66.7074326171875,1.9160999059677124,5.045000076293945,1.3252999782562256
1705062738055432700,66.7674326171875,2.1742000579833984,0.3206000030040741,-0.4909999966621399
1705062738115432700,66.8274326171875,2.5483999252319336,0.12780000269412994,-0.5637999773025513
1705062738175432700,66.8874326171875,1.3538999557495117,2.895599842071533,-2.8615000247955322
1705062738235432700,66.9474326171875,2.121500015258789,2.3299999237060547,-4.856199741363525
1705062738295432700,67.0074326171875,3.751699924468994,2.1166000366210938,-6.793299674987793
1705062738355432700,67.0674326171875,3.0124998092651367,1.702799916267395,-8.535799980163574
1705062738415432700,67.1274326171875,2.7767999172210693,1.0239999294281006,-6.5117998123168945
1705062738475432700,67.1874326171875,2.1626999378204346,5.292500019073486,-3.8755998611450195
1705062738535432700,67.2474326171875,0.6363999843597412,6.9151997566223145,-2.286900043487549
1705062738595432700,67.3074326171875,0.9693999886512756,3.879999876022339,0.5500999689102173
1705062738655432700,67.3674326171875,2.563199996948242,2.0880000591278076,2.660099983215332
1705062738715432700,67.4274326171875,3.55649995803833,2.674799919128418,3.2939999103546143
1705062738775432700,67.4874326171875,4.573599815368652,4.760499954223633,4.126500129699707
1705062738835432700,67.5474326171875,4.031499862670898,4.55620002746582,6.122900009155273
1705062738895432700,67.6074326171875,1.3203999996185303,0.6614999771118164,8.64050006866455
1705062738955432700,67.6674326171875,0.8533999919891357,3.6203999519348145,7.4842000007629395
1705062739015432700,67.7274326171875,1.9138000011444092,9.50409984588623,3.913299798965454
1705062739075432700,67.7874326171875,0.8686999678611755,6.355000019073486,2.856799840927124
1705062739135432700,67.8474326171875,1.8322999477386475,1.8467999696731567,0.8155999779701233
1705062739195432700,67.9074326171875,2.422299861907959,-0.3619000017642975,-0.5708999633789062
1705062739255432700,67.9674326171875,1.2448999881744385,2.5409998893737793,-3.537799835205078
1705062739315432700,68.0274326171875,1.6704999208450317,2.0485999584198,-5.439699649810791
1705062739375432700,68.0874326171875,4.888099670410156,1.4047999382019043,-6.239599704742432
1705062739435432700,68.1474326171875,4.606599807739258,2.226799964904785,-8.085399627685547
1705062739495432700,68.2074326171875,3.367300033569336,1.7161999940872192,-6.519799709320068
1705062739555432700,68.2674326171875,2.755499839782715,6.073299884796143,-3.4363999366760254
1705062739615432700,68.3274326171875,1.0928000211715698,7.463099956512451,-0.9412999749183655
1705062739675432700,68.3874326171875,0.335099995136261,4.610599994659424,2.299999952316284
1705062739735432700,68.4474326171875,1.7806999683380127,1.2947999238967896,2.585399866104126
1705062739795432700,68.5074326171875,3.482499837875366,1.3691999912261963,3.3817999362945557
1705062739855432700,68.5674326171875,4.849499702453613,2.4330999851226807,3.9189999103546143
1705062739915432700,68.6274326171875,4.991099834442139,3.50819993019104,6.104899883270264
1705062739975432700,68.6874326171875,1.3977999687194824,3.040799856185913,8.296500205993652
1705062740035432700,68.7474326171875,0.9644999504089355,5.533899784088135,6.981899738311768
1705062740095432700,68.8074326171875,2.214400053024292,8.628999710083008,4.296099662780762
1705062740155432700,68.8674326171875,1.1323999166488647,5.806299686431885,2.188199996948242
1705062740215432700,68.9274326171875,0.6349999904632568,0.8406999707221985,0.05790000036358833
1705062740275432700,68.9874326171875,2.2167999744415283,-1.7035999298095703,-0.48579999804496765
1705062740335432700,69.0474326171875,1.326200008392334,1.2552999258041382,-3.46589994430542
1705062740395432700,69.1074326171875,-0.6527000069618225,3.039799928665161,-5.8429999351501465
1705062740455432700,69.1674326171875,3.9637999534606934,1.9883999824523926,-4.741799831390381
1705062740515432700,69.2274326171875,4.53909969329834,1.7947999238967896,-6.6678996086120605
1705062740575432700,69.2874326171875,2.8379998207092285,2.6053998470306396,-5.575399875640869
1705062740635432700,69.3474326171875,2.841399908065796,5.818899631500244,-2.8499999046325684
1705062740695432700,69.4074326171875,1.1150000095367432,5.632199764251709,-0.3709999918937683
1705062740755432700,69.4674326171875,0.795799970626831,1.5957999229431152,0.17679999768733978
1705062740815432700,69.5274326171875,2.234499931335449,0.1354999989271164,1.5328999757766724
1705062740875432700,69.5874326171875,3.9642999172210693,1.136199951171875,2.8457999229431152
1705062740935432700,69.6474326171875,4.706999778747559,3.2547998428344727,3.288299798965454
1705062740995432700,69.7074326171875,3.8967998027801514,5.24370002746582,5.241600036621094
1705062741055432700,69.7674326171875,1.645900011062622,3.486999988555908,7.0742998123168945
1705062741115432700,69.8274326171875,-0.050200000405311584,4.085599899291992,6.6778998374938965
1705062741175432700,69.8874326171875,1.1744999885559082,8.047499656677246,3.424299955368042
1705062741235432700,69.9474326171875,0.8768999576568604,3.589200019836426,2.2904000282287598
1705062741295432700,70.0074326171875,1.768399953842163,-0.2360999882221222,0.6460999846458435
1705062741355432700,70.0674326171875,2.6826000213623047,-1.0375999212265015,-0.5503999590873718
1705062741415432700,70.1274326171875,1.895799994468689,0.9675999879837036,-2.5116000175476074
1705062741475432700,70.1874326171875,1.650499939918518,1.3471999168395996,-4.419099807739258
1705062741535432700,70.2474326171875,3.0535998344421387,1.8912999629974365,-5.295599937438965
1705062741595432700,70.3074326171875,2.6466000080108643,1.0062999725341797,-6.734499931335449
1705062741655432700,70.3674326171875,2.7854998111724854,1.9267998933792114,-5.452399730682373
1705062741715432700,70.4274326171875,2.531100034713745,4.3394999504089355,-3.168599843978882
1705062741775432700,70.4874326171875,1.0758999586105347,7.4415998458862305,-0.702299952507019
1705062741835432700,70.5474326171875,0.39229997992515564,2.6482999324798584,-0.32009997963905334
1705062741895432700,70.6074326171875,1.8270999193191528,-0.35979998111724854,0.6656000018119812
1705062741955432700,70.6674326171875,4.259099960327148,0.06689999997615814,2.4426000118255615
1705062742015432700,70.7274326171875,4.798399925231934,2.566699981689453,2.4570999145507812
1705062742075432700,70.7874326171875,4.483599662780762,5.079999923706055,3.8409998416900635
1705062742135432700,70.8474326171875,1.4771000146865845,3.4980998039245605,7.420899868011475
1705062742195432700,70.9074326171875,2.3203999996185303,3.583400011062622,6.082599639892578
1705062742255432700,70.9674326171875,2.671599864959717,6.286499977111816,3.797299861907959
1705062742315432700,71.0274326171875,2.079900026321411,4.822199821472168,2.511199951171875
1705062742375432700,71.0874326171875,1.8492999076843262,0.8944999575614929,0.9402999877929688
1705062742435432700,71.1474326171875,2.2458999156951904,-1.914099931716919,0.5697000026702881
1705062742495432700,71.2074326171875,2.8134000301361084,-2.2256999015808105,-0.9810999631881714
1705062742555432700,71.2674326171875,1.0734000205993652,2.415599822998047,-4.4832000732421875
1705062742615432700,71.3274326171875,1.8323999643325806,2.8262999057769775,-3.844599962234497
1705062742675432700,71.3874326171875,4.266499996185303,1.9556999206542969,-5.435999870300293
1705062742735432700,71.4474326171875,3.034299850463867,1.862899899482727,-6.388399600982666
1705062742795432700,71.5074326171875,2.6524999141693115,4.03439998626709,-4.036900043487549
1705062742855432700,71.5674326171875,1.5823999643325806,4.6479997634887695,-1.320599913597107
1705062742915432700,71.6274326171875,0.5636000037193298,4.97659969329834,0.12690000236034393
1705062742975432700,71.6874326171875,-0.33149999380111694,0.8143999576568604,0.3628000020980835
1705062743035432700,71.7474326171875,2.7398998737335205,-0.6122999787330627,1.9706000089645386
1705062743095432700,71.8074326171875,4.480000019073486,-0.19429999589920044,3.3248000144958496
1705062743155432700,71.8674326171875,4.644000053405762,2.207399845123291,3.4796998500823975
1705062743215432700,71.9274326171875,3.9171998500823975,3.3801000118255615,5.008299827575684
1705062743275432700,71.9874326171875,1.6373999118804932,4.56279993057251,6.481099605560303
1705062743335432700,72.0474326171875,1.5937999486923218,5.75439977645874,5.937399864196777
1705062743395432700,72.1074326171875,1.8780999183654785,7.57349967956543,2.8907999992370605
1705062743455432700,72.1674326171875,0.6072999835014343,2.929299831390381,1.5851999521255493
1705062743515432700,72.2274326171875,1.6023999452590942,-1.392899990081787,0.5464999675750732
1705062743575432700,72.2874326171875,2.0220999717712402,-2.6069998741149902,-0.5148000121116638
1705062743635432700,72.3474326171875,1.136299967765808,1.232200026512146,-4.949699878692627
1705062743695432700,72.4074326171875,1.0922999382019043,2.5348000526428223,-4.613500118255615
1705062743755432700,72.4674326171875,2.15310001373291,1.2602999210357666,-7.473599910736084
1705062743815432700,72.5274326171875,3.432499885559082,0.7935000061988831,-5.877500057220459
1705062743875432700,72.5874326171875,2.3501999378204346,4.465399742126465,-3.895699977874756
1705062743935432700,72.6474326171875,1.9641000032424927,6.962699890136719,-1.5640000104904175
1705062743995432700,72.7074326171875,-0.07019999623298645,5.689799785614014,2.819999933242798
1705062744055432700,72.7674326171875,-1.0579999685287476,0.14919999241828918,2.149099826812744
1705062744115432700,72.8274326171875,1.2940999269485474,-1.0866999626159668,2.509899854660034
1705062744175432700,72.8874326171875,3.297799825668335,-0.6825000047683716,3.6821999549865723
1705062744235432700,72.9474326171875,3.944199800491333,0.5633000135421753,3.317999839782715
1705062744295432700,73.0074326171875,3.4029998779296875,2.956399917602539,4.415899753570557
1705062744355432700,73.0674326171875,0.9979999661445618,4.837199687957764,5.875699996948242
1705062744415432700,73.1274326171875,1.3233000040054321,3.7135000228881836,4.820699691772461
1705062744475432700,73.1874326171875,2.073499917984009,6.983699798583984,2.2692999839782715
1705062744535432700,73.2474326171875,0.9812999963760376,3.8610999584198,1.3740999698638916
1705062744595432700,73.3074326171875,1.8026999235153198,-0.7049999833106995,0.7631999850273132
1705062744655432700,73.3674326171875,3.124699831008911,-2.126800060272217,0.20349998772144318
1705062744715432700,73.4274326171875,2.546999931335449,-0.27809998393058777,-2.6666998863220215
1705062744775432700,73.4874326171875,0.6477999687194824,1.4169999361038208,-4.727999687194824
1705062744835432700,73.5474326171875,2.2730000019073486,2.121299982070923,-3.998199939727783
1705062744895432700,73.6074326171875,4.046899795532227,1.271399974822998,-6.021100044250488
1705062744955432700,73.6674326171875,2.452199935913086,2.416599988937378,-4.3333001136779785
1705062745015432700,73.7274326171875,1.5051000118255615,5.532299995422363,-1.9987999200820923
1705062745075432700,73.7874326171875,0.8101999759674072,4.780699729919434,-0.16040000319480896
1705062745135432700,73.8474326171875,0.10920000076293945,1.5627999305725098,1.9749999046325684
1705062745195432700,73.9074326171875,1.594099998474121,0.1305999904870987,2.4412999153137207
1705062745255432700,73.9674326171875,3.232499837875366,0.9319999814033508,3.402899980545044
1705062745315432700,74.0274326171875,3.8104000091552734,1.799299955368042,4.182300090789795
1705062745375432700,74.0874326171875,3.9838998317718506,2.9110000133514404,4.458699703216553
1705062745435432700,74.1474326171875,1.2475999593734741,2.0288000106811523,4.559199810028076
1705062745495432700,74.2074326171875,1.5547999143600464,6.077899932861328,4.9228997230529785
1705062745555432700,74.2674326171875,2.7834999561309814,6.764099597930908,5.125400066375732
1705062745615432700,74.3274326171875,1.6317999362945557,6.638199806213379,3.078699827194214
1705062745675432700,74.3874326171875,1.1201999187469482,1.4408999681472778,0.7786999940872192
1705062745735432700,74.4474326171875,2.8479998111724854,-0.6998999714851379,0.6624999642372131
1705062745795432700,74.5074326171875,1.556999921798706,3.029399871826172,-1.470099925994873
1705062745855432700,74.5674326171875,2.329699993133545,2.4707999229431152,-3.3620998859405518
1705062745915432700,74.6274326171875,4.373899936676025,0.2117999941110611,-7.4430999755859375
1705062745975432700,74.6874326171875,2.6449999809265137,2.0120999813079834,-7.370899677276611
1705062746035432700,74.7474326171875,4.099599838256836,2.406399965286255,-7.987199783325195
1705062746095432700,74.8074326171875,2.169800043106079,4.233399868011475,-4.676599979400635
1705062746155432700,74.8674326171875,1.1790999174118042,7.974299907684326,-1.938099980354309
1705062746215432700,74.9274326171875,0.4984999895095825,6.356299877166748,-0.45749998092651367
1705062746275432700,74.9874326171875,1.4810999631881714,3.353299856185913,1.5651999711990356
1705062746335432700,75.0474326171875,3.4027998447418213,3.1910998821258545,3.5063998699188232
1705062746395432700,75.1074326171875,4.633399963378906,3.560999870300293,4.755099773406982
1705062746455432700,75.1674326171875,5.023499965667725,4.4822998046875,5.758299827575684
1705062746515432700,75.2274326171875,3.41729998588562,2.781599998474121,7.926599979400635
1705062746575432700,75.2874326171875,1.7446999549865723,5.427099704742432,8.351399421691895
1705062746635432700,75.3474326171875,2.6403000354766846,6.880199909210205,5.751800060272217
1705062746695432700,75.4074326171875,2.8080999851226807,8.296500205993652,3.2146999835968018
1705062746755432700,75.4674326171875,1.0307999849319458,5.188299655914307,0.616599977016449
1705062746815432700,75.5274326171875,1.4874999523162842,1.739300012588501,0.4852999746799469
1705062746875432700,75.5874326171875,2.39139986038208,2.937999963760376,-0.8881999850273132
1705062746935432700,75.6474326171875,2.659299850463867,3.000200033187866,-4.112199783325195
1705062746995432700,75.7074326171875,1.1217999458312988,2.586400032043457,-8.039299964904785
1705062747055432700,75.7674326171875,-1.46589994430542,0.8634999990463257,-9.774700164794922
1705062747115432700,75.8274326171875,0.8596999645233154,1.013800024986267,-8.985699653625488
1705062747175432700,75.8874326171875,0.1298999935388565,2.225399971008301,-5.8827996253967285
1705062747235432700,75.9474326171875,0.6615999937057495,6.94819974899292,-3.4049999713897705
1705062747295432700,76.0074326171875,1.6613999605178833,7.433899879455566,-2.3842999935150146
1705062747355432700,76.0674326171875,2.4143998622894287,4.546199798583984,0.551800012588501
1705062747415432700,76.1274326171875,4.085299968719482,2.739300012588501,3.322700023651123
1705062747475432700,76.1874326171875,5.013299942016602,4.088500022888184,4.012099742889404
1705062747535432700,76.2474326171875,4.980099678039551,6.656300067901611,5.085700035095215
1705062747595432700,76.3074326171875,3.8325998783111572,3.4733998775482178,7.450099945068359
1705062747655432700,76.3674326171875,2.641899824142456,3.441699981689453,9.347799301147461
1705062747715432700,76.4274326171875,1.559899926185608,6.541899681091309,7.270099639892578
1705062747775432700,76.4874326171875,2.184499979019165,7.62939977645874,3.9946999549865723
1705062747835432700,76.5474326171875,1.6057000160217285,4.412300109863281,1.3837999105453491
1705062747895432700,76.6074326171875,0.6665999889373779,0.837399959564209,-0.7960000038146973
1705062747955432700,76.6674326171875,1.1806999444961548,1.1353999376296997,-0.9638999700546265
1705062748015432700,76.7274326171875,-0.9535999894142151,3.809799909591675,-4.238800048828125
1705062748075432700,76.7874326171875,2.705399990081787,2.651399850845337,-4.837699890136719
1705062748135432700,76.8474326171875,4.401199817657471,2.0630998611450195,-6.802999973297119
1705062748195432700,76.9074326171875,4.311699867248535,2.8935999870300293,-7.241600036621094
1705062748255432700,76.9674326171875,3.533599853515625,2.112799882888794,-4.69379997253418
