time,seconds_elapsed,z,y,x
1702766546540692000,0.06069189453125,-0.029500000178813934,-0.05429999902844429,0.2728999853134155
1702766546600692000,0.12069189453125,-0.10639999806880951,-0.1160999983549118,0.09849999845027924
1702766546660692000,0.18069189453125,-0.40070000290870667,-0.08150000125169754,0.1378999948501587
1702766546720692000,0.24069189453125,-0.002899999963119626,0.1695999950170517,0.12700000405311584
1702766546780692000,0.30069189453125,-0.3868999779224396,-0.01549999974668026,0.045499999076128006
1702766546840692000,0.36069189453125,0.4794999957084656,-0.21329998970031738,0.11859999597072601
1702766546900692000,0.42069189453125,-0.0405999980866909,-0.09910000115633011,-0.6072999835014343
1702766546960692000,0.48069189453125,0.604200005531311,0.16830000281333923,-0.33660000562667847
1702766547020692000,0.54069189453125,-0.8252999782562256,0.06340000033378601,-0.10209999978542328
1702766547080692000,0.60069189453125,0.09009999781847,-0.014800000004470348,0.47679999470710754
1702766547140692000,0.66069189453125,0.20099999010562897,-0.15519998967647552,0.5415999889373779
1702766547200692000,0.72069189453125,0.23879998922348022,-0.007799999788403511,0.4087999761104584
1702766547260692000,0.78069189453125,-0.29440000653266907,-0.131400004029274,0.09429999440908432
1702766547320692000,0.84069189453125,-0.7453999519348145,0.0017999999690800905,-0.5112999677658081
1702766547380692000,0.90069189453125,-0.06069999933242798,0.2352999895811081,-0.43699997663497925
1702766547440692000,0.96069189453125,-0.0965999960899353,-0.0340999998152256,-0.4431999921798706
1702766547500692000,1.02069189453125,-0.044599998742341995,0.30390000343322754,-0.6407999992370605
1702766547560692000,1.08069189453125,-2.4308998584747314,-0.004999999888241291,-1.9648998975753784
1702766547620692000,1.14069189453125,-2.005499839782715,0.942799985408783,0.6923999786376953
1702766547680692000,1.20069189453125,-1.0720999240875244,-0.5198000073432922,0.11779999732971191
1702766547740692000,1.26069189453125,0.09019999951124191,0.2685000002384186,4.264899730682373
1702766547800692000,1.32069189453125,0.5889999866485596,-0.46949997544288635,1.3621000051498413
1702766547860692000,1.38069189453125,0.8363999724388123,-0.11559999734163284,1.9467999935150146
1702766547920692000,1.44069189453125,-0.2312999963760376,-0.026200000196695328,1.149399995803833
1702766547980692000,1.50069189453125,-1.7940999269485474,0.373199999332428,0.0066999997943639755
1702766548040692000,1.56069189453125,-1.5175999402999878,0.2287999987602234,-2.191200017929077
1702766548100692000,1.62069189453125,0.20260000228881836,-0.296999990940094,-0.7775999903678894
1702766548160692000,1.68069189453125,0.9845999479293823,-0.3779999911785126,-0.17379999160766602
1702766548220692000,1.74069189453125,-0.03359999880194664,-0.7439999580383301,-0.5008999705314636
1702766548280693500,1.800693603515625,-0.12539999186992645,-0.5324999690055847,-0.8624999523162842
1702766548340692000,1.86069189453125,0.09869999438524246,0.024699999019503593,-0.44359999895095825
1702766548400692000,1.92069189453125,-0.12929999828338623,0.5792999863624573,-0.914900004863739
1702766548460692000,1.98069189453125,-0.8244999647140503,0.625499963760376,-0.5805000066757202
1702766548520692000,2.04069189453125,-1.2864999771118164,0.37059998512268066,0.5105999708175659
1702766548580692000,2.10069189453125,-0.4973999857902527,-0.08219999819993973,0.16939999163150787
1702766548640692000,2.16069189453125,0.015399999916553497,0.8540999889373779,1.3531999588012695
1702766548700692000,2.22069189453125,-0.22039999067783356,-0.2683999836444855,1.5326999425888062
1702766548760692000,2.28069189453125,0.4296000003814697,0.028199998661875725,1.2345999479293823
1702766548820692000,2.34069189453125,-0.19990000128746033,-0.272599995136261,0.3513999879360199
1702766548880692000,2.40069189453125,0.73499995470047,-0.26669999957084656,-0.10509999841451645
1702766548940692000,2.46069189453125,-0.8748999834060669,-0.3958999812602997,-0.3879999816417694
1702766549000692000,2.52069189453125,0.0705999955534935,-0.41189998388290405,-1.0167999267578125
1702766549060692000,2.58069189453125,-0.16869999468326569,-0.05999999865889549,0.5891000032424927
1702766549120692000,2.64069189453125,-0.08190000057220459,-0.23770000040531158,-0.5112999677658081
1702766549180692000,2.70069189453125,-0.3669999837875366,-0.09309999644756317,-0.9490000009536743
1702766549240692000,2.76069189453125,-0.30879998207092285,0.024000000208616257,-0.9887999892234802
1702766549300692000,2.82069189453125,-0.3872999846935272,0.065700002014637,-0.8901999592781067
1702766549360692000,2.88069189453125,-0.5178999900817871,0.20250000059604645,-0.25130000710487366
1702766549420692000,2.94069189453125,-1.4549999237060547,0.7734999656677246,-0.07459999620914459
1702766549480692000,3.00069189453125,-0.7739999890327454,0.011099999770522118,0.7922999858856201
1702766549540692000,3.06069189453125,-0.37619999051094055,0.7792999744415283,0.33309999108314514
1702766549600692000,3.12069189453125,-0.2513999938964844,0.34880000352859497,1.6988999843597412
1702766549660692000,3.18069189453125,0.4717999994754791,-0.1516999900341034,0.6426999568939209
1702766549720692000,3.24069189453125,-0.09429999440908432,-0.5250999927520752,-0.1290999948978424
1702766549780692000,3.30069189453125,-0.20430000126361847,-0.1832999885082245,-0.09149999916553497
1702766549840692000,3.36069189453125,1.3245999813079834,-0.636900007724762,0.8409000039100647
1702766549900692000,3.42069189453125,0.3910999894142151,-0.5098000168800354,0.9296999573707581
1702766549960692000,3.48069189453125,-0.13109999895095825,0.0024999999441206455,0.049300000071525574
1702766550020692000,3.54069189453125,-0.7660999894142151,-0.12489999830722809,-1.5264999866485596
1702766550080692000,3.60069189453125,-1.560499906539917,0.5403000116348267,-1.5888999700546265
1702766550140692000,3.66069189453125,-0.2044999897480011,0.18289999663829803,-0.6762999892234802
1702766550200692000,3.72069189453125,0.053199999034404755,-0.0674000009894371,-0.09079999476671219
1702766550260692000,3.78069189453125,0.22829999029636383,-0.26659998297691345,0.03799999877810478
1702766550320692000,3.84069189453125,-0.4355999827384949,0.39259999990463257,-0.9218999743461609
1702766550380692000,3.90069189453125,-1.5267000198364258,0.460099995136261,-0.6148999929428101
1702766550440692000,3.96069189453125,-1.1928999423980713,0.38089999556541443,0.87909996509552
1702766550500692000,4.02069189453125,-0.5364999771118164,1.0042999982833862,0.044199999421834946
1702766550560692000,4.08069189453125,-0.5888000130653381,0.5791000127792358,1.7034999132156372
1702766550620692000,4.14069189453125,-0.29899999499320984,0.16990000009536743,2.6994998455047607
1702766550680692000,4.20069189453125,0.1841999888420105,-0.2636999785900116,1.0503000020980835
1702766550740692000,4.26069189453125,0.48249998688697815,-0.1410999894142151,0.5612999796867371
1702766550800692000,4.32069189453125,0.13570000231266022,-0.7964999675750732,0.09470000118017197
1702766550860692000,4.38069189453125,0.16759999096393585,0.5496000051498413,-0.5956000089645386
1702766550920692000,4.44069189453125,-1.2980999946594238,0.13570000231266022,-1.555400013923645
1702766550980692000,4.50069189453125,-0.0867999941110611,-0.1014999970793724,-0.2676999866962433
1702766551040692000,4.56069189453125,0.7833999991416931,-0.08989999443292618,0.2924000024795532
1702766551100692000,4.62069189453125,-0.28939998149871826,-0.41040000319480896,0.2793000042438507
1702766551160692000,4.68069189453125,0.44189998507499695,-0.014299999922513962,0.8137999773025513
1702766551220692000,4.74069189453125,0.5342000126838684,-0.6234999895095825,-0.6333999633789062
1702766551280692000,4.80069189453125,0.05989999696612358,-0.37199997901916504,-0.7428999543190002
1702766551340692000,4.86069189453125,-2.0281999111175537,0.6604999899864197,-2.574899911880493
1702766551400692000,4.92069189453125,-1.9144999980926514,1.3944000005722046,-0.2800999879837036
1702766551460692000,4.98069189453125,-1.5242999792099,0.1428000032901764,0.35819998383522034
1702766551520692000,5.04069189453125,-1.0544999837875366,-0.6703000068664551,1.9815999269485474
1702766551580692000,5.10069189453125,0.322299987077713,0.4179999828338623,3.387699842453003
1702766551640692000,5.16069189453125,1.6398999691009521,0.2897999882698059,1.7450000047683716
1702766551700692000,5.22069189453125,0.23719999194145203,0.10979999601840973,0.9724999666213989
1702766551760692000,5.28069189453125,-1.2661999464035034,-0.13279999792575836,0.13580000400543213
1702766551820692000,5.34069189453125,-1.2251999378204346,-0.4786999821662903,-1.1031999588012695
1702766551880692000,5.40069189453125,-1.1886999607086182,0.4359000027179718,-0.6439999938011169
1702766551940692000,5.46069189453125,0.3130999803543091,-0.026399999856948853,-2.285799980163574
1702766552000692000,5.52069189453125,0.3333999812602997,-0.40789997577667236,0.3375000059604645
1702766552060692000,5.58069189453125,0.4699999988079071,-0.21490000188350677,0.26249998807907104
1702766552120692000,5.64069189453125,0.5475999712944031,-0.08659999817609787,-0.13439999520778656
1702766552180692000,5.70069189453125,-0.014499999582767487,-0.6395999789237976,-0.6370999813079834
1702766552240692000,5.76069189453125,0.7371000051498413,-0.5291999578475952,0.4179999828338623
1702766552300692000,5.82069189453125,-0.06870000064373016,-0.12780000269412994,0.0746999979019165
1702766552360692000,5.88069189453125,-1.4615999460220337,0.15959998965263367,-0.2797999978065491
1702766552420692000,5.94069189453125,-2.3135998249053955,1.0425999164581299,-1.003499984741211
1702766552480692000,6.00069189453125,-1.3808999061584473,1.1039999723434448,0.7518999576568604
1702766552540692000,6.06069189453125,-0.13589999079704285,0.9279999732971191,0.3570999801158905
1702766552600692000,6.12069189453125,-1.2874000072479248,-0.49139997363090515,-0.21679998934268951
1702766552660692000,6.18069189453125,0.2854999899864197,-0.11019999533891678,2.1903998851776123
1702766552720692000,6.24069189453125,1.677299976348877,-0.7877999544143677,2.3278000354766846
1702766552780692000,6.30069189453125,0.9485999941825867,-1.1901999711990356,1.0852999687194824
1702766552840692000,6.36069189453125,0.00989999994635582,-0.6169999837875366,-0.36820000410079956
1702766552900692000,6.42069189453125,-0.2750999927520752,0.22859999537467957,-0.7484999895095825
1702766552960692000,6.48069189453125,0.14149999618530273,0.13519999384880066,0.16189999878406525
1702766553020692000,6.54069189453125,-0.5767999887466431,-0.5734999775886536,-1.0363999605178833
1702766553080692000,6.60069189453125,-0.027799999341368675,-0.043699998408555984,-0.7967999577522278
1702766553140692000,6.66069189453125,-0.6229000091552734,-0.3919999897480011,-1.2894999980926514
1702766553200692000,6.72069189453125,0.1873999983072281,0.13509999215602875,-0.5013999938964844
1702766553260692000,6.78069189453125,-0.5798999667167664,-0.019500000402331352,-0.2865000069141388
1702766553320693500,6.840693603515625,0.40629997849464417,0.3780999779701233,0.5755000114440918
1702766553380692000,6.90069189453125,-0.42229998111724854,0.6559000015258789,0.49219998717308044
1702766553440692000,6.96069189453125,-0.7193999886512756,0.7699999809265137,0.4099999964237213
1702766553500692000,7.02069189453125,-0.7500999569892883,0.9505999684333801,0.3321000039577484
1702766553560692000,7.08069189453125,-0.00279999990016222,0.02669999934732914,-0.1598999947309494
1702766553620692000,7.14069189453125,-0.12919999659061432,-0.2750000059604645,0.14159999787807465
1702766553680692000,7.20069189453125,0.11209999769926071,-1.2250999212265015,0.11649999767541885
1702766553740692000,7.26069189453125,-0.035099998116493225,-0.23909999430179596,0.038599997758865356
1702766553800692000,7.32069189453125,0.09640000015497208,-0.40869998931884766,0.461899995803833
1702766553860692000,7.38069189453125,0.10319999605417252,0.10869999974966049,0.23909999430179596
1702766553920692000,7.44069189453125,-0.2305999994277954,-0.1078999936580658,0.22909998893737793
1702766553980692000,7.50069189453125,-0.5667999982833862,0.43039998412132263,0.13130000233650208
1702766554040692000,7.56069189453125,-0.08829999715089798,0.674299955368042,0.30719998478889465
1702766554100692000,7.62069189453125,0.8161999583244324,0.7787999510765076,0.10329999774694443
1702766554160692000,7.68069189453125,-0.5934000015258789,0.012299999594688416,-0.6245999932289124
1702766554220692000,7.74069189453125,-0.5037999749183655,-0.29739999771118164,-0.4967999756336212
1702766554280692000,7.80069189453125,0.3868999779224396,-0.3579999804496765,-0.49779999256134033
1702766554340692000,7.86069189453125,0.67249995470047,-0.6944999694824219,0.0714000016450882
1702766554400692000,7.92069189453125,-0.7660999894142151,-1.0529999732971191,0.5981000065803528
1702766554460692000,7.98069189453125,-1.320599913597107,-1.5595999956130981,-1.0727999210357666
1702766554520692000,8.04069189453125,-0.8520999550819397,-0.6164000034332275,-0.5174999833106995
1702766554580692000,8.10069189453125,-0.05350000038743019,0.2320999950170517,-0.30219998955726624
1702766554640692000,8.16069189453125,0.8262999653816223,0.5349000096321106,1.1083999872207642
1702766554700692000,8.22069189453125,0.4260999858379364,0.18930000066757202,0.4553999900817871
1702766554760692000,8.28069189453125,0.06419999897480011,0.024899998679757118,-0.25679999589920044
1702766554820692000,8.34069189453125,0.12109999358654022,0.0949999988079071,-0.11319999396800995
1702766554880692000,8.40069189453125,0.1582999974489212,0.1525999903678894,0.16049998998641968
1702766554940692000,8.46069189453125,0.20509999990463257,0.016999999061226845,-0.031700000166893005
1702766555000692000,8.52069189453125,-0.22540000081062317,0.1233999952673912,0.010400000028312206
1702766555060692000,8.58069189453125,-0.12939999997615814,-0.031599998474121094,0.07229999452829361
1702766555120692000,8.64069189453125,-0.1850000023841858,-0.022499999031424522,0.11699999868869781
