time,seconds_elapsed,z,y,x
1702767334139692000,0.061692138671875,-0.13519999384880066,-0.11270000040531158,-0.04649999737739563
1702767334199692000,0.121692138671875,-0.01809999905526638,-0.0731000006198883,0.01209999993443489
1702767334259692000,0.181692138671875,0.1873999983072281,0.07880000025033951,-0.03909999877214432
1702767334319692000,0.241692138671875,0.23549999296665192,-0.20399999618530273,-0.003499999875202775
1702767334379692000,0.301692138671875,-0.0568000003695488,0.09879999607801437,-0.19419999420642853
1702767334439692000,0.361692138671875,-0.32330000400543213,0.20549999177455902,-0.3051999807357788
1702767334499692000,0.421692138671875,-0.307699978351593,0.13099999725818634,0.020600000396370888
1702767334559692000,0.481692138671875,-0.1703999936580658,-0.11469999700784683,0.31139999628067017
1702767334619692000,0.541692138671875,-0.15559999644756317,0.018199998885393143,0.056599996984004974
1702767334679692000,0.601692138671875,-0.15879999101161957,0.12529999017715454,-0.2727999985218048
1702767334739692000,0.661692138671875,-0.1078999936580658,-0.131400004029274,-0.2554999887943268
1702767334799692000,0.721692138671875,-0.1824999898672104,-0.2451999932527542,-0.0568000003695488
1702767334859692000,0.781692138671875,-1.6098999977111816,-0.3779999911785126,1.497999906539917
1702767334919692000,0.841692138671875,1.6906999349594116,1.7156000137329102,0.9067999720573425
1702767334979692000,0.901692138671875,-0.25450000166893005,-0.906499981880188,-0.776199996471405
1702767335039692000,0.961692138671875,-1.4298999309539795,-1.0829999446868896,-1.1541999578475952
1702767335099692000,1.021692138671875,-0.42879998683929443,0.7445999979972839,-0.4334999918937683
1702767335159692000,1.081692138671875,-0.4152999818325043,0.21249999105930328,-1.9103999137878418
1702767335219692000,1.141692138671875,-0.3384999930858612,0.28859999775886536,-0.462799996137619
1702767335279692000,1.201692138671875,0.05469999834895134,0.125,0.2842999994754791
1702767335339692000,1.261692138671875,-0.22689999639987946,-0.48729997873306274,0.6410999894142151
1702767335399692000,1.321692138671875,-1.560499906539917,-0.774899959564209,-0.15689998865127563
1702767335459692000,1.381692138671875,0.8854999542236328,0.042399998754262924,2.3345999717712402
1702767335519692000,1.441692138671875,0.6150000095367432,0.3425999879837036,1.2043999433517456
1702767335579692000,1.501692138671875,-0.2741999924182892,-0.17409999668598175,1.0568000078201294
1702767335639692000,1.561692138671875,0.3520999848842621,0.10279999673366547,1.0219999551773071
1702767335699692000,1.621692138671875,-0.6679999828338623,0.3700000047683716,1.5828999280929565
1702767335759692000,1.681692138671875,-0.3831000030040741,-0.405599981546402,0.3671000003814697
1702767335819692000,1.741692138671875,-0.006000000052154064,-0.26179999113082886,-0.8472999930381775
1702767335879692000,1.801692138671875,-1.8000999689102173,-0.031099999323487282,-2.3815999031066895
1702767335939692000,1.861692138671875,-2.534600019454956,0.5523999929428101,-2.2030999660491943
1702767335999692000,1.921692138671875,-2.306299924850464,0.5134999752044678,-0.5486999750137329
1702767336059692000,1.981692138671875,0.017099998891353607,0.23889999091625214,1.4239999055862427
1702767336119692000,2.041692138671875,0.7530999779701233,0.40209999680519104,0.8845999836921692
1702767336179692000,2.101692138671875,-0.027899999171495438,-0.7270999550819397,1.0281000137329102
1702767336239692000,2.161692138671875,-0.482699990272522,-0.13019999861717224,0.33329999446868896
1702767336299692000,2.221692138671875,0.5281999707221985,-0.5346999764442444,0.913100004196167
1702767336359692000,2.281692138671875,0.5224999785423279,0.3116999864578247,1.3875999450683594
1702767336419692000,2.341692138671875,0.12639999389648438,0.026599999517202377,1.2342000007629395
1702767336479692000,2.401692138671875,-0.5156999826431274,0.45729997754096985,0.8198999762535095
1702767336539692000,2.461692138671875,-2.031100034713745,-0.17589999735355377,0.8824999928474426
1702767336599692000,2.521692138671875,-0.6656000018119812,1.505199909210205,-1.220099925994873
1702767336659692000,2.581692138671875,-2.5384998321533203,-0.49219998717308044,-5.3379998207092285
1702767336719692000,2.641692138671875,-1.2488999366760254,-0.4765999913215637,-0.41119998693466187
1702767336779692000,2.701692138671875,0.11649999767541885,-0.023899998515844345,0.3788999915122986
1702767336839692000,2.761692138671875,1.0052999258041382,-0.3570999801158905,1.038100004196167
1702767336899692000,2.821692138671875,-0.019099999219179153,-0.4339999854564667,1.819000005722046
1702767336959692000,2.881692138671875,0.6870999932289124,0.32589998841285706,1.7914999723434448
1702767337019692000,2.941692138671875,-0.4195999801158905,-0.27639999985694885,0.9366999864578247
1702767337079692000,3.001692138671875,0.6768999695777893,0.04529999941587448,1.0009000301361084
1702767337139692000,3.061692138671875,-0.07259999960660934,0.09339999407529831,0.32179999351501465
1702767337199692000,3.121692138671875,-0.6098999977111816,0.43609997630119324,0.23969998955726624
1702767337259692000,3.181692138671875,-3.2348999977111816,-0.43209999799728394,-0.729200005531311
1702767337319692000,3.241692138671875,1.2379999160766602,2.1096999645233154,-1.3811999559402466
1702767337379692000,3.301692138671875,-1.4716999530792236,-0.22369998693466187,-1.5641999244689941
1702767337439692000,3.361692138671875,-0.4056999981403351,-0.12999999523162842,-0.5202999711036682
1702767337499692000,3.421692138671875,0.2809999883174896,-0.31610000133514404,-0.029500000178813934
1702767337559692000,3.481692138671875,1.1581000089645386,-1.0232999324798584,0.917199969291687
1702767337619692000,3.541692138671875,-0.11819999665021896,-1.1062999963760376,0.9633999466896057
1702767337679692000,3.601692138671875,0.3553999960422516,-0.09939999878406525,1.0943999290466309
1702767337739692000,3.661692138671875,-0.17059999704360962,0.16619999706745148,0.9057999849319458
1702767337799692000,3.721692138671875,0.9195999503135681,0.47450000047683716,0.5267999768257141
1702767337859692000,3.781692138671875,-0.2044999897480011,0.3879999816417694,0.6323999762535095
1702767337919692000,3.841692138671875,-0.12389999628067017,0.7838999629020691,0.19949999451637268
1702767337979692000,3.901692138671875,-1.6715999841690063,0.39809998869895935,0.17170000076293945
1702767338039692000,3.961692138671875,-1.3280999660491943,0.7247999906539917,-0.45329999923706055
1702767338099692000,4.021692138671875,-0.6559999585151672,0.6583999991416931,-1.1608999967575073
1702767338159692000,4.081692138671875,-1.5898000001907349,-0.5583999752998352,-2.7704999446868896
1702767338219692000,4.141692138671875,-0.16920000314712524,-0.022599998861551285,-0.34059998393058777
1702767338279692000,4.201692138671875,0.45260000228881836,-0.6020999550819397,-0.23680000007152557
1702767338339692000,4.261692138671875,0.5546999573707581,-1.163699984550476,0.7277999520301819
1702767338399692000,4.321692138671875,0.32409998774528503,-0.703499972820282,0.7432000041007996
1702767338459692000,4.381692138671875,-0.12299999594688416,-0.15330000221729279,0.003599999938160181
1702767338519692000,4.441692138671875,0.5212999582290649,0.15449999272823334,2.2376999855041504
1702767338579692000,4.501692138671875,0.8021000027656555,-0.05269999802112579,0.7515999674797058
1702767338639692000,4.561692138671875,0.18609999120235443,0.06879999488592148,1.0167999267578125
1702767338699692000,4.621692138671875,0.10740000009536743,0.4416999816894531,0.8114999532699585
1702767338759692000,4.681692138671875,-2.095900058746338,0.22169999778270721,0.18320000171661377
1702767338819692000,4.741692138671875,-0.9111999869346619,1.482699990272522,-0.5038999915122986
1702767338879692000,4.801692138671875,-1.3083999156951904,0.7487999796867371,-2.8005998134613037
1702767338939692000,4.861692138671875,-0.7310000061988831,0.4601999819278717,-0.6599000096321106
1702767338999692000,4.921692138671875,-0.23279999196529388,0.1613999903202057,-0.18559999763965607
1702767339059692000,4.981692138671875,-0.13130000233650208,-0.6144999861717224,-0.741599977016449
1702767339119692000,5.041692138671875,0.5997999906539917,-1.1144999265670776,-0.14379999041557312
1702767339179692000,5.101692138671875,-0.11239999532699585,-0.6955999732017517,0.21729999780654907
1702767339239692000,5.161692138671875,0.8100000023841858,-0.6237999796867371,1.097599983215332
1702767339299692000,5.221692138671875,0.3303000032901764,-0.19449999928474426,1.5281999111175537
1702767339359692000,5.281692138671875,0.4941999912261963,-0.11140000075101852,1.2273999452590942
1702767339419692000,5.341692138671875,0.5982999801635742,0.23479999601840973,0.7639999985694885
1702767339479692000,5.401692138671875,0.07779999822378159,0.1516999900341034,1.097000002861023
1702767339539692000,5.461692138671875,-1.4397000074386597,0.5252000093460083,0.7053999900817871
1702767339599692000,5.521692138671875,-2.17579984664917,1.8563998937606812,-0.491599977016449
1702767339659692000,5.581692138671875,-1.045699954032898,1.3092999458312988,-2.282399892807007
1702767339719692000,5.641692138671875,-1.2950999736785889,-0.06309999525547028,-0.9639999866485596
1702767339779692000,5.701692138671875,-0.2635999917984009,-0.7350999712944031,-1.4975999593734741
1702767339839692000,5.761692138671875,0.09019999951124191,-1.4271999597549438,-1.1136000156402588
1702767339899692000,5.821692138671875,0.010300000198185444,-0.8274999856948853,0.21329998970031738
1702767339959692000,5.881692138671875,0.5626999735832214,-0.8130999803543091,1.31659996509552
1702767340019692000,5.941692138671875,0.4536999762058258,-0.1387999951839447,1.7348999977111816
1702767340079692000,6.001692138671875,0.14999999105930328,0.272599995136261,1.4739999771118164
1702767340139692000,6.061692138671875,0.3831000030040741,0.8883000016212463,0.5063999891281128
1702767340199692000,6.121692138671875,-0.6843000054359436,0.7821999788284302,0.12319999933242798
1702767340259692000,6.181692138671875,-0.5622000098228455,0.4277999997138977,-0.296999990940094
1702767340319692000,6.241692138671875,-0.7179999947547913,-0.09730000048875809,-0.3774999976158142
1702767340379692000,6.301692138671875,0.14869999885559082,-0.014299999922513962,-0.5766000151634216
1702767340439692000,6.361692138671875,-0.0754999965429306,-0.18410000205039978,-0.13499999046325684
1702767340499692000,6.421692138671875,-0.05689999833703041,-0.24729999899864197,-0.0486999973654747
1702767340559692000,6.481692138671875,-0.24229998886585236,-0.03799999877810478,-0.142099991440773
1702767340619692000,6.541692138671875,-0.21529999375343323,0.05119999870657921,-0.17909999191761017
1702767340679692000,6.601692138671875,-0.1021999940276146,-0.0471000000834465,0.11999999731779099
1702767340739692000,6.661692138671875,-0.23510000109672546,-0.2092999964952469,0.13920000195503235
1702767340799692000,6.721692138671875,0.20829999446868896,0.14549998939037323,0.23909999430179596
1702767340859692000,6.781692138671875,0.4170999825000763,0.09769999980926514,0.05460000038146973
1702767340919692000,6.841692138671875,-1.0780999660491943,0.11769999563694,-0.6241999864578247
1702767340979692000,6.901692138671875,0.555400013923645,0.1525999903678894,0.014299999922513962
1702767341039692000,6.961692138671875,-0.07729999721050262,-0.12219999730587006,-0.2255999892950058
1702767341099692000,7.021692138671875,-0.03739999979734421,-0.24319998919963837,-0.24300000071525574
1702767341159692000,7.081692138671875,0.13120000064373016,-0.26919999718666077,-0.10979999601840973
1702767341219692000,7.141692138671875,-0.35349997878074646,-0.01889999955892563,-0.6714999675750732
1702767341279692000,7.201692138671875,-0.6218999624252319,0.1736999899148941,-0.8888999819755554
1702767341339692000,7.261692138671875,-0.9775999784469604,0.211899995803833,-0.9614999890327454
1702767341399692000,7.321692138671875,-0.6574999690055847,-0.6345999836921692,0.2336999922990799
1702767341459692000,7.381692138671875,-0.017099998891353607,-0.2525999844074249,1.205199956893921
1702767341519692000,7.441692138671875,1.1154999732971191,-0.12280000001192093,2.0820000171661377
1702767341579692000,7.501692138671875,0.8500999808311462,0.5029000043869019,1.2080999612808228
1702767341639692000,7.561692138671875,-0.4348999857902527,0.12479999661445618,0.1735999882221222
1702767341699692000,7.621692138671875,-0.22769999504089355,0.24279999732971191,-0.3172000050544739
1702767341759692000,7.681692138671875,0.0005999999702908099,-0.13519999384880066,-0.3190999925136566
1702767341819692000,7.741692138671875,0.039400000125169754,-0.15649999678134918,-0.2586999833583832
1702767341879692000,7.801692138671875,0.17090000212192535,0.0010999999940395355,-0.06870000064373016
1702767341939693600,7.861693603515625,-0.1898999959230423,0.011500000022351742,0.12379999458789825
1702767341999692000,7.921692138671875,-0.5877000093460083,0.1289999932050705,-0.21149998903274536
