time,seconds_elapsed,z,y,x
1702755215664607200,0.044607177734375,-0.420199990272522,0.0031999999191612005,-0.30329999327659607
1702755215724605700,0.104605712890625,-0.15929999947547913,0.08909999579191208,0.05299999937415123
1702755215784605700,0.164605712890625,-0.19509999454021454,0.11989999562501907,0.08949999511241913
1702755215844605700,0.224605712890625,0.04899999871850014,-0.009200000204145908,0.04739999771118164
1702755215904605700,0.284605712890625,0.17729999125003815,-0.1412999927997589,-0.003499999875202775
1702755215964605700,0.344605712890625,-0.012399999424815178,-0.008599999360740185,-0.2069999873638153
1702755216024605700,0.404605712890625,-0.04739999771118164,0.008499999530613422,-0.1257999986410141
1702755216084605700,0.464605712890625,-0.11029999703168869,0.21119999885559082,-0.16339999437332153
1702755216144605700,0.524605712890625,-0.17409999668598175,0.07000000029802322,0.1354999989271164
1702755216204605700,0.584605712890625,-0.013100000098347664,-0.04879999905824661,0.15969999134540558
1702755216264605700,0.644605712890625,0.15039999783039093,0.15539999306201935,-0.01979999989271164
1702755216324605700,0.704605712890625,-0.021900000050663948,0.03179999813437462,0.14429999887943268
1702755216384605700,0.764605712890625,-0.016200000420212746,-0.039400000125169754,-0.17270000278949738
1702755216444605700,0.824605712890625,0.026899999007582664,-0.1744999885559082,0.24319998919963837
1702755216504605700,0.884605712890625,-0.38749998807907104,0.22100000083446503,-0.3698999881744385
1702755216564605700,0.944605712890625,-0.043299999088048935,0.210099995136261,0.4860000014305115
1702755216624605700,1.004605712890625,-0.6026999950408936,-0.12639999389648438,0.48559999465942383
1702755216684605700,1.064605712890625,-0.26420000195503235,0.5866000056266785,-0.7102000117301941
1702755216744605700,1.124605712890625,0.6632999777793884,0.05859999731183052,0.3319000005722046
1702755216804605700,1.184605712890625,0.13249999284744263,-0.18979999423027039,-1.1590999364852905
1702755216864605700,1.244605712890625,-0.13570000231266022,-0.09769999980926514,-0.3206999897956848
1702755216924605700,1.304605712890625,-0.26499998569488525,-0.5900999903678894,-0.45249998569488525
1702755216984605700,1.364605712890625,-0.5723999738693237,0.18959999084472656,0.43959999084472656
1702755217044605700,1.424605712890625,-0.010400000028312206,-0.1428000032901764,0.7067999839782715
1702755217104605700,1.484605712890625,0.8188999891281128,0.44369998574256897,1.0688999891281128
1702755217164605700,1.544605712890625,0.2515999972820282,0.18230000138282776,-0.3197000026702881
1702755217224605700,1.604605712890625,0.21849998831748962,-0.08169999718666077,0.16599999368190765
1702755217284605700,1.664605712890625,0.1525000035762787,-0.03500000014901161,0.31360000371932983
1702755217344605700,1.724605712890625,-0.11349999904632568,0.09869999438524246,-0.049799997359514236
1702755217404605700,1.784605712890625,-0.5460000038146973,0.010499999858438969,0.07649999856948853
1702755217464605700,1.844605712890625,-0.29179999232292175,0.11729999631643295,0.09529999643564224
1702755217524605700,1.904605712890625,-0.17399999499320984,0.18850000202655792,0.2581000030040741
1702755217584605700,1.964605712890625,-0.30889999866485596,0.23819999396800995,-0.7749999761581421
1702755217644605700,2.024605712890625,0.032099999487400055,-0.19049999117851257,0.2549000084400177
1702755217704605700,2.084605712890625,-0.24539999663829803,-0.27129998803138733,-0.7324999570846558
1702755217764605700,2.144605712890625,0.4156999886035919,-0.07919999957084656,-0.09549999982118607
1702755217824605700,2.204605712890625,0.04050000011920929,-0.39229997992515564,-0.0674000009894371
1702755217884605700,2.264605712890625,-0.08320000022649765,-0.4277999997138977,0.3937999904155731
1702755217944605700,2.324605712890625,0.22769999504089355,-0.0851999968290329,0.3895999789237976
1702755218004605700,2.384605712890625,-0.23309999704360962,-0.13840000331401825,-0.08399999886751175
1702755218064605700,2.444605712890625,0.03669999912381172,-0.03359999880194664,-0.07169999927282333
1702755218124605700,2.504605712890625,-0.09479999542236328,0.3946000039577484,0.6292999982833862
1702755218184605700,2.564605712890625,-0.11180000007152557,0.10969999432563782,0.14219999313354492
1702755218244605700,2.624605712890625,-0.45499998331069946,0.13599999248981476,0.3797000050544739
1702755218304605700,2.684605712890625,0.014099999330937862,0.25119999051094055,-0.10409999638795853
1702755218364605700,2.744605712890625,-0.22709999978542328,0.1078999936580658,0.30480000376701355
1702755218424605700,2.804605712890625,0.25429999828338623,-0.09339999407529831,-0.12469999492168427
1702755218484605700,2.864605712890625,-0.12389999628067017,-0.22749999165534973,-0.061400000005960464
1702755218544605700,2.924605712890625,-0.11979999393224716,-0.08269999921321869,-0.05139999836683273
1702755218604605700,2.984605712890625,-0.1597999930381775,-0.048899997025728226,-0.4487999975681305
1702755218664605700,3.044605712890625,-0.28669998049736023,0.012899999506771564,-0.8070999979972839
1702755218724605700,3.104605712890625,-0.5343999862670898,-0.1607999950647354,-0.5343999862670898
1702755218784605700,3.164605712890625,0.05169999971985817,0.007199999876320362,0.0973999947309494
1702755218844605700,3.224605712890625,0.1688999980688095,0.04189999774098396,0.4712999761104584
1702755218904605700,3.284605712890625,0.15160000324249268,-0.23309999704360962,0.4132999777793884
1702755218964605700,3.344605712890625,0.12849999964237213,0.020999999716877937,0.677299976348877
1702755219024605700,3.404605712890625,-0.03799999877810478,-0.016699999570846558,0.47119998931884766
1702755219084605700,3.464605712890625,-0.044999998062849045,0.08429999649524689,0.39229997992515564
1702755219144605700,3.524605712890625,-0.1119999960064888,0.05920000001788139,-0.1193000003695488
1702755219204605700,3.584605712890625,-0.14239999651908875,0.1899999976158142,0.05249999836087227
1702755219264605700,3.644605712890625,-0.16839998960494995,0.1160999983549118,-0.13179999589920044
1702755219324605700,3.704605712890625,-0.028099998831748962,0.1647000014781952,-0.1022999957203865
1702755219384605700,3.764605712890625,-0.005399999674409628,0.012999999336898327,-0.03920000046491623
1702755219444605700,3.824605712890625,-0.19979999959468842,-0.19979999959468842,-0.4359000027179718
1702755219504605700,3.884605712890625,-0.21329998970031738,-0.22049999237060547,-0.27549999952316284
1702755219564605700,3.944605712890625,-0.08089999854564667,-0.19659999012947083,-0.4652999937534332
1702755219624605700,4.004605712890625,0.01599999889731407,0.025999998673796654,0.048499997705221176
1702755219684605700,4.064605712890625,0.24409998953342438,-0.1297999918460846,0.19839999079704285
1702755219744605700,4.124605712890625,-0.0754999965429306,-0.16509999334812164,0.24139998853206635
1702755219804605700,4.184605712890625,0.10159999877214432,-0.11469999700784683,0.7275999784469604
1702755219864605700,4.244605712890625,-0.15689998865127563,0.08789999783039093,0.5224999785423279
1702755219924605700,4.304605712890625,-0.3434000015258789,0.20649999380111694,0.5216999650001526
1702755219984605700,4.364605712890625,-0.26019999384880066,0.23019999265670776,0.0038999998942017555
1702755220044605700,4.424605712890625,-0.05859999731183052,0.04209999740123749,-0.3806999921798706
1702755220104605700,4.484605712890625,-0.19939999282360077,-0.03139999881386757,-0.0405999980866909
1702755220164605700,4.544605712890625,-0.14139999449253082,0.017899999395012856,-0.10399999469518661
1702755220224605700,4.604605712890625,-0.1613999903202057,0.06549999862909317,0.13109999895095825
1702755220284605700,4.664605712890625,-0.0689999982714653,-0.11319999396800995,-0.026200000196695328
1702755220344605700,4.724605712890625,-0.04699999839067459,-0.04729999974370003,-0.2838999927043915
1702755220404605700,4.784605712890625,0.07880000025033951,-0.12520000338554382,-0.15569999814033508
1702755220464605700,4.844605712890625,0.044199999421834946,-0.2442999929189682,-0.3125999867916107
1702755220524605700,4.904605712890625,-0.01269999984651804,-0.12219999730587006,-0.11779999732971191
1702755220584605700,4.964605712890625,0.18320000171661377,-0.10700000077486038,-0.1647000014781952
1702755220644605700,5.024605712890625,-0.04149999842047691,-0.11469999700784683,0.4287000000476837
1702755220704605700,5.084605712890625,0.018699999898672104,0.015699999406933784,0.22089999914169312
1702755220764605700,5.144605712890625,0.2402999997138977,0.039799999445676804,1.2813999652862549
1702755220824605700,5.204605712890625,-0.41909998655319214,0.09290000051259995,0.15950000286102295
1702755220884605700,5.264605712890625,-0.03689999878406525,0.24969999492168427,-0.2809999883174896
1702755220944605700,5.324605712890625,-0.362199991941452,0.06069999933242798,0.13120000064373016
1702755221004605700,5.384605712890625,-0.01119999960064888,0.11710000038146973,-0.007899999618530273
1702755221064605700,5.444605712890625,-0.12289999425411224,0.007899999618530273,0.056299999356269836
1702755221124605700,5.504605712890625,-0.2295999974012375,0.004999999888241291,0.2126999944448471
1702755221184605700,5.564605712890625,-0.05339999869465828,-0.09439999610185623,0.16609999537467957
1702755221244605700,5.624605712890625,0.030700000002980232,-0.14299999177455902,-0.3215000033378601
1702755221304605700,5.684605712890625,-0.05049999803304672,-0.09529999643564224,-0.5655999779701233
1702755221364605700,5.744605712890625,-0.1833999902009964,-0.005499999970197678,-0.5561000108718872
1702755221424605700,5.804605712890625,-0.19249999523162842,-0.1419999897480011,-0.6809999942779541
1702755221484605700,5.864605712890625,0.5231999754905701,0.00019999999494757503,0.36550000309944153
1702755221544605700,5.924605712890625,-0.21079999208450317,-0.218299999833107,0.4851999878883362
1702755221604605700,5.984605712890625,0.046699997037649155,-0.171999990940094,0.2483000010251999
1702755221664605700,6.044605712890625,0.20979999005794525,0.022299999371170998,0.7584999799728394
1702755221724605700,6.104605712890625,-0.03999999910593033,-0.12389999628067017,0.21249999105930328
1702755221784605700,6.164605712890625,-0.08069999516010284,0.20109999179840088,0.39309999346733093
1702755221844605700,6.224605712890625,0.05509999766945839,0.14579999446868896,0.0731000006198883
1702755221904605700,6.284605712890625,-0.2117999941110611,0.06650000065565109,-0.4693000018596649
1702755221964605700,6.344605712890625,-0.05350000038743019,0.09059999883174896,0.03449999913573265
1702755222024605700,6.404605712890625,-0.04169999808073044,-0.020800000056624413,-0.05609999969601631
1702755222084605700,6.464605712890625,-0.05639999732375145,0.04169999808073044,0.08720000088214874
1702755222144605700,6.524605712890625,-0.053999997675418854,0.060099996626377106,-0.0072999997064471245
1702755222204605700,6.584605712890625,0.02199999988079071,-0.056299999356269836,-0.16040000319480896
1702755222264605700,6.644605712890625,0.05570000037550926,-0.22219999134540558,-0.15279999375343323
1702755222324605700,6.704605712890625,0.05309999734163284,-0.22849999368190765,-0.08980000019073486
1702755222384605700,6.764605712890625,-0.023499999195337296,-0.05570000037550926,-0.0843999981880188
1702755222444605700,6.824605712890625,0.2110999971628189,-0.04179999977350235,-0.3147999942302704
1702755222504605700,6.884605712890625,-0.23709999024868011,0.03889999911189079,-0.5570999979972839
1702755222564605700,6.944605712890625,-0.2505999803543091,-0.15429998934268951,0.03099999949336052
1702755222624605700,7.004605712890625,0.052299998700618744,0.09429999440908432,0.6495000123977661
1702755222684605700,7.064605712890625,0.3529999852180481,0.0802999958395958,0.32099997997283936
1702755222744605700,7.124605712890625,-0.0405999980866909,-0.11659999936819077,0.6287999749183655
1702755222804605700,7.184605712890625,-0.30140000581741333,0.0004999999655410647,0.23680000007152557
1702755222864605700,7.244605712890625,-0.14309999346733093,0.1021999940276146,0.021199999377131462
1702755222924605700,7.304605712890625,-0.12399999797344208,0.0010999999940395355,0.08339999616146088
1702755222984605700,7.364605712890625,-0.00039999998989515007,0.09799999743700027,0.06520000100135803
1702755223044605700,7.424605712890625,0.0016999999061226845,0.3188999891281128,-0.02850000001490116
1702755223104605700,7.484605712890625,-0.01589999906718731,-0.035999998450279236,0.02159999869763851
1702755223164605700,7.544605712890625,0.07479999959468842,-0.04389999806880951,-0.20260000228881836
1702755223224605700,7.604605712890625,-0.25099998712539673,-0.30869999527931213,-0.6078000068664551
1702755223284605700,7.664605712890625,0.0471000000834465,-0.1581999957561493,0.18019999563694
1702755223344605700,7.724605712890625,-0.0762999951839447,-0.03179999813437462,0.19589999318122864
1702755223404605700,7.784605712890625,0.00029999998514540493,-0.023499999195337296,-0.033900000154972076
1702755223464605700,7.844605712890625,0.15359999239444733,0.02709999866783619,-0.046699997037649155
1702755223524605700,7.904605712890625,0.04319999739527702,-0.045899998396635056,-0.07069999724626541
1702755223584605700,7.964605712890625,-0.0738999992609024,-0.04619999974966049,0.037699997425079346
1702755223644605700,8.024605712890626,0.08959999680519104,0.08649999648332596,0.03720000013709068
1702755223704605700,8.084605712890625,0.05849999934434891,0.0989999994635582,-0.1264999955892563
1702755223764605700,8.144605712890625,-0.1371999979019165,0.008499999530613422,-0.043299999088048935
1702755223824605700,8.204605712890626,-0.0023999998811632395,-0.06269999593496323,0.09449999779462814
1702755223884605700,8.264605712890624,-0.16929998993873596,-0.048899997025728226,0.15029999613761902
1702755223944605700,8.324605712890625,0.07559999823570251,0.09219999611377716,-0.15929999947547913
1702755224004605700,8.384605712890625,0.11979999393224716,-0.09929999709129333,-0.25779998302459717
1702755224064605700,8.444605712890626,-0.15600000321865082,-0.14019998908042908,0.011099999770522118
1702755224124605700,8.504605712890625,-0.3546999990940094,-0.12789998948574066,0.03579999879002571
1702755224184605700,8.564605712890625,-0.34549999237060547,-0.12289999425411224,0.149399995803833
1702755224244605700,8.624605712890625,-0.12060000002384186,-0.11899999529123306,0.19759999215602875
1702755224304605700,8.684605712890624,0.12520000338554382,0.3073999881744385,0.3921999931335449
1702755224364605700,8.744605712890625,0.12709999084472656,0.17909999191761017,-0.009599999524652958
1702755224424605700,8.804605712890625,-0.3612000048160553,-0.6182999610900879,0.05289999768137932
1702755224484605700,8.864605712890626,-0.17589999735355377,-0.5336999893188477,-0.11019999533891678
1702755224544605700,8.924605712890624,-0.10279999673366547,-0.2556000053882599,-0.03839999809861183
1702755224604605700,8.984605712890625,0.19460000097751617,0.2175000011920929,0.10979999601840973
1702755224664605700,9.044605712890625,-0.19059999287128448,0.10520000010728836,0.38599997758865356
1702755224724605700,9.104605712890624,-0.0722000002861023,0.03920000046491623,0.21559999883174896
1702755224784605700,9.164605712890625,-0.06889999657869339,0.15600000321865082,0.2827000021934509
1702755224844605700,9.224605712890625,0.020800000056624413,0.12529999017715454,0.031199999153614044
1702755224904605700,9.284605712890626,-0.19059999287128448,-0.2802000045776367,-0.5313999652862549
1702755224964605700,9.344605712890624,-0.0681999996304512,0.06369999796152115,0.39890000224113464
1702755225024605700,9.404605712890625,-0.20789998769760132,0.042399998754262924,-0.07819999754428864
1702755225084605700,9.464605712890625,-0.0023999998811632395,-0.3262999951839447,-0.38269999623298645
1702755225144605700,9.524605712890626,0.07449999451637268,0.011399999260902405,0.47699999809265137
1702755225204605700,9.584605712890625,-0.25040000677108765,0.27320000529289246,-0.019999999552965164
