time,seconds_elapsed,z,y,x
1702212854860836900,0.0418369140625,-0.5163999795913696,-0.13449999690055847,0.0015999999595806003
1702212854920836900,0.1018369140625,-0.28110000491142273,0.053700000047683716,-0.4284999966621399
1702212854980836900,0.1618369140625,-0.3041999936103821,0.1703999936580658,-0.1574999988079071
1702212855040836900,0.2218369140625,-0.37059998512268066,-0.03179999813437462,0.008499999530613422
1702212855100836900,0.2818369140625,-0.9695999622344971,0.0997999981045723,0.4952999949455261
1702212855160836900,0.3418369140625,-0.0023999998811632395,0.17569999396800995,0.7807999849319458
1702212855220836900,0.4018369140625,-0.632099986076355,0.08129999786615372,-0.7881999611854553
1702212855280836900,0.4618369140625,0.07909999787807465,-0.2741999924182892,-0.1314999908208847
1702212855340836900,0.5218369140625,-0.025599999353289604,2.7819998264312744,0.9420999884605408
1702212855400836900,0.5818369140625,0.743399977684021,2.0384998321533203,-0.5066999793052673
1702212855460836900,0.6418369140625,0.5202000141143799,-1.851199984550476,0.1889999955892563
1702212855520836900,0.7018369140625,1.3630999326705933,0.5024999976158142,2.8860998153686523
1702212855580836900,0.7618369140625,-0.01939999870955944,0.9802999496459961,-0.43849998712539673
1702212855640836900,0.8218369140625,-1.6414999961853027,-4.881899833679199,-2.3381998538970947
1702212855700836900,0.8818369140625,2.8680999279022217,-0.8524999618530273,-3.005199909210205
1702212855760836900,0.9418369140625,1.4190999269485474,-2.1053998470306396,-0.4179999828338623
1702212855820836900,1.0018369140625,-3.02839994430542,1.0221999883651733,1.5094000101089478
1702212855880836900,1.0618369140625,-3.366999864578247,-1.8773999214172363,-0.5349999666213989
1702212855940836900,1.1218369140625,-2.682499885559082,-0.7870999574661255,-1.1066999435424805
1702212856000836900,1.1818369140625,-0.972000002861023,-1.169700026512146,-0.31839999556541443
1702212856060836900,1.2418369140625,-2.865499973297119,0.7786999940872192,0.4259999990463257
1702212856120836900,1.3018369140625,-6.731499671936035,-0.3075000047683716,-0.9950999617576599
1702212856180836900,1.3618369140625,-6.1763997077941895,-2.8903000354766846,-3.9789998531341553
1702212856240836900,1.4218369140625,-5.9105000495910645,-9.14009952545166,-4.4293999671936035
1702212856300836900,1.4818369140625,1.5866999626159668,-11.72909927368164,-2.3185999393463135
1702212856360836900,1.5418369140625,1.694599986076355,-14.220599174499512,0.09369999915361404
1702212856420836900,1.6018369140625,2.614500045776367,-11.523200035095215,3.894699811935425
1702212856480836900,1.6618369140625,3.527599811553955,-8.697400093078613,7.609599590301514
1702212856540836900,1.7218369140625,3.7052998542785645,-5.3638997077941895,8.222899436950684
1702212856600863500,1.781863525390625,2.0230000019073486,-1.805400013923645,9.219499588012695
1702212856660836900,1.8418369140625,1.587899923324585,0.920799970626831,12.177499771118164
1702212856720836900,1.9018369140625,1.4803999662399292,1.8118000030517578,15.006199836730957
1702212856780836900,1.9618369140625,1.4179999828338623,0.4503999948501587,12.432499885559082
1702212856840836900,2.0218369140625,2.1041998863220215,-0.6994999647140503,8.223899841308594
1702212856900836900,2.0818369140625,1.6276999711990356,-3.851300001144409,5.388899803161621
1702212856960836900,2.1418369140625,2.448199987411499,-5.832799911499023,5.104099750518799
1702212857020836900,2.2018369140625,1.1929999589920044,-5.93779993057251,2.3931000232696533
1702212857080836900,2.2618369140625,1.0180000066757202,-6.932999610900879,-0.64410001039505
1702212857140836900,2.3218369140625,0.19519999623298645,-5.04509973526001,-2.7216999530792236
1702212857200836900,2.3818369140625,-1.4361000061035156,-5.354700088500977,-4.9980998039245605
1702212857260836900,2.4418369140625,0.2669999897480011,-3.488499879837036,-7.718799591064453
1702212857320836900,2.5018369140625,1.2625999450683594,-0.608299970626831,-9.800299644470215
1702212857380836900,2.5618369140625,1.3586000204086304,-1.2391999959945679,-9.561999320983887
1702212857440836900,2.6218369140625,0.925599992275238,-2.231099843978882,-7.632999897003174
1702212857500836900,2.6818369140625,0.19539999961853027,-3.3474998474121094,-4.842299938201904
1702212857560836900,2.7418369140625,-0.37770000100135803,-4.251999855041504,-1.9183999300003052
1702212857620836900,2.8018369140625,-1.5549999475479126,-4.7941999435424805,1.7824000120162964
1702212857680836900,2.8618369140625,-0.612500011920929,-4.045000076293945,5.215099811553955
1702212857740836900,2.9218369140625,-1.791599988937378,-5.123899936676025,4.945799827575684
1702212857800836900,2.9818369140625,-3.313999891281128,-2.662299871444702,8.115099906921387
1702212857860836900,3.0418369140625,-4.5127997398376465,0.961899995803833,11.720099449157715
1702212857920836900,3.1018369140625,-6.198999881744385,1.6173999309539795,7.8294997215271
1702212857980836900,3.1618369140625,-2.7565999031066895,1.2132999897003174,6.606499671936035
1702212858040836900,3.2218369140625,-0.9824000000953674,-0.23240000009536743,4.168099880218506
1702212858100836900,3.2818369140625,-0.7809000015258789,-3.0274999141693115,1.6735999584197998
1702212858160836900,3.3418369140625,0.702299952507019,-4.047999858856201,0.3868999779224396
1702212858220836900,3.4018369140625,0.7821999788284302,-3.687699794769287,-1.8549000024795532
1702212858280836900,3.4618369140625,0.22919999063014984,-4.582099914550781,-4.445399761199951
1702212858340836900,3.5218369140625,1.1596999168395996,-3.95389986038208,-8.56879997253418
1702212858400836900,3.5818369140625,-0.981499969959259,-2.3506999015808105,-10.973899841308594
1702212858460836900,3.6418369140625,-1.4498000144958496,-5.452600002288818,-5.567899703979492
1702212858520836900,3.7018369140625,2.138700008392334,-6.893399715423584,-3.782099962234497
1702212858580836900,3.7618369140625,3.9619998931884766,-3.066999912261963,-2.0202999114990234
1702212858640836900,3.8218369140625,2.2507998943328857,-1.0751999616622925,-0.5625
1702212858700863500,3.881863525390625,2.0241000652313232,-3.0748000144958496,1.1546000242233276
1702212858760836900,3.9418369140625,2.085700035095215,-4.3333001136779785,6.318899631500244
1702212858820836900,4.0018369140625,0.7893999814987183,-1.6354999542236328,8.918999671936035
1702212858880836900,4.0618369140625,-1.9377999305725098,-0.10939999669790268,7.078799724578857
1702212858940836900,4.1218369140625,-4.770699977874756,0.20029999315738678,7.917299747467041
1702212859000836900,4.1818369140625,-6.621999740600586,-0.37950000166893005,10.85629940032959
1702212859060836900,4.2418369140625,-5.1743998527526855,0.3880999982357025,7.266899585723877
1702212859120836900,4.3018369140625,-3.8533999919891357,-3.14139986038208,6.499499797821045
1702212859180836900,4.3618369140625,-1.275399923324585,-5.954899787902832,6.477799892425537
1702212859240836900,4.4218369140625,1.0547999143600464,-4.892099857330322,3.174799919128418
1702212859300836900,4.4818369140625,2.03410005569458,-5.752999782562256,-0.12459999322891235
1702212859360836900,4.5418369140625,3.462100028991699,-6.280699729919434,-1.3708000183105469
1702212859420836900,4.6018369140625,4.763599872589111,-5.549499988555908,-4.231899738311768
1702212859480836900,4.6618369140625,4.40339994430542,-5.245299816131592,-7.72790002822876
1702212859540836900,4.7218369140625,3.9325997829437256,-4.416599750518799,-9.694600105285645
1702212859600836900,4.7818369140625,1.8147000074386597,-6.090699672698975,-9.468899726867676
1702212859660836900,4.8418369140625,2.219399929046631,-5.217400074005127,-5.14139986038208
1702212859720836900,4.9018369140625,1.3698999881744385,-6.481199741363525,-2.972299814224243
1702212859780836900,4.9618369140625,1.218400001525879,-6.6230998039245605,-0.7838999629020691
1702212859840836900,5.0218369140625,0.5730000138282776,-3.4512999057769775,1.8089998960494995
1702212859900836900,5.0818369140625,-2.95169997215271,-2.636199951171875,4.434299945831299
1702212859960836900,5.1418369140625,-2.310299873352051,-2.3315000534057617,7.25
1702212860020836900,5.2018369140625,-3.5969998836517334,0.41849997639656067,7.285299777984619
1702212860080836900,5.2618369140625,-6.2256999015808105,2.0063998699188232,6.906399726867676
1702212860140836900,5.3218369140625,-7.060299873352051,0.4583999812602997,8.24739933013916
1702212860200836900,5.3818369140625,-5.045799732208252,-1.4235999584197998,9.457300186157227
1702212860260836900,5.4418369140625,-2.5834999084472656,-0.10249999910593033,7.797699928283691
1702212860320836900,5.5018369140625,-4.267699718475342,-4.1315999031066895,5.843199729919434
1702212860380836900,5.5618369140625,-1.4469000101089478,-6.8171000480651855,5.985199928283691
1702212860440836900,5.6218369140625,1.2910000085830688,-5.097399711608887,2.432299852371216
1702212860500836900,5.6818369140625,2.325399875640869,-5.0152997970581055,-0.5511999726295471
1702212860560836900,5.7418369140625,3.4845998287200928,-5.6743998527526855,-2.6833999156951904
1702212860620836900,5.8018369140625,4.953000068664551,-4.935199737548828,-5.465699672698975
1702212860680836900,5.8618369140625,3.827899932861328,-6.1890997886657715,-9.715399742126465
1702212860740836900,5.9218369140625,3.3855998516082764,-5.628699779510498,-11.695699691772461
1702212860800863500,5.981863525390625,0.776199996471405,-8.28030014038086,-7.904399871826172
1702212860860836900,6.0418369140625,2.248800039291382,-5.990699768066406,-4.130899906158447
1702212860920836900,6.1018369140625,-0.19900000095367432,-6.849299907684326,-1.1385999917984009
1702212860980836900,6.1618369140625,1.4936000108718872,-4.919699668884277,1.3393999338150024
1702212861040836900,6.2218369140625,0.4553000032901764,-2.157899856567383,3.418299913406372
1702212861100836900,6.2818369140625,-0.5042999982833862,-3.3661999702453613,5.1865997314453125
1702212861160836900,6.3418369140625,-0.0037999998312443495,-2.984999895095825,7.788399696350098
1702212861220836900,6.4018369140625,-2.5635998249053955,-0.2863999903202057,7.613099575042725
1702212861280836900,6.4618369140625,-6.9126996994018555,0.7806999683380127,7.695399761199951
1702212861340836900,6.5218369140625,-8.827499389648438,1.2961000204086304,8.330900192260742
1702212861400836900,6.5818369140625,-5.395699977874756,1.3113999366760254,9.600099563598633
1702212861460836900,6.6418369140625,-5.018799781799316,-2.9629998207092285,7.031099796295166
1702212861520836900,6.7018369140625,-4.1977996826171875,-6.993099689483643,7.114299774169922
1702212861580836900,6.7618369140625,-0.7292999625205994,-6.602599620819092,4.588299751281738
1702212861640836900,6.8218369140625,1.7350999116897583,-5.472399711608887,0.23549999296665192
1702212861700836900,6.8818369140625,2.796599864959717,-6.168699741363525,-2.026900053024292
1702212861760836900,6.9418369140625,4.129499912261963,-5.763999938964844,-3.422600030899048
1702212861820836900,7.0018369140625,5.90779972076416,-4.5055999755859375,-6.841899871826172
1702212861880836900,7.0618369140625,3.842399835586548,-6.193999767303467,-9.38539981842041
1702212861940836900,7.1218369140625,3.444399833679199,-5.5752997398376465,-8.725199699401855
1702212862000836900,7.1818369140625,1.5174999237060547,-5.565399646759033,-5.33519983291626
1702212862060836900,7.2418369140625,0.5241999626159668,-5.871200084686279,-2.471099853515625
1702212862120836900,7.3018369140625,2.1009998321533203,-4.385799884796143,-1.0994999408721924
1702212862180836900,7.3618369140625,0.59579998254776,-2.913300037384033,-1.1380000114440918
1702212862240836900,7.4218369140625,-0.961899995803833,-1.907599925994873,2.412799835205078
1702212862300836900,7.4818369140625,-1.7917999029159546,-2.384399890899658,4.596299648284912
1702212862360836900,7.5418369140625,-2.0142998695373535,-1.8387999534606934,5.989500045776367
1702212862420836900,7.6018369140625,-4.017399787902832,-0.34869998693466187,5.642199993133545
1702212862480836900,7.6618369140625,-6.7154998779296875,-0.8140999674797058,7.648200035095215
1702212862540836900,7.7218369140625,-7.341899871826172,1.986799955368042,10.307199478149414
1702212862600836900,7.7818369140625,-7.500699996948242,-1.153499960899353,8.590099334716797
1702212862660836900,7.8418369140625,-5.0590996742248535,-4.114999771118164,9.13379955291748
1702212862720836900,7.9018369140625,-1.754699945449829,-4.402400016784668,6.290999889373779
1702212862780836900,7.9618369140625,0.10289999842643738,-3.7637999057769775,3.0780999660491943
1702212862840836900,8.0218369140625,1.4610999822616577,-4.682499885559082,0.8977999687194824
1702212862900863500,8.081863525390625,2.8325998783111572,-7.0092997550964355,-0.4957999885082245
1702212862960836900,8.1418369140625,3.8496999740600586,-8.359899520874023,-0.882099986076355
1702212863020836900,8.2018369140625,3.795499801635742,-7.158699989318848,-11.723299980163574
1702212863080836900,8.2618369140625,7.076599597930908,-7.020999908447266,-10.626799583435059
1702212863140836900,8.3218369140625,6.8750996589660645,-8.959599494934082,-4.638899803161621
1702212863200836900,8.3818369140625,2.9163999557495117,-7.675899982452393,-2.6541998386383057
1702212863260836900,8.4418369140625,2.2983999252319336,-7.387699604034424,-2.339900016784668
1702212863320836900,8.5018369140625,2.2546000480651855,-4.963599681854248,-0.22749999165534973
1702212863380836900,8.5618369140625,-0.26159998774528503,-3.404099941253662,2.6935999393463135
1702212863440836900,8.6218369140625,-3.1679999828338623,-4.570699691772461,4.592099666595459
1702212863500836900,8.6818369140625,-6.01669979095459,-1.9679999351501465,9.80009937286377
1702212863560836900,8.7418369140625,-11.292999267578125,1.2638999223709106,9.778599739074707
1702212863620836900,8.8018369140625,-10.05620002746582,2.903599977493286,11.015199661254883
1702212863680836900,8.8618369140625,-5.678799629211426,-0.45179998874664307,8.856800079345703
1702212863740836900,8.9218369140625,-2.805799961090088,-0.4400999844074249,8.774799346923828
1702212863800836900,8.9818369140625,-2.9845998287200928,-4.692299842834473,7.693699836730957
1702212863860836900,9.0418369140625,-1.0542999505996704,-8.236599922180176,6.712199687957764
1702212863920836900,9.1018369140625,1.763700008392334,-6.975599765777588,2.297499895095825
1702212863980836900,9.1618369140625,3.3650999069213867,-6.749699592590332,-0.5623999834060669
1702212864040836900,9.2218369140625,3.733799934387207,-6.586400032043457,-2.855299949645996
1702212864100836900,9.2818369140625,4.684000015258789,-6.750400066375732,-9.789599418640137
1702212864160836900,9.3418369140625,3.086099863052368,-5.804699897766113,-10.916099548339844
1702212864220905700,9.40190576171875,2.861599922180176,-6.513399600982666,-12.427000045776367
1702212864280836900,9.4618369140625,0.9210000038146973,-7.6143999099731445,-7.14709997177124
1702212864340836900,9.5218369140625,1.6897999048233032,-8.570499420166016,-2.558799982070923
1702212864400836900,9.5818369140625,0.8032999634742737,-8.995699882507324,-0.25589999556541443
1702212864460836900,9.6418369140625,0.7569999694824219,-5.771599769592285,1.2134000062942505
1702212864520836900,9.7018369140625,-0.3919999897480011,-2.5319998264312744,3.126999855041504
1702212864580836900,9.7618369140625,-1.007699966430664,-3.048499822616577,6.417199611663818
1702212864640836900,9.8218369140625,0.08509999513626099,-0.7763999700546265,10.389900207519531
1702212864700836900,9.8818369140625,-1.763700008392334,-0.02199999988079071,9.878399848937988
1702212864760836900,9.9418369140625,-2.899899959564209,1.545799970626831,9.640999794006348
1702212864820836900,10.0018369140625,-5.717199802398682,2.37719988822937,7.069999694824219
1702212864880836900,10.0618369140625,-2.7032999992370605,1.8880999088287354,10.905099868774414
1702212864940836900,10.1218369140625,-3.089099884033203,-5.80709981918335,13.593899726867676
1702212865000863500,10.181863525390625,-2.40120005607605,-9.479599952697754,8.446700096130371
1702212865060836900,10.2418369140625,0.43779999017715454,-7.586599826812744,3.635999917984009
1702212865120836900,10.3018369140625,1.3944000005722046,-7.568299770355225,-0.08989999443292618
1702212865180836900,10.3618369140625,2.763700008392334,-8.479599952697754,-2.534299850463867
1702212865240836900,10.4218369140625,3.710399866104126,-8.333700180053711,-4.384200096130371
1702212865300836900,10.4818369140625,5.368299961090088,-6.724599838256836,-8.64989948272705
1702212865360836900,10.5418369140625,4.3414998054504395,-5.814300060272217,-13.401000022888184
1702212865420836900,10.6018369140625,-0.6424999833106995,-9.365699768066406,-13.02299976348877
1702212865480836900,10.6618369140625,-0.5091999769210815,-7.7444000244140625,-7.463099956512451
1702212865540836900,10.7218369140625,-1.4422999620437622,-12.39680004119873,-3.8230998516082764
1702212865600836900,10.7818369140625,2.3474998474121094,-10.660399436950684,0.8962000012397766
1702212865660836900,10.8418369140625,1.2645999193191528,-7.502699851989746,4.224999904632568
1702212865720836900,10.9018369140625,-1.3637999296188354,-6.435199737548828,5.973099708557129
1702212865780836900,10.9618369140625,-1.180899977684021,-5.196099758148193,9.632100105285645
1702212865840836900,11.0218369140625,-0.9505999684333801,-0.457099974155426,13.82699966430664
1702212865900836900,11.0818369140625,-2.2237000465393066,0.35830000042915344,13.303499221801758
1702212865960836900,11.1418369140625,-2.923799991607666,-0.15060000121593475,10.57859992980957
1702212866020836900,11.2018369140625,-1.3320999145507812,1.6440999507904053,11.14579963684082
1702212866080836900,11.2618369140625,-3.382200002670288,-3.78059983253479,10.56190013885498
1702212866140836900,11.3218369140625,-2.2623000144958496,-8.689199447631836,9.314799308776855
1702212866200836900,11.3818369140625,-0.39249998331069946,-8.224499702453613,3.4814999103546143
1702212866260836900,11.4418369140625,-0.6389999985694885,-7.085599899291992,-0.9122999906539917
1702212866320836900,11.5018369140625,0.18930000066757202,-7.944299697875977,-2.7370998859405518
1702212866380836900,11.5618369140625,1.7597999572753906,-7.53939962387085,-4.225500106811523
1702212866440836900,11.6218369140625,1.1311999559402466,-6.858199596405029,-6.7667999267578125
1702212866500836900,11.6818369140625,0.9886999726295471,-6.101500034332275,-9.010600090026855
1702212866560836900,11.7418369140625,1.4101999998092651,-6.787399768829346,-11.073100090026855
1702212866620836900,11.8018369140625,1.7220999002456665,-6.227599620819092,-10.69950008392334
1702212866680836900,11.8618369140625,0.282399982213974,-8.661099433898926,-8.505399703979492
1702212866740836900,11.9218369140625,0.021800000220537186,-10.9621000289917,-4.592199802398682
1702212866800836900,11.9818369140625,-0.5121999979019165,-8.702300071716309,0.8341999650001526
1702212866860836900,12.0418369140625,-1.6770999431610107,-6.365599632263184,4.961400032043457
1702212866920836900,12.1018369140625,-0.9329999685287476,-5.961099624633789,4.079699993133545
1702212866980836900,12.1618369140625,0.7462999820709229,-3.660799980163574,6.049799919128418
1702212867040836900,12.2218369140625,-1.101199984550476,-2.6605000495910645,10.27489948272705
1702212867100836900,12.2818369140625,-0.4860000014305115,0.022099999710917473,14.932699203491211
1702212867160836900,12.3418369140625,-1.6502999067306519,0.7676999568939209,14.627699851989746
1702212867220836900,12.4018369140625,-1.8939999341964722,0.6940999627113342,8.927800178527832
1702212867280836900,12.4618369140625,-4.779999732971191,-4.087500095367432,6.508399963378906
1702212867340836900,12.5218369140625,-4.988100051879883,-7.8802995681762695,4.871099948883057
1702212867400836900,12.5818369140625,-3.3183999061584473,-6.126199722290039,1.5643999576568604
1702212867460836900,12.6418369140625,0.13259999454021454,-5.861599922180176,-1.0464999675750732
1702212867520836900,12.7018369140625,2.524600028991699,-6.050600051879883,-2.092900037765503
1702212867580836900,12.7618369140625,3.2525999546051025,-6.8917999267578125,-3.4079999923706055
1702212867640836900,12.8218369140625,4.240600109100342,-7.043399810791016,-7.0615997314453125
1702212867700836900,12.8818369140625,4.962899684906006,-4.246799945831299,-13.841300010681152
1702212867760836900,12.9418369140625,1.2107999324798584,-6.018199920654297,-12.157899856567383
1702212867820836900,13.0018369140625,2.4651999473571777,-8.344499588012695,-5.701600074768066
1702212867880836900,13.0618369140625,2.0806000232696533,-9.697400093078613,-1.8162999153137207
1702212867940836900,13.1218369140625,0.2806999981403351,-8.898399353027344,0.8119999766349792
1702212868000836900,13.1818369140625,-0.5884999632835388,-4.553199768066406,2.4861998558044434
1702212868060836900,13.2418369140625,-2.7890000343322754,-3.1506998538970947,5.266299724578857
1702212868120836900,13.3018369140625,-2.581899881362915,-2.6394999027252197,8.95989990234375
1702212868180836900,13.3618369140625,-3.6745998859405518,0.23119999468326569,8.130199432373047
1702212868240836900,13.4218369140625,-6.286799907684326,1.4395999908447266,9.23129940032959
1702212868300836900,13.4818369140625,-7.284099578857422,1.222100019454956,12.243399620056152
1702212868360836900,13.5418369140625,-8.068699836730957,-3.652400016784668,10.070899963378906
1702212868420836900,13.6018369140625,-2.89520001411438,-1.4548999071121216,10.723899841308594
1702212868480836900,13.6618369140625,-5.0341997146606445,-7.507899761199951,7.8553996086120605
1702212868540836900,13.7218369140625,-1.5304999351501465,-10.61829948425293,7.302599906921387
1702212868600836900,13.7818369140625,1.3203999996185303,-9.231999397277832,2.494499921798706
1702212868660836900,13.8418369140625,2.3592000007629395,-9.57289981842041,-0.9247999787330627
1702212868720836900,13.9018369140625,4.482100009918213,-9.128199577331543,-2.7832000255584717
1702212868780836900,13.9618369140625,5.320399761199951,-7.774600028991699,-4.850399971008301
1702212868840836900,14.0218369140625,4.9741997718811035,-6.8242998123168945,-10.498499870300293
1702212868900836900,14.0818369140625,5.323400020599365,-6.482999801635742,-11.75629997253418
1702212868960836900,14.1418369140625,2.758999824523926,-8.214499473571777,-9.772099494934082
1702212869020836900,14.2018369140625,-0.4405999779701233,-10.703299522399902,-6.346199989318848
1702212869080836900,14.2618369140625,1.1514999866485596,-9.476200103759766,-3.1920998096466064
1702212869140836900,14.3218369140625,0.5031999945640564,-9.05270004272461,-2.412400007247925
1702212869200863500,14.381863525390624,0.022499999031424522,-6.798599720001221,2.9143998622894287
1702212869260836900,14.4418369140625,-0.7975999712944031,-5.34559965133667,8.346400260925293
1702212869320836900,14.5018369140625,-2.60509991645813,-3.685699939727783,10.097999572753906
1702212869380836900,14.5618369140625,-4.755799770355225,-0.8481000065803528,9.320599555969238
1702212869440836900,14.6218369140625,-5.900699615478516,1.8030999898910522,13.126500129699707
1702212869500836900,14.6818369140625,-3.7908999919891357,0.43539997935295105,11.811399459838867
1702212869560836900,14.7418369140625,-3.2337000370025635,-0.5988999605178833,11.468199729919434
1702212869620836900,14.8018369140625,-4.2357001304626465,-3.701200008392334,8.437699317932129
1702212869680836900,14.8618369140625,-2.9759998321533203,-9.56089973449707,7.189599990844727
1702212869740836900,14.9218369140625,0.3050999939441681,-8.81209945678711,3.4763998985290527
1702212869800836900,14.9818369140625,1.4453999996185303,-7.240499973297119,-0.32019999623298645
1702212869860836900,15.0418369140625,1.8553999662399292,-7.246399879455566,-2.808799982070923
1702212869920836900,15.1018369140625,3.617799997329712,-5.873600006103516,-5.488800048828125
1702212869980836900,15.1618369140625,3.7249999046325684,-4.714200019836426,-12.163899421691895
1702212870040836900,15.2218369140625,2.9156999588012695,-5.174200057983398,-11.933099746704102
1702212870100836900,15.2818369140625,1.5219999551773071,-8.396599769592285,-9.496099472045898
1702212870160836900,15.3418369140625,2.062700033187866,-9.138699531555176,-5.099299907684326
1702212870220863500,15.401863525390626,0.5824999809265137,-9.200399398803711,-2.0837998390197754
1702212870280836900,15.4618369140625,0.5116999745368958,-9.545000076293945,-0.11050000041723251
1702212870340836900,15.5218369140625,2.1024999618530273,-5.3125996589660645,3.6785998344421387
1702212870400836900,15.5818369140625,-0.0005999999702908099,-3.6449999809265137,4.949399948120117
1702212870460836900,15.6418369140625,0.06520000100135803,-3.110499858856201,5.157199859619141
1702212870520836900,15.7018369140625,-1.0226999521255493,-1.8042999505996704,8.618800163269043
1702212870580836900,15.7618369140625,-4.188600063323975,-0.048499997705221176,14.699299812316895
1702212870640836900,15.8218369140625,-4.954599857330322,1.6567000150680542,13.300299644470215
1702212870700836900,15.8818369140625,-4.968199729919434,1.0911999940872192,11.388099670410156
1702212870760836900,15.9418369140625,-3.7074999809265137,-3.885199785232544,10.013400077819824
1702212870820836900,16.0018369140625,-1.5131999254226685,-9.013799667358398,10.550999641418457
1702212870880836900,16.0618369140625,-0.20430000126361847,-9.777199745178223,4.859099864959717
1702212870940836900,16.1218369140625,0.957099974155426,-8.158100128173828,0.36949998140335083
1702212871000836900,16.1818369140625,2.026099920272827,-7.57889986038208,-1.9279999732971191
1702212871060836900,16.2418369140625,2.8389999866485596,-7.300600051879883,-4.830399990081787
1702212871120836900,16.3018369140625,4.278199672698975,-5.505699634552002,-10.019399642944336
1702212871180836900,16.3618369140625,1.9091999530792236,-6.292699813842773,-12.484999656677246
1702212871240836900,16.4218369140625,1.7378000020980835,-5.400599956512451,-10.030599594116211
1702212871300863500,16.481863525390626,1.1890000104904175,-8.350799560546875,-6.71619987487793
1702212871360836900,16.5418369140625,0.14139999449253082,-8.137499809265137,-4.7444000244140625
1702212871420836900,16.6018369140625,0.5464999675750732,-7.7789998054504395,-2.421099901199341
1702212871480836900,16.6618369140625,0.8499000072479248,-4.900700092315674,-0.18930000066757202
1702212871540836900,16.7218369140625,0.005699999630451202,-4.0894999504089355,2.893199920654297
1702212871600836900,16.7818369140625,-0.1834999918937683,-5.445799827575684,5.783499717712402
1702212871660836900,16.8418369140625,0.7317999601364136,-3.4677999019622803,7.667500019073486
1702212871720836900,16.9018369140625,-0.7012999653816223,-0.9309999942779541,8.4089994430542
1702212871780836900,16.9618369140625,-3.024899959564209,-0.2935999929904938,12.4128999710083
1702212871840836900,17.0218369140625,-3.5288000106811523,0.319599986076355,12.508899688720703
1702212871900836900,17.0818369140625,-4.717799663543701,-0.5537999868392944,12.190999984741211
1702212871960836900,17.1418369140625,-4.7104997634887695,-5.106299877166748,9.885899543762207
1702212872020836900,17.2018369140625,-2.608799934387207,-7.099699974060059,6.078000068664551
1702212872080836900,17.2618369140625,-2.122999906539917,-6.272299766540527,2.323199987411499
1702212872140835300,17.32183544921875,0.21660000085830688,-7.409499645233154,-2.05649995803833
1702212872200836900,17.3818369140625,3.7243998050689697,-7.463399887084961,-2.9988999366760254
1702212872260836900,17.4418369140625,4.238199710845947,-7.365799903869629,-5.236999988555908
1702212872320836900,17.5018369140625,4.541100025177002,-8.490300178527832,-8.840899467468262
1702212872380836900,17.5618369140625,4.925999641418457,-6.774600028991699,-10.077300071716309
1702212872440836900,17.6218369140625,3.5408999919891357,-8.262199401855469,-6.486700057983398
1702212872500836900,17.6818369140625,2.1166999340057373,-7.6819000244140625,-3.656899929046631
1702212872560836900,17.7418369140625,0.34360000491142273,-8.176300048828125,-2.0299999713897705
1702212872620836900,17.8018369140625,0.22129999101161957,-5.875199794769287,0.45329999923706055
1702212872680836900,17.8618369140625,-1.7258999347686768,-3.714599847793579,3.3242998123168945
1702212872740836900,17.9218369140625,-2.9807000160217285,-3.2360999584198,7.543799877166748
1702212872800836900,17.9818369140625,-2.9729998111724854,-1.7357999086380005,9.42039966583252
1702212872860836900,18.0418369140625,-3.518699884414673,1.6359999179840088,8.94119930267334
1702212872920836900,18.1018369140625,-5.261499881744385,0.3693999946117401,12.34529972076416
1702212872980836900,18.1618369140625,-5.629199981689453,1.0425000190734863,11.805699348449707
1702212873040836900,18.2218369140625,-6.28439998626709,0.32589998841285706,9.053699493408203
1702212873100836900,18.2818369140625,-6.559299945831299,-4.566400051116943,8.20580005645752
1702212873160836900,18.3418369140625,-4.567899703979492,-9.564899444580078,7.533899784088135
1702212873220836900,18.4018369140625,-0.3545999825000763,-7.394899845123291,4.259099960327148
1702212873280836900,18.4618369140625,0.6437999606132507,-7.545199871063232,0.6283999681472778
1702212873340836900,18.5218369140625,2.5820999145507812,-7.816699981689453,-1.1717000007629395
1702212873400863500,18.581863525390624,3.148599863052368,-8.946499824523926,-3.7734999656677246
1702212873460836900,18.6418369140625,4.31220006942749,-9.501699447631836,-6.44219970703125
1702212873520836900,18.7018369140625,7.8979997634887695,-7.56689977645874,-13.792299270629883
1702212873580836900,18.7618369140625,4.793099880218506,-11.627900123596191,-11.890999794006348
1702212873640836900,18.8218369140625,-1.8036999702453613,-11.334799766540527,-7.943299770355225
1702212873700836900,18.8818369140625,-1.7734999656677246,-7.464999675750732,-0.7396999597549438
1702212873760836900,18.9418369140625,2.0536999702453613,-7.610599994659424,-1.8133000135421753
1702212873820836900,19.0018369140625,0.06449999660253525,-5.2993998527526855,1.6763999462127686
1702212873880836900,19.0618369140625,-3.333899974822998,-5.900199890136719,5.201699733734131
1702212873940836900,19.1218369140625,-2.3446998596191406,-3.982999801635742,8.61609935760498
1702212874000836900,19.1818369140625,-1.955199956893921,-1.032599925994873,10.211999893188477
1702212874060836900,19.2418369140625,-3.537299871444702,-0.6919999718666077,11.517999649047852
1702212874120836900,19.3018369140625,-5.282299995422363,0.32899999618530273,12.56149959564209
1702212874180835300,19.36183544921875,-6.664799690246582,0.8797000050544739,12.498000144958496
1702212874240836900,19.4218369140625,-4.826200008392334,-3.958599805831909,9.037599563598633
1702212874300836900,19.4818369140625,-3.5618999004364014,-9.018199920654297,7.917999744415283
1702212874360836900,19.5418369140625,-0.7823999524116516,-8.075200080871582,4.273799896240234
1702212874420836900,19.6018369140625,1.7421998977661133,-6.860899925231934,0.7064999938011169
1702212874480836900,19.6618369140625,2.081899881362915,-7.826900005340576,-1.7141999006271362
1702212874540836900,19.7218369140625,3.957199811935425,-8.10830020904541,-2.2351999282836914
1702212874600836900,19.7818369140625,5.32859992980957,-7.621500015258789,-2.6052000522613525
1702212874660836900,19.8418369140625,5.912999629974365,-6.0808000564575195,-4.301599979400635
1702212874720836900,19.9018369140625,3.4519999027252197,-6.912799835205078,-14.12339973449707
1702212874780836900,19.9618369140625,3.25819993019104,-6.185499668121338,-10.13599967956543
1702212874840836900,20.0218369140625,0.15940000116825104,-9.75570011138916,-5.602999687194824
1702212874900836900,20.0818369140625,-0.97489994764328,-8.343199729919434,-2.1863999366760254
1702212874960836900,20.1418369140625,-0.7240999937057495,-3.959199905395508,-0.39319998025894165
1702212875020836900,20.2018369140625,-1.590999960899353,-4.119699954986572,1.490399956703186
1702212875080836900,20.2618369140625,-1.6019999980926514,-5.133899688720703,6.848599910736084
1702212875140836900,20.3218369140625,-2.500999927520752,-3.7577998638153076,6.798299789428711
1702212875200836900,20.3818369140625,-1.8493999242782593,-1.3585000038146973,8.955699920654297
1702212875260836900,20.4418369140625,-4.442599773406982,-3.41129994392395,12.39479923248291
1702212875320836900,20.5018369140625,-5.764199733734131,-0.9136999845504761,10.591300010681152
1702212875380836900,20.5618369140625,-7.87939977645874,-1.3504999876022339,11.547999382019043
1702212875440836900,20.6218369140625,-6.662799835205078,-6.125999927520752,8.159299850463867
1702212875500863500,20.681863525390625,-3.316699981689453,-8.00979995727539,5.693899631500244
1702212875560836900,20.7418369140625,0.15240000188350677,-6.459099769592285,2.758999824523926
1702212875620836900,20.8018369140625,1.2724000215530396,-7.507499694824219,-0.7915999889373779
1702212875680836900,20.8618369140625,1.3629000186920166,-7.855000019073486,-1.4125999212265015
1702212875740836900,20.9218369140625,4.043900012969971,-8.552000045776367,-2.116499900817871
1702212875800836900,20.9818369140625,4.397799968719482,-10.32229995727539,-2.597599983215332
1702212875860836900,21.0418369140625,5.0548996925354,-8.779600143432617,-7.509699821472168
1702212875920836900,21.1018369140625,5.73829984664917,-4.961199760437012,-9.611299514770508
1702212875980836900,21.1618369140625,4.105299949645996,-4.766900062561035,-8.885000228881836
1702212876040836900,21.2218369140625,3.6754000186920166,-5.523099899291992,-8.160099983215332
1702212876100836900,21.2818369140625,3.6710000038146973,-5.549999713897705,-5.2322998046875
1702212876160836900,21.3418369140625,1.445599913597107,-8.230899810791016,0.3458999991416931
1702212876220836900,21.4018369140625,-2.2904000282287598,-11.528499603271484,6.85159969329834
1702212876280836900,21.4618369140625,-4.523699760437012,-4.086699962615967,12.65269947052002
1702212876340836900,21.5218369140625,-5.779099941253662,-0.07689999788999557,3.6903998851776123
1702212876400836900,21.5818369140625,-3.716899871826172,1.6243000030517578,4.392699718475342
1702212876460836900,21.6418369140625,-7.352299690246582,0.8037999868392944,9.27199935913086
1702212876520836900,21.7018369140625,-9.291299819946289,0.7555999755859375,13.22249984741211
1702212876580836900,21.7618369140625,-7.939999580383301,-0.8592000007629395,8.511699676513672
1702212876640836900,21.8218369140625,-4.364699840545654,-6.311999797821045,6.894399642944336
1702212876700836900,21.8818369140625,-0.12770000100135803,-6.565899848937988,4.943399906158447
1702212876760836900,21.9418369140625,0.9372999668121338,-5.416800022125244,2.1634998321533203
1702212876820836900,22.0018369140625,1.4675999879837036,-6.460399627685547,-0.5274999737739563
1702212876880836900,22.0618369140625,3.186699867248535,-6.4664998054504395,-2.290099859237671
1702212876940836900,22.1218369140625,3.3665997982025146,-6.503699779510498,-4.386600017547607
1702212877000836900,22.1818369140625,3.6713998317718506,-6.044899940490723,-9.32759952545166
1702212877060836900,22.2418369140625,4.701200008392334,-4.3125996589660645,-11.723400115966797
1702212877120836900,22.3018369140625,3.2039999961853027,-9.684399604797363,-8.40429973602295
1702212877180836900,22.3618369140625,3.061199903488159,-6.732999801635742,-4.427599906921387
1702212877240836900,22.4218369140625,0.05509999766945839,-7.9542999267578125,-2.6243999004364014
1702212877300836900,22.4818369140625,0.6317999958992004,-6.706199645996094,1.2450000047683716
1702212877360836900,22.5418369140625,-0.2238999903202057,-4.855599880218506,6.53249979019165
1702212877420836900,22.6018369140625,-2.250999927520752,-4.065999984741211,7.001299858093262
1702212877480836900,22.6618369140625,-1.4550999402999878,-1.1881999969482422,10.054900169372559
1702212877540836900,22.7218369140625,-4.372799873352051,1.4804999828338623,11.92389965057373
1702212877600863500,22.781863525390627,-2.998199939727783,3.8444998264312744,11.109199523925781
1702212877660836900,22.8418369140625,-3.6970999240875244,1.5572999715805054,11.253799438476562
1702212877720836900,22.9018369140625,-2.3552000522613525,-2.6440999507904053,12.085599899291992
1702212877780836900,22.9618369140625,-2.0722999572753906,-8.103400230407715,8.507399559020996
1702212877840836900,23.0218369140625,0.6486999988555908,-8.50309944152832,5.444599628448486
1702212877900836900,23.0818369140625,1.1304999589920044,-7.410999774932861,1.291599988937378
1702212877960836900,23.1418369140625,2.0697999000549316,-6.890599727630615,-1.2258999347686768
1702212878020836900,23.2018369140625,3.064199924468994,-5.749799728393555,-3.421999931335449
1702212878080836900,23.2618369140625,3.5446999073028564,-6.739099979400635,-7.853099822998047
1702212878140836900,23.3218369140625,2.947700023651123,-9.018499374389648,-11.620599746704102
1702212878200836900,23.3818369140625,3.589099884033203,-6.78939962387085,-11.251599311828613
1702212878260836900,23.4418369140625,0.7646999955177307,-9.341300010681152,-5.832799911499023
1702212878320836900,23.5018369140625,0.9287999868392944,-7.803899765014648,-4.2941999435424805
1702212878380836900,23.5618369140625,0.8499999642372131,-6.528599739074707,-2.430299997329712
1702212878440836900,23.6218369140625,1.021399974822998,-5.410299777984619,1.3483999967575073
1702212878500836900,23.6818369140625,-0.14169999957084656,-5.219799995422363,4.917399883270264
1702212878560836900,23.7418369140625,-0.604699969291687,-4.046099662780762,5.360599994659424
1702212878620836900,23.8018369140625,-1.5134999752044678,-2.994999885559082,8.056699752807617
1702212878680836900,23.8618369140625,-2.9261999130249023,-1.0403000116348267,11.113999366760254
1702212878740836900,23.9218369140625,-6.247600078582764,-1.5008999109268188,13.101099967956543
1702212878800836900,23.9818369140625,-4.180699825286865,1.8463999032974243,13.500399589538574
1702212878860836900,24.0418369140625,-5.059999942779541,-2.57069993019104,9.23390007019043
1702212878920836900,24.1018369140625,-2.1108999252319336,-5.859099864959717,7.547399997711182
1702212878980836900,24.1618369140625,0.39329999685287476,-5.5966997146606445,4.10759973526001
1702212879040836900,24.2218369140625,0.10509999841451645,-7.100599765777588,1.2287999391555786
1702212879100836900,24.2818369140625,2.2953999042510986,-6.944499969482422,-0.29319998621940613
1702212879160836900,24.3418369140625,3.4510998725891113,-5.560199737548828,-1.4510999917984009
1702212879220836900,24.4018369140625,3.3464999198913574,-6.606899738311768,-4.5889997482299805
1702212879280836900,24.4618369140625,4.453499794006348,-6.5794997215271,-8.722899436950684
1702212879340836900,24.5218369140625,3.5170998573303223,-7.2901997566223145,-10.866000175476074
1702212879400836900,24.5818369140625,3.1720998287200928,-4.089799880981445,-8.707300186157227
1702212879460836900,24.6418369140625,-0.958899974822998,-6.860599994659424,-7.453799724578857
1702212879520836900,24.7018369140625,1.303399920463562,-8.690999984741211,-3.0623998641967773
1702212879580836900,24.7618369140625,1.8168998956680298,-7.731400012969971,0.5073999762535095
1702212879640836900,24.8218369140625,-1.1089999675750732,-6.739099979400635,5.798500061035156
1702212879700863500,24.881863525390624,-2.4881999492645264,-4.291500091552734,6.15809965133667
1702212879760836900,24.9418369140625,-2.184799909591675,-1.987899899482727,7.267099857330322
1702212879820836900,25.0018369140625,-4.002599716186523,-1.5936999320983887,10.856100082397461
1702212879880836900,25.0618369140625,-4.398099899291992,1.3691999912261963,13.406999588012695
1702212879940836900,25.1218369140625,-9.931099891662598,-2.322399854660034,10.934499740600586
1702212880000836900,25.1818369140625,-7.134899616241455,-3.233599901199341,11.791799545288086
1702212880060836900,25.2418369140625,-4.973499774932861,-8.98740005493164,5.498899936676025
1702212880120836900,25.3018369140625,-0.3416999876499176,-6.794399738311768,1.8095999956130981
1702212880180836900,25.3618369140625,2.0927000045776367,-4.643499851226807,-0.5462999939918518
1702212880240836900,25.4218369140625,1.8539999723434448,-5.819900035858154,-2.616499900817871
1702212880300836900,25.4818369140625,3.442699909210205,-5.990900039672852,-1.694000005722046
1702212880360836900,25.5418369140625,5.141299724578857,-5.643499851226807,-2.2181999683380127
1702212880420836900,25.6018369140625,7.605199813842773,-5.05679988861084,-7.026700019836426
1702212880480836900,25.6618369140625,3.569999933242798,-7.164899826049805,-11.253499984741211
1702212880540836900,25.7218369140625,2.7418999671936035,-6.927599906921387,-6.322700023651123
1702212880600836900,25.7818369140625,-0.45419999957084656,-7.338099956512451,-6.760900020599365
1702212880660836900,25.8418369140625,0.20709998905658722,-4.268700122833252,-4.492000102996826
1702212880720836900,25.9018369140625,0.4790000021457672,-3.797299861907959,-1.299399971961975
1702212880780836900,25.9618369140625,-0.7545999884605408,-4.875400066375732,3.5856997966766357
1702212880840836900,26.0218369140625,-0.7958999872207642,-3.5446999073028564,6.584199905395508
1702212880900836900,26.0818369140625,-1.7355999946594238,-1.5062999725341797,7.671199798583984
1702212880960836900,26.1418369140625,-5.396699905395508,0.09449999779462814,12.464399337768555
1702212881020836900,26.2018369140625,-5.52269983291626,0.32019999623298645,11.613899230957031
1702212881080836900,26.2618369140625,-3.9915997982025146,0.07069999724626541,12.035499572753906
1702212881140836900,26.3218369140625,-5.511300086975098,-4.396100044250488,10.172499656677246
1702212881200836900,26.3818369140625,-3.061300039291382,-8.82919979095459,7.8939995765686035
1702212881260836900,26.4418369140625,-0.20549999177455902,-8.201399803161621,2.925999879837036
1702212881320836900,26.5018369140625,1.3803999423980713,-7.286499977111816,-0.33480000495910645
1702212881380836900,26.5618369140625,3.1626999378204346,-6.376899719238281,-2.6510000228881836
1702212881440836900,26.6218369140625,4.687699794769287,-5.42009973526001,-4.199399948120117
1702212881500836900,26.6818369140625,5.47689962387085,-4.641200065612793,-7.267699718475342
1702212881560836900,26.7418369140625,3.8950998783111572,-6.387699604034424,-8.103699684143066
1702212881620836900,26.8018369140625,4.194699764251709,-5.960899829864502,-10.586799621582031
1702212881680836900,26.8618369140625,0.774399995803833,-8.24370002746582,-8.06309986114502
1702212881740836900,26.9218369140625,0.287200003862381,-8.67859935760498,-4.105400085449219
1702212881800863500,26.981863525390626,-0.12700000405311584,-8.952199935913086,-1.5454999208450317
1702212881860836900,27.0418369140625,0.10459999740123749,-5.731599807739258,3.1949000358581543
1702212881920836900,27.1018369140625,-0.8012999892234802,-3.6629998683929443,6.308099746704102
1702212881980836900,27.1618369140625,-0.7188999652862549,-3.4768998622894287,5.731299877166748
1702212882040836900,27.2218369140625,-0.11939999461174011,-1.1998000144958496,7.940399646759033
1702212882100836900,27.2818369140625,-1.6607999801635742,0.20189999043941498,10.977099418640137
1702212882160836900,27.3418369140625,-3.5518999099731445,0.8691999912261963,13.05459976196289
1702212882220836900,27.4018369140625,-4.740600109100342,0.7186999917030334,10.991799354553223
1702212882280836900,27.4618369140625,-5.215199947357178,-1.980699896812439,10.49389934539795
1702212882340836900,27.5218369140625,-3.6989998817443848,-7.954799652099609,7.8917999267578125
1702212882400836900,27.5818369140625,-0.8473999500274658,-8.128299713134766,3.9796998500823975
1702212882460836900,27.6418369140625,0.25429999828338623,-5.898200035095215,1.3192999362945557
1702212882520836900,27.7018369140625,1.6363999843597412,-6.71589994430542,-1.1720999479293823
1702212882580836900,27.7618369140625,3.497999906539917,-6.646100044250488,-2.8922998905181885
1702212882640836900,27.8218369140625,5.096399784088135,-5.6875,-6.092299938201904
1702212882700836900,27.8818369140625,4.111299991607666,-6.300600051879883,-11.450799942016602
1702212882760836900,27.9418369140625,4.580399990081787,-5.417900085449219,-8.104000091552734
1702212882820836900,28.0018369140625,1.709399938583374,-9.127999305725098,-8.340499877929688
1702212882880836900,28.0618369140625,2.3587000370025635,-7.2079997062683105,-4.444999694824219
1702212882940836900,28.1218369140625,-0.6789999604225159,-8.3125,-1.4469999074935913
1702212883000836900,28.1818369140625,-0.45819997787475586,-5.474400043487549,2.768199920654297
1702212883060836900,28.2418369140625,-0.9896999597549438,-3.1654999256134033,4.710700035095215
1702212883120836900,28.3018369140625,-1.9717999696731567,-2.875200033187866,4.469699859619141
1702212883180836900,28.3618369140625,-2.6054999828338623,-1.2335000038146973,6.6066999435424805
1702212883240836900,28.4218369140625,-4.746299743652344,1.0216000080108643,10.572599411010742
1702212883300836900,28.4818369140625,-4.846099853515625,0.8840000033378601,12.000800132751465
1702212883360836900,28.5418369140625,-3.5495998859405518,-0.6536999940872192,10.392799377441406
1702212883420836900,28.6018369140625,-4.742300033569336,-1.7060999870300293,11.644999504089355
1702212883480836900,28.6618369140625,-3.9738998413085938,-9.558099746704102,11.00629997253418
1702212883540836900,28.7218369140625,-0.4088999927043915,-9.294400215148926,5.264499664306641
1702212883600836900,28.7818369140625,-0.11219999939203262,-5.243099689483643,1.888700008392334
1702212883660836900,28.8418369140625,0.125,-6.858500003814697,-2.2649998664855957
1702212883720836900,28.9018369140625,2.6808998584747314,-7.367300033569336,-3.920799970626831
1702212883780836900,28.9618369140625,4.089699745178223,-5.824399948120117,-6.699199676513672
1702212883840836900,29.0218369140625,4.2002997398376465,-5.725499629974365,-8.76140022277832
1702212883900863500,29.081863525390624,3.9061999320983887,-5.514499664306641,-11.54539966583252
1702212883960836900,29.1418369140625,0.8580999970436096,-8.031599998474121,-9.352799415588379
1702212884020836900,29.2018369140625,-1.0789999961853027,-8.407999992370605,-4.424799919128418
1702212884080836900,29.2618369140625,-0.25429999828338623,-9.279199600219727,-2.485299825668335
1702212884140836900,29.3218369140625,0.7691999673843384,-6.16540002822876,0.9874999523162842
1702212884200836900,29.3818369140625,-1.9232999086380005,-5.564300060272217,4.00629997253418
1702212884260836900,29.4418369140625,-1.6042999029159546,-3.425999879837036,6.882599830627441
1702212884320836900,29.5018369140625,-1.5367999076843262,-1.5762999057769775,7.573699951171875
1702212884380836900,29.5618369140625,-0.1370999962091446,-0.4251999855041504,10.39680004119873
1702212884440836900,29.6218369140625,2.352099895477295,0.11050000041723251,16.35409927368164
1702212884500836900,29.6818369140625,0.46859997510910034,-1.218500018119812,12.329299926757812
1702212884560836900,29.7418369140625,-3.0075998306274414,-6.3130998611450195,13.583799362182617
1702212884620836900,29.8018369140625,-3.823499917984009,-10.20319938659668,8.154899597167969
1702212884680836900,29.8618369140625,-1.466499924659729,-7.602099895477295,3.5038998126983643
1702212884740836900,29.9218369140625,-0.5800999999046326,-6.922799587249756,0.33899998664855957
1702212884800836900,29.9818369140625,1.3537999391555786,-6.74459981918335,-1.042199969291687
1702212884860836900,30.0418369140625,2.8422000408172607,-6.283999919891357,-2.323499917984009
1702212884920836900,30.1018369140625,4.230499744415283,-7.874499797821045,-5.496099948883057
1702212884980836900,30.1618369140625,4.787199974060059,-7.004799842834473,-12.219799995422363
1702212885040836900,30.2218369140625,5.0030999183654785,-5.954899787902832,-11.231800079345703
1702212885100836900,30.2818369140625,1.1905999183654785,-8.553400039672852,-10.07919979095459
1702212885160836900,30.3418369140625,-2.1068999767303467,-10.822400093078613,-5.951499938964844
1702212885220836900,30.4018369140625,-1.2410999536514282,-9.421199798583984,-3.2619998455047607
1702212885280836900,30.4618369140625,0.15529999136924744,-5.234499931335449,0.42989999055862427
1702212885340836900,30.5218369140625,-2.441200017929077,-5.385799884796143,2.711599826812744
1702212885400836900,30.5818369140625,-2.1324000358581543,-5.384699821472168,4.9639997482299805
1702212885460836900,30.6418369140625,-2.534600019454956,-2.9303998947143555,7.892999649047852
1702212885520836900,30.7018369140625,-4.727299690246582,0.7026000022888184,10.015199661254883
1702212885580836900,30.7618369140625,-7.811899662017822,0.9239999651908875,12.070300102233887
1702212885640836900,30.8218369140625,-6.5214996337890625,-0.786300003528595,13.223699569702148
1702212885700836900,30.8818369140625,-7.616999626159668,-0.8306999802589417,12.721399307250977
1702212885760836900,30.9418369140625,-7.154399871826172,-6.967700004577637,9.253999710083008
1702212885820836900,31.0018369140625,-4.57289981842041,-10.529699325561523,7.134399890899658
1702212885880836900,31.0618369140625,-1.5633000135421753,-9.631599426269531,3.826399803161621
1702212885940836900,31.1218369140625,0.1785999983549118,-10.3843994140625,0.5916999578475952
1702212886000863500,31.181863525390625,3.3492000102996826,-9.718199729919434,-0.7443999648094177
1702212886060836900,31.2418369140625,5.723299980163574,-8.57349967956543,-2.6586999893188477
1702212886120836900,31.3018369140625,6.036399841308594,-4.592199802398682,-10.9128999710083
1702212886180836900,31.3618369140625,9.934999465942383,-7.1713995933532715,-8.169400215148926
1702212886240836900,31.4218369140625,6.007099628448486,-9.479299545288086,-6.850100040435791
1702212886300836900,31.4818369140625,1.1425999402999878,-8.017099380493164,-6.08519983291626
1702212886360836900,31.5418369140625,-0.15929999947547913,-7.265100002288818,-2.1963000297546387
1702212886420836900,31.6018369140625,3.024899959564209,-8.578999519348145,-2.6963999271392822
1702212886480836900,31.6618369140625,2.949699878692627,-7.35159969329834,-1.2343999147415161
1702212886540836900,31.7218369140625,-2.947399854660034,-8.381799697875977,1.614300012588501
1702212886600836900,31.7818369140625,-7.5690999031066895,-6.859099864959717,10.40839958190918
1702212886660836900,31.8418369140625,-8.181499481201172,-1.1525999307632446,10.028900146484375
1702212886720836900,31.9018369140625,-5.039899826049805,0.552299976348877,9.5339994430542
1702212886780836900,31.9618369140625,-3.118299961090088,0.6175999641418457,13.019099235534668
1702212886840836900,32.0218369140625,-4.091599941253662,-0.06839999556541443,13.728399276733398
1702212886900836900,32.0818369140625,-3.9457998275756836,0.03219999745488167,10.178299903869629
1702212886960836900,32.1418369140625,-5.239500045776367,-4.604799747467041,7.904099941253662
1702212887020836900,32.2018369140625,-4.403500080108643,-9.978799819946289,6.1296000480651855
1702212887080836900,32.2618369140625,-1.0335999727249146,-11.058699607849121,3.1801998615264893
1702212887140836900,32.3218369140625,1.386099934577942,-8.014100074768066,0.6660999655723572
1702212887200836900,32.3818369140625,2.5871999263763428,-6.8867998123168945,-1.5549999475479126
1702212887260836900,32.4418369140625,4.632599830627441,-6.046899795532227,-5.044399738311768
1702212887320836900,32.5018369140625,5.120100021362305,-4.651299953460693,-11.045199394226074
1702212887380836900,32.5618369140625,5.149499893188477,-4.919399738311768,-10.602799415588379
1702212887440836900,32.6218369140625,2.5483999252319336,-8.042699813842773,-11.702300071716309
1702212887500836900,32.6818369140625,1.212999939918518,-9.531700134277344,-7.703499794006348
1702212887560836900,32.7418369140625,-0.023499999195337296,-10.555699348449707,-3.3561999797821045
1702212887620836900,32.8018369140625,-0.1379999965429306,-10.248799324035645,-1.3149999380111694
1702212887680836900,32.8618369140625,-0.23839999735355377,-5.580999851226807,2.4677000045776367
1702212887740836900,32.9218369140625,-1.9138998985290527,-6.09660005569458,3.7035999298095703
1702212887800836900,32.9818369140625,-0.7037999629974365,-6.423599720001221,6.597799777984619
1702212887860836900,33.0418369140625,0.061400000005960464,-4.029799938201904,9.180899620056152
1702212887920836900,33.1018369140625,-1.0174000263214111,-1.2578999996185303,11.119999885559082
1702212887980836900,33.1618369140625,-3.5107998847961426,0.3992999792098999,16.580799102783203
1702212888040836900,33.2218369140625,-4.046999931335449,-0.40049999952316284,11.375100135803223
1702212888100863500,33.28186352539063,-6.447399616241455,-1.648800015449524,11.782699584960938
1702212888160836900,33.3418369140625,-5.356899738311768,-7.354699611663818,9.280699729919434
1702212888220836900,33.4018369140625,-3.727099895477295,-10.986000061035156,3.7142999172210693
1702212888280836900,33.4618369140625,-0.13169999420642853,-7.422099590301514,0.7112999558448792
1702212888340836900,33.5218369140625,2.6263999938964844,-5.668099880218506,-1.650999903678894
1702212888400836900,33.5818369140625,2.697999954223633,-4.94189977645874,-2.5428998470306396
1702212888460836900,33.6418369140625,4.630399703979492,-5.314300060272217,-1.9404000043869019
1702212888520836900,33.7018369140625,6.689499855041504,-6.334499835968018,-3.978599786758423
1702212888580836900,33.7618369140625,6.86359977722168,-5.1946001052856445,-7.980899810791016
1702212888640836900,33.8218369140625,4.732399940490723,-5.932499885559082,-10.500499725341797
1702212888700836900,33.8818369140625,2.3515000343322754,-7.986499786376953,-6.707499980926514
1702212888760836900,33.9418369140625,1.3101999759674072,-7.853999614715576,-2.8123998641967773
1702212888820836900,34.0018369140625,-0.22949999570846558,-7.9721999168396,-1.6137999296188354
1702212888880836900,34.0618369140625,-0.15850000083446503,-4.146100044250488,2.961699962615967
1702212888940836900,34.1218369140625,-2.584699869155884,-3.6902999877929688,4.121500015258789
1702212889000836900,34.1818369140625,-2.7386999130249023,-3.95169997215271,5.961799621582031
1702212889060836900,34.2418369140625,-3.3748998641967773,-1.5981999635696411,8.86989974975586
1702212889120836900,34.3018369140625,-6.771199703216553,0.3621000051498413,9.385899543762207
1702212889180836900,34.3618369140625,-7.828399658203125,0.9621999859809875,7.901599884033203
1702212889240836900,34.4218369140625,-6.944999694824219,-0.763700008392334,8.847799301147461
1702212889300836900,34.4818369140625,-4.771999835968018,-1.326300024986267,8.554299354553223
1702212889360836900,34.5418369140625,-4.8958001136779785,-4.083699703216553,6.814300060272217
1702212889420836900,34.6018369140625,-3.569499969482422,-7.11359977722168,6.481199741363525
1702212889480836900,34.6618369140625,-0.3253999948501587,-5.986599922180176,3.794600009918213
1702212889540836900,34.7218369140625,0.9351999759674072,-6.0457000732421875,0.5673999786376953
1702212889600836900,34.7818369140625,2.899099826812744,-6.691699981689453,-1.2479000091552734
1702212889660836900,34.8418369140625,4.646500110626221,-6.335899829864502,-2.197399854660034
1702212889720836900,34.9018369140625,5.608599662780762,-6.403599739074707,-7.608099937438965
1702212889780836900,34.9618369140625,6.124599933624268,-4.308300018310547,-13.7391996383667
1702212889840836900,35.0218369140625,4.233299732208252,-7.7475996017456055,-9.455699920654297
1702212889900836900,35.0818369140625,2.0188000202178955,-8.811299324035645,-4.097899913787842
1702212889960836900,35.1418369140625,-0.5076999664306641,-9.10830020904541,-1.9254999160766602
1702212890020836900,35.2018369140625,0.16030000150203705,-5.920499801635742,1.0328999757766724
1702212890080836900,35.2618369140625,-0.6243000030517578,-3.3802998065948486,2.7050998210906982
1702212890140836900,35.3218369140625,-3.248999834060669,-2.682499885559082,4.628699779510498
1702212890200863500,35.38186352539063,-5.182600021362305,-1.4508999586105347,8.11870002746582
1702212890260836900,35.4418369140625,-6.549200057983398,0.7197999954223633,8.343099594116211
1702212890320836900,35.5018369140625,-7.079399585723877,1.6341999769210815,8.783899307250977
1702212890380836900,35.5618369140625,-5.303099632263184,1.5870999097824097,8.266300201416016
1702212890440836900,35.6218369140625,-5.074899673461914,-0.5239999890327454,8.819299697875977
1702212890500836900,35.6818369140625,-4.657700061798096,-3.4375998973846436,7.783299922943115
1702212890560836900,35.7418369140625,-4.103099822998047,-8.056099891662598,6.440000057220459
1702212890620836900,35.8018369140625,-0.8149999976158142,-8.434199333190918,4.255499839782715
1702212890680836900,35.8618369140625,1.589900016784668,-6.196300029754639,0.503600001335144
1702212890740836900,35.9218369140625,2.389400005340576,-6.01230001449585,-1.7108999490737915
1702212890800836900,35.9818369140625,4.098199844360352,-5.592799663543701,-3.546099901199341
1702212890860836900,36.0418369140625,5.747399806976318,-4.280299663543701,-7.22029972076416
1702212890920836900,36.1018369140625,5.532299995422363,-4.3302998542785645,-10.463399887084961
1702212890980836900,36.1618369140625,4.862599849700928,-4.6128997802734375,-9.392199516296387
1702212891040836900,36.2218369140625,2.3685998916625977,-7.55679988861084,-7.156199932098389
1702212891100836900,36.2818369140625,-0.004999999888241291,-9.12869930267334,-4.366699695587158
1702212891160836900,36.3418369140625,-1.9175999164581299,-10.679800033569336,-1.051800012588501
1702212891220836900,36.4018369140625,-0.646399974822998,-5.797499656677246,3.4520998001098633
1702212891280836900,36.4618369140625,-1.4625999927520752,-2.006999969482422,3.042099952697754
1702212891340836900,36.5218369140625,-1.5164999961853027,-2.7958998680114746,3.139899969100952
1702212891400836900,36.5818369140625,-1.6775000095367432,-2.8752999305725098,8.530099868774414
1702212891460836900,36.6418369140625,-3.3066999912261963,-0.07409999519586563,10.67859935760498
1702212891520836900,36.7018369140625,-5.753599643707275,0.5347999930381775,9.234600067138672
1702212891580836900,36.7618369140625,-4.931999683380127,0.7447999715805054,9.65530014038086
1702212891640836900,36.8218369140625,-5.009799957275391,-0.1670999974012375,8.793999671936035
1702212891700836900,36.8818369140625,-4.2241997718811035,-1.469599962234497,7.0406999588012695
1702212891760836900,36.9418369140625,-4.372399806976318,-6.360499858856201,5.287099838256836
1702212891820836900,37.0018369140625,-1.0305999517440796,-6.703099727630615,3.1057000160217285
1702212891880836900,37.0618369140625,0.913100004196167,-4.256099700927734,1.4735000133514404
1702212891940836900,37.1218369140625,1.729200005531311,-3.3683998584747314,-0.13199999928474426
1702212892000836900,37.1818369140625,3.4278998374938965,-4.081599712371826,-1.2283999919891357
1702212892060836900,37.2418369140625,3.9839999675750732,-3.846299886703491,-2.7331998348236084
1702212892120836900,37.3018369140625,3.4500999450683594,-4.85699987411499,-4.513599872589111
1702212892180836900,37.3618369140625,4.61870002746582,-4.141499996185303,-6.114199638366699
1702212892240836900,37.4218369140625,2.9445998668670654,-5.579099655151367,-8.160799980163574
1702212892300863500,37.48186352539062,3.3481998443603516,-5.3919997215271,-6.2841997146606445
1702212892360836900,37.5418369140625,0.5360999703407288,-8.383699417114258,-6.442899703979492
1702212892420836900,37.6018369140625,-0.40389999747276306,-7.689799785614014,-1.6952999830245972
1702212892480836900,37.6618369140625,-0.35830000042915344,-3.165799856185913,3.1945998668670654
1702212892540836900,37.7218369140625,-3.248199939727783,-1.809999942779541,6.790999889373779
1702212892600836900,37.7818369140625,-2.058199882507324,-2.127699851989746,5.283299922943115
1702212892660836900,37.8418369140625,-0.6315999627113342,-0.06689999997615814,6.891499996185303
1702212892720836900,37.9018369140625,-4.564199924468994,-0.09479999542236328,8.772199630737305
1702212892780836900,37.9618369140625,-3.9141998291015625,0.705299973487854,9.160099983215332
1702212892840836900,38.0218369140625,-4.3668999671936035,1.1215999126434326,7.8227996826171875
1702212892900836900,38.0818369140625,-5.7440996170043945,-0.9894999861717224,9.19729995727539
1702212892960836900,38.1418369140625,-4.411600112915039,-7.249699592590332,8.363999366760254
1702212893020836900,38.2018369140625,-0.9583999514579773,-7.779699802398682,4.109399795532227
1702212893080836900,38.2618369140625,1.939099907875061,-4.429800033569336,1.1461999416351318
1702212893140836900,38.3218369140625,1.9917999505996704,-4.21019983291626,-1.236299991607666
1702212893200836900,38.3818369140625,3.1470999717712402,-5.610899925231934,-2.386699914932251
1702212893260836900,38.4418369140625,3.467599868774414,-7.2764997482299805,-3.457399845123291
1702212893320836900,38.5018369140625,5.0868000984191895,-6.149499893188477,-8.559000015258789
1702212893380836900,38.5618369140625,3.8404998779296875,-2.592099905014038,-13.328999519348145
1702212893440836900,38.6218369140625,2.4632999897003174,-6.514800071716309,-10.242300033569336
1702212893500836900,38.6818369140625,3.334399938583374,-7.642399787902832,-3.9385998249053955
1702212893560836900,38.7418369140625,0.9096999764442444,-9.894299507141113,-1.3055999279022217
1702212893620836900,38.8018369140625,0.9139999747276306,-6.221799850463867,3.2893998622894287
1702212893680836900,38.8618369140625,-0.7583000063896179,-3.8578999042510986,5.458799839019775
1702212893740836900,38.9218369140625,-1.0090999603271484,-4.973700046539307,5.064899921417236
1702212893800836900,38.9818369140625,-0.7190999984741211,-3.3509998321533203,7.375199794769287
1702212893860836900,39.0418369140625,-3.7269999980926514,-1.2222999334335327,7.204799652099609
1702212893920836900,39.1018369140625,-9.719099998474121,0.29909998178482056,11.376799583435059
1702212893980836900,39.1618369140625,-9.895999908447266,2.4629998207092285,11.525300025939941
1702212894040836900,39.2218369140625,-8.625299453735352,1.9375,10.755799293518066
1702212894100836900,39.2818369140625,-7.7891998291015625,-6.958899974822998,10.365399360656738
1702212894160836900,39.3418369140625,-4.717199802398682,-12.524099349975586,6.991600036621094
1702212894220836900,39.4018369140625,-0.5755999684333801,-8.738699913024902,2.911799907684326
1702212894280836900,39.4618369140625,1.1309999227523804,-6.65310001373291,-0.48169997334480286
1702212894340836900,39.5218369140625,2.6445000171661377,-7.414000034332275,-2.386899948120117
1702212894400863500,39.581863525390624,4.647299766540527,-7.622299671173096,-2.743499994277954
1702212894460836900,39.6418369140625,6.383599758148193,-7.673099994659424,-5.106899738311768
1702212894520836900,39.7018369140625,7.120100021362305,-5.627099990844727,-12.393399238586426
1702212894580836900,39.7618369140625,3.67579984664917,-7.416800022125244,-14.377299308776855
1702212894640836900,39.8218369140625,-0.6485999822616577,-8.84060001373291,-7.445899963378906
1702212894700836900,39.8818369140625,-2.9951999187469482,-10.192399978637695,-1.5788999795913696
1702212894760836900,39.9418369140625,-0.7436999678611755,-7.937199592590332,0.429999977350235
1702212894820836900,40.0018369140625,-0.4966999888420105,-3.553499937057495,2.732599973678589
1702212894880836900,40.0618369140625,-1.902999997138977,-2.5871999263763428,2.5462000370025635
1702212894940836900,40.1218369140625,-1.6363999843597412,-3.6514999866485596,5.214900016784668
1702212895000836900,40.1818369140625,-3.5404000282287598,-2.539299964904785,12.888999938964844
1702212895060836900,40.2418369140625,-5.047100067138672,0.9440999627113342,14.879199981689453
1702212895120836900,40.3018369140625,-6.150199890136719,0.24799999594688416,11.573899269104004
1702212895180836900,40.3618369140625,-7.103299617767334,1.6222999095916748,10.73859977722168
1702212895240836900,40.4218369140625,-3.0276999473571777,-3.1476998329162598,9.272699356079102
1702212895300836900,40.4818369140625,-2.2418999671936035,-5.976199626922607,6.925600051879883
1702212895360836900,40.5418369140625,-2.3150999546051025,-8.501299858093262,4.517699718475342
1702212895420836900,40.6018369140625,1.1560999155044556,-7.76099967956543,3.1201999187469482
1702212895480836900,40.6618369140625,3.4310998916625977,-5.019499778747559,-0.026799999177455902
1702212895540836900,40.7218369140625,3.6982998847961426,-4.96429967880249,-1.487299919128418
1702212895600836900,40.7818369140625,5.732100009918213,-5.351999759674072,-2.086699962615967
1702212895660836900,40.8418369140625,5.972399711608887,-6.172999858856201,-2.699399948120117
1702212895720836900,40.9018369140625,6.14709997177124,-6.398499965667725,-7.6596999168396
1702212895780836900,40.9618369140625,3.6357998847961426,-7.299499988555908,-12.838399887084961
1702212895840836900,41.0218369140625,-0.4729999899864197,-7.423299789428711,-8.893499374389648
1702212895900836900,41.0818369140625,-1.1622999906539917,-8.200799942016602,-3.7617998123168945
1702212895960836900,41.1418369140625,1.1085000038146973,-8.609899520874023,-1.8638999462127686
1702212896020836900,41.2018369140625,-0.22859999537467957,-6.857399940490723,3.2553999423980713
1702212896080836900,41.2618369140625,-2.2921998500823975,-3.7084999084472656,9.438300132751465
1702212896140836900,41.3218369140625,-2.8317999839782715,-0.6366999745368958,7.871199607849121
1702212896200836900,41.3818369140625,-3.4563000202178955,2.0388998985290527,10.548699378967285
1702212896260836900,41.4418369140625,-3.6325998306274414,3.017699956893921,12.641200065612793
1702212896320836900,41.5018369140625,-3.5172998905181885,1.9613999128341675,10.588500022888184
1702212896380836900,41.5618369140625,-1.1589000225067139,-0.2777000069618225,7.3501996994018555
1702212896440836900,41.6218369140625,-3.4639999866485596,-4.656199932098389,7.217299938201904
1702212896500863500,41.681863525390625,-1.506500005722046,-6.274399757385254,8.184599876403809
1702212896560836900,41.7418369140625,-1.799299955368042,-9.539999961853027,3.851599931716919
1702212896620836900,41.8018369140625,1.2745999097824097,-5.5625996589660645,0.5199999809265137
1702212896680836900,41.8618369140625,2.050299882888794,-4.307199954986572,-2.5012998580932617
1702212896740836900,41.9218369140625,2.4983999729156494,-4.600899696350098,-4.953000068664551
1702212896800836900,41.9818369140625,3.302299976348877,-3.260699987411499,-6.519899845123291
1702212896860836900,42.0418369140625,3.8203999996185303,-2.3446998596191406,-11.128299713134766
1702212896920836900,42.1018369140625,0.7784000039100647,-4.651299953460693,-8.965999603271484
1702212896980836900,42.1618369140625,0.698199987411499,-5.607699871063232,-7.844499588012695
1702212897040836900,42.2218369140625,0.9277999997138977,-7.785499572753906,-3.6743998527526855
1702212897100836900,42.2818369140625,-1.6904000043869019,-10.275699615478516,-0.8234999775886536
1702212897160836900,42.3418369140625,-1.1893999576568604,-8.182299613952637,5.5518999099731445
1702212897220836900,42.4018369140625,0.4664999842643738,-1.2932000160217285,4.2704997062683105
1702212897280836900,42.4618369140625,0.5947999954223633,-0.08669999986886978,2.754199981689453
1702212897340836900,42.5218369140625,1.6872999668121338,-1.4649999141693115,4.374399662017822
1702212897400836900,42.5818369140625,-0.3360999822616577,-0.769599974155426,11.776199340820312
1702212897460836900,42.6418369140625,-2.9907000064849854,1.355799913406372,14.149499893188477
1702212897520836900,42.7018369140625,-1.6358000040054321,0.574400007724762,10.626899719238281
1702212897580836900,42.7618369140625,-1.1606999635696411,-0.07639999687671661,9.799200057983398
1702212897640836900,42.8218369140625,-3.6679999828338623,-5.193999767303467,8.936599731445312
1702212897700836900,42.8818369140625,-2.5976998805999756,-9.970699310302734,8.280399322509766
1702212897760836900,42.9418369140625,-1.8080999851226807,-7.665999889373779,3.4218997955322266
1702212897820836900,43.0018369140625,1.6578999757766724,-6.923099994659424,-0.9921999573707581
1702212897880836900,43.0618369140625,2.6669998168945312,-6.3217997550964355,-3.1290998458862305
1702212897940836900,43.1218369140625,4.336299896240234,-4.759500026702881,-6.69980001449585
1702212898000836900,43.1818369140625,5.330899715423584,-3.686499834060669,-11.5625
1702212898060836900,43.2418369140625,5.827199935913086,-5.77869987487793,-10.440999984741211
1702212898120836900,43.3018369140625,3.7834999561309814,-7.346399784088135,-8.943399429321289
1702212898180836900,43.3618369140625,0.5580999851226807,-7.221799850463867,-4.671899795532227
1702212898240836900,43.4218369140625,-0.5572999715805054,-8.877299308776855,-0.5069000124931335
1702212898300836900,43.4818369140625,0.6909999847412109,-8.735499382019043,2.844599962234497
1702212898360836900,43.5418369140625,0.3280999958515167,-4.953499794006348,2.7279999256134033
1702212898420836900,43.6018369140625,-0.5044000148773193,-3.0493998527526855,3.292099952697754
1702212898480836900,43.6618369140625,-0.45260000228881836,-2.4940998554229736,5.904699802398682
1702212898540836900,43.7218369140625,-1.590499997138977,-0.8014999628067017,11.20989990234375
1702212898600836900,43.7818369140625,-1.650499939918518,0.8610999584197998,11.341699600219727
1702212898660836900,43.8418369140625,-1.9447999000549316,0.5928999781608582,14.132899284362793
1702212898720836900,43.9018369140625,-4.259599685668945,-1.8633999824523926,12.365499496459961
1702212898780836900,43.9618369140625,-1.8544999361038208,-1.747399926185608,10.964699745178223
1702212898840836900,44.0218369140625,-3.710599899291992,-8.665399551391602,6.7530999183654785
1702212898900836900,44.0818369140625,-1.08079993724823,-10.899399757385254,5.897500038146973
1702212898960836900,44.1418369140625,-0.023599999025464058,-8.10260009765625,1.3920999765396118
1702212899020836900,44.2018369140625,1.8633999824523926,-7.130799770355225,-1.7674999237060547
1702212899080836900,44.2618369140625,3.7903997898101807,-6.73859977722168,-3.483599901199341
1702212899140836900,44.3218369140625,5.8308000564575195,-5.2953996658325195,-5.116199970245361
1702212899200836900,44.3818369140625,6.441099643707275,-4.635200023651123,-9.624499320983887
1702212899260836900,44.4418369140625,5.126199722290039,-5.018799781799316,-10.4266996383667
1702212899320836900,44.5018369140625,2.7303998470306396,-7.9427995681762695,-8.153299331665039
1702212899380836900,44.5618369140625,1.6412999629974365,-7.336899757385254,-5.768699645996094
1702212899440836900,44.6218369140625,-2.7035999298095703,-10.994500160217285,-2.832900047302246
1702212899500836900,44.6818369140625,-3.7751998901367188,-9.984899520874023,2.9442999362945557
1702212899560836900,44.7418369140625,-1.6480000019073486,-1.9270999431610107,4.80620002746582
1702212899620836900,44.8018369140625,-4.020299911499023,-0.8245999813079834,1.9365999698638916
1702212899680836900,44.8618369140625,-0.3912999927997589,-1.7384999990463257,5.171499729156494
1702212899740836900,44.9218369140625,-1.511299967765808,-0.9764999747276306,11.554499626159668
1702212899800836900,44.9818369140625,-4.939499855041504,1.0648000240325928,11.64169979095459
1702212899860836900,45.0418369140625,-6.749699592590332,0.4059000015258789,11.963199615478516
1702212899920836900,45.1018369140625,-3.330399990081787,-0.9243999719619751,11.625499725341797
1702212899980836900,45.1618369140625,-3.2360999584198,-3.414099931716919,7.782899856567383
1702212900040836900,45.2218369140625,-2.614300012588501,-6.611599922180176,7.871799945831299
1702212900100836900,45.2818369140625,-1.5434999465942383,-8.6003999710083,4.949899673461914
1702212900160836900,45.3418369140625,0.9892999529838562,-7.734899997711182,0.9513999819755554
1702212900220863500,45.401863525390624,2.4898998737335205,-7.1840996742248535,-0.9817999601364136
1702212900280836900,45.4618369140625,4.257299900054932,-6.566999912261963,-2.1838998794555664
1702212900340836900,45.5218369140625,5.504499912261963,-5.780200004577637,-3.738600015640259
1702212900400836900,45.5818369140625,5.33489990234375,-6.41949987411499,-9.890799522399902
1702212900460836900,45.6418369140625,4.677499771118164,-5.428899765014648,-11.194999694824219
1702212900520836900,45.7018369140625,0.9591999650001526,-7.3572998046875,-9.950799942016602
1702212900580836900,45.7618369140625,0.6586999893188477,-10.680099487304688,-5.693699836730957
1702212900640836900,45.8218369140625,-3.019899845123291,-10.546500205993652,-2.519199848175049
1702212900700863500,45.88186352539063,-4.925899982452393,-9.922499656677246,3.932799816131592
1702212900760836900,45.9418369140625,-1.5549999475479126,-3.2057998180389404,9.641399383544922
1702212900820836900,46.0018369140625,-3.797499895095825,-0.8096999526023865,5.0102996826171875
1702212900880836900,46.0618369140625,0.23809999227523804,-0.5917999744415283,6.67009973526001
1702212900940836900,46.1218369140625,0.5719000101089478,1.4808999300003052,14.064599990844727
1702212901000836900,46.1818369140625,-2.3810999393463135,4.37969970703125,13.144899368286133
1702212901060836900,46.2418369140625,-3.1656999588012695,1.8802999258041382,11.562199592590332
1702212901120836900,46.3018369140625,-2.5506999492645264,0.09239999949932098,10.728599548339844
1702212901180836900,46.3618369140625,-1.813599944114685,-2.8005998134613037,8.450300216674805
1702212901240836900,46.4218369140625,-2.928999900817871,-9.102299690246582,8.659199714660645
1702212901300836900,46.4818369140625,-3.286799907684326,-12.433799743652344,6.250999927520752
1702212901360836900,46.5418369140625,0.7690999507904053,-9.577400207519531,0.6597999930381775
1702212901420836900,46.6018369140625,1.5169999599456787,-6.811399936676025,-1.8833999633789062
1702212901480836900,46.6618369140625,2.6784000396728516,-7.152899742126465,-4.20959997177124
1702212901540836900,46.7218369140625,4.302999973297119,-6.429999828338623,-8.056699752807617
1702212901600836900,46.7818369140625,4.886199951171875,-3.5181000232696533,-18.10809898376465
1702212901660836900,46.8418369140625,4.591899871826172,-7.911899566650391,-10.267899513244629
1702212901720836900,46.9018369140625,1.9023998975753784,-11.215099334716797,-5.465799808502197
1702212901780836900,46.9618369140625,-3.187700033187866,-9.239500045776367,-2.646399974822998
1702212901840836900,47.0218369140625,-4.774600028991699,-7.8414998054504395,0.8939999938011169
1702212901900836900,47.0818369140625,-1.8560999631881714,-7.034999847412109,1.173699975013733
1702212901960836900,47.1418369140625,-1.5444999933242798,-3.066999912261963,3.823199987411499
1702212902020836900,47.2018369140625,-3.4998998641967773,0.8504999876022339,4.43149995803833
1702212902080836900,47.2618369140625,0.4925999939441681,-0.5746999979019165,6.030999660491943
1702212902140836900,47.3218369140625,-0.5934999585151672,0.2653999924659729,10.600699424743652
1702212902200836900,47.3818369140625,-0.8149999976158142,1.0784999132156372,11.615499496459961
1702212902260836900,47.4418369140625,-1.4114999771118164,1.6944999694824219,10.75369930267334
1702212902320836900,47.5018369140625,-2.155099868774414,-1.3934999704360962,13.69950008392334
1702212902380836900,47.5618369140625,-4.046799659729004,-5.036499977111816,8.258600234985352
1702212902440836900,47.6218369140625,-2.0371999740600586,-7.998199939727783,6.302299976348877
1702212902500836900,47.6818369140625,-0.037299998104572296,-6.380399703979492,2.9601998329162598
1702212902560836900,47.7418369140625,0.6169999837875366,-4.638099670410156,0.10289999842643738
1702212902620836900,47.8018369140625,2.062199831008911,-5.628499984741211,-1.9878000020980835
1702212902680836900,47.8618369140625,3.8464999198913574,-5.876899719238281,-3.5992000102996826
1702212902740836900,47.9218369140625,5.385900020599365,-4.411099910736084,-8.606499671936035
1702212902800863500,47.98186352539062,4.115999698638916,-4.463299751281738,-11.837200164794922
1702212902860836900,48.0418369140625,2.717599868774414,-8.323200225830078,-7.58459997177124
1702212902920836900,48.1018369140625,0.5792999863624573,-8.609999656677246,-5.502099990844727
1702212902980836900,48.1618369140625,-1.9921000003814697,-8.100299835205078,-2.069700002670288
1702212903040836900,48.2218369140625,-0.5238000154495239,-5.671499729156494,0.19209998846054077
1702212903100836900,48.2818369140625,0.046299997717142105,-2.6157000064849854,0.7730000019073486
1702212903160836900,48.3418369140625,-1.055999994277954,-1.6461999416351318,2.748199939727783
1702212903220863500,48.401863525390624,-1.4961999654769897,-2.839599847793579,6.593100070953369
1702212903280836900,48.4618369140625,-2.4941999912261963,0.439300000667572,10.238999366760254
1702212903340836900,48.5218369140625,-5.7953996658325195,1.3065999746322632,10.333000183105469
1702212903400836900,48.5818369140625,-3.184799909591675,0.1354999989271164,12.589499473571777
1702212903460836900,48.6418369140625,-3.99429988861084,1.2135000228881836,11.763099670410156
1702212903520836900,48.7018369140625,-6.230000019073486,-5.286900043487549,11.223999977111816
1702212903580836900,48.7618369140625,-3.312700033187866,-8.772500038146973,7.812699794769287
1702212903640836900,48.8218369140625,-0.6360999941825867,-6.350499629974365,3.3248000144958496
1702212903700836900,48.8818369140625,0.3294999897480011,-5.792999744415283,0.2557999789714813
1702212903760836900,48.9418369140625,2.20389986038208,-6.86870002746582,-1.4208999872207642
1702212903820836900,49.0018369140625,3.825399875640869,-6.346099853515625,-3.4577999114990234
1702212903880836900,49.0618369140625,4.422399997711182,-4.918799877166748,-9.876500129699707
1702212903940836900,49.1218369140625,5.631700038909912,-5.471499919891357,-10.673099517822266
1702212904000836900,49.1818369140625,4.8379998207092285,-7.369499683380127,-9.359600067138672
1702212904060836900,49.2418369140625,1.4477999210357666,-8.198800086975098,-5.751399993896484
1702212904120836900,49.3018369140625,-1.7094999551773071,-9.12869930267334,-1.8910999298095703
1702212904180836900,49.3618369140625,-0.9827999472618103,-8.217899322509766,1.2167999744415283
1702212904240836900,49.4218369140625,-1.1115999221801758,-4.316400051116943,2.6561999320983887
1702212904300836900,49.4818369140625,-2.7265000343322754,-1.7426999807357788,2.849799871444702
1702212904360836900,49.5418369140625,-2.2711000442504883,-1.34499990940094,5.20359992980957
1702212904420836900,49.6018369140625,-3.1201000213623047,0.02499999850988388,10.344799995422363
1702212904480836900,49.6618369140625,-4.71429967880249,2.9826998710632324,10.969099998474121
1702212904540836900,49.7218369140625,-5.03309965133667,2.0295000076293945,11.189599990844727
1702212904600836900,49.7818369140625,-5.16540002822876,-1.3040000200271606,11.776999473571777
1702212904660836900,49.8418369140625,-2.2904000282287598,-1.852099895477295,9.637199401855469
1702212904720836900,49.9018369140625,-2.825399875640869,-4.450099945068359,6.446599960327148
1702212904780836900,49.9618369140625,-1.4812999963760376,-8.40779972076416,6.324699878692627
1702212904840836900,50.0218369140625,0.6959999799728394,-6.755399703979492,2.1278998851776123
1702212904900865000,50.08186499023437,1.82069993019104,-5.819900035858154,-0.23519998788833618
1702212904960836900,50.1418369140625,3.2918999195098877,-6.0777997970581055,-1.6744999885559082
1702212905020836900,50.2018369140625,5.063699722290039,-5.26639986038208,-4.308399677276611
1702212905080836900,50.2618369140625,4.43209981918335,-3.36929988861084,-14.515899658203125
1702212905140836900,50.3218369140625,6.428299903869629,-4.250199794769287,-9.566100120544434
1702212905200836900,50.3818369140625,3.545099973678589,-5.70359992980957,-5.869499683380127
1702212905260836900,50.4418369140625,0.9837999939918518,-6.688999652862549,-4.166399955749512
1702212905320836900,50.5018369140625,-1.0551999807357788,-7.395899772644043,-0.6092999577522278
1702212905380836900,50.5618369140625,-0.7457000017166138,-7.808599948883057,0.9289999604225159
1702212905440836900,50.6218369140625,0.040699999779462814,-3.0256998538970947,2.1492998600006104
1702212905500836900,50.6818369140625,-2.1569998264312744,-0.3247999846935272,2.9375
1702212905560836900,50.7418369140625,-1.4285999536514282,-1.0425999164581299,3.8801000118255615
1702212905620836900,50.8018369140625,-1.7285999059677124,-0.7565999627113342,7.116199970245361
1702212905680836900,50.8618369140625,-3.5737998485565186,0.6309999823570251,9.6048002243042
1702212905740836900,50.9218369140625,-5.843599796295166,1.1549999713897705,11.606800079345703
1702212905800836900,50.9818369140625,-5.211299896240234,1.2911999225616455,10.059800148010254
1702212905860836900,51.0418369140625,-6.154699802398682,-1.7867000102996826,12.389699935913086
1702212905920836900,51.1018369140625,-5.023699760437012,-3.9273998737335205,8.081099510192871
1702212905980836900,51.1618369140625,-2.8915998935699463,-7.922799587249756,6.36870002746582
1702212906040836900,51.2218369140625,-0.0064999996684491634,-7.395400047302246,3.3608999252319336
1702212906100836900,51.2818369140625,0.6158999800682068,-6.422699928283691,0.7690999507904053
1702212906160836900,51.3418369140625,2.1875998973846436,-6.117799758911133,-1.052899956703186
1702212906220836900,51.4018369140625,4.568900108337402,-4.8231000900268555,-3.912799835205078
1702212906280836900,51.4618369140625,3.9953999519348145,-4.94189977645874,-10.846799850463867
1702212906340836900,51.5218369140625,4.632299900054932,-6.9903998374938965,-8.98859977722168
1702212906400836900,51.5818369140625,3.404599905014038,-8.533299446105957,-8.085999488830566
1702212906460836900,51.6418369140625,2.685299873352051,-8.329999923706055,-6.416199684143066
1702212906520836900,51.7018369140625,1.0232999324798584,-10.56719970703125,-5.006499767303467
1702212906580836900,51.7618369140625,0.4382999837398529,-8.32859992980957,-0.41589999198913574
1702212906640836900,51.8218369140625,-2.100299835205078,-7.330099582672119,5.403199672698975
1702212906700836900,51.8818369140625,-2.3810999393463135,-6.392600059509277,10.922900199890137
1702212906760836900,51.9418369140625,-0.8714999556541443,-2.762399911880493,7.217499732971191
1702212906820836900,52.0018369140625,-1.0534999370574951,0.2563999891281128,10.4576997756958
1702212906880836900,52.0618369140625,-3.777400016784668,0.34849998354911804,15.557899475097656
1702212906940836900,52.1218369140625,-4.6992998123168945,0.04439999908208847,11.897600173950195
1702212907000863500,52.181863525390625,-3.343600034713745,-1.4401999711990356,12.145899772644043
1702212907060836900,52.2418369140625,-3.141899824142456,-4.9066996574401855,9.099199295043945
1702212907120836900,52.3018369140625,-3.262699842453003,-8.589499473571777,7.937099933624268
1702212907180836900,52.3618369140625,-1.8016999959945679,-8.387499809265137,3.9664998054504395
1702212907240836900,52.4218369140625,0.5943999886512756,-7.930099964141846,0.07419999688863754
1702212907300836900,52.4818369140625,2.458899974822998,-7.586799621582031,-1.917799949645996
1702212907360836900,52.5418369140625,4.622200012207031,-6.000199794769287,-3.0744998455047607
1702212907420836900,52.6018369140625,6.487599849700928,-4.5453996658325195,-5.3277997970581055
1702212907480836900,52.6618369140625,5.844299793243408,-5.490699768066406,-10.90530014038086
1702212907540836900,52.7218369140625,5.733999729156494,-5.623799800872803,-8.187999725341797
1702212907600836900,52.7818369140625,2.1865999698638916,-7.664000034332275,-7.18779993057251
1702212907660836900,52.8418369140625,-1.9645999670028687,-9.203399658203125,-5.126100063323975
1702212907720836900,52.9018369140625,-2.6440999507904053,-8.931900024414062,-1.083799958229065
1702212907780836900,52.9618369140625,-0.3310000002384186,-5.354499816894531,1.7170000076293945
1702212907840836900,53.0218369140625,-2.6601998805999756,-1.882699966430664,2.5857999324798584
1702212907900836900,53.0818369140625,-4.357100009918213,-1.871999979019165,5.085999965667725
1702212907960836900,53.1418369140625,-2.2298998832702637,-1.5607999563217163,10.41939926147461
1702212908020836900,53.2018369140625,-2.2712998390197754,0.9012999534606934,9.945699691772461
1702212908080836900,53.2618369140625,-0.8104000091552734,0.7310999631881714,11.283199310302734
1702212908140836900,53.3218369140625,-0.31529998779296875,-0.6523000001907349,10.498600006103516
1702212908200836900,53.3818369140625,-0.955299973487854,-1.4915000200271606,9.903599739074707
1702212908260836900,53.4418369140625,-2.9336998462677,-4.628499984741211,9.318699836730957
1702212908320836900,53.5018369140625,-1.5859999656677246,-8.063400268554688,5.29449987411499
1702212908380836900,53.5618369140625,1.33079993724823,-5.30019998550415,1.4186999797821045
1702212908440836900,53.6218369140625,1.5651999711990356,-3.2276999950408936,-0.7407999634742737
1702212908500836900,53.6818369140625,2.512399911880493,-4.0278000831604,-2.0987000465393066
1702212908560836900,53.7418369140625,4.065000057220459,-4.108500003814697,-2.7582998275756836
1702212908620836900,53.8018369140625,4.210899829864502,-4.827199935913086,-3.7941999435424805
1702212908680836900,53.8618369140625,5.889699935913086,-4.236099720001221,-8.535399436950684
1702212908740836900,53.9218369140625,3.1039998531341553,-7.711199760437012,-11.129399299621582
1702212908800836900,53.9818369140625,1.5762999057769775,-6.321300029754639,-5.047499656677246
1702212908860836900,54.0418369140625,-3.2774999141693115,-7.217700004577637,-2.340399980545044
1702212908920836900,54.1018369140625,-2.0327000617980957,-5.116499900817871,0.14079999923706055
1702212908980836900,54.1618369140625,0.3723999857902527,-2.3402998447418213,1.3991999626159668
1702212909040836900,54.2218369140625,-1.1186000108718872,-0.7965999841690063,2.7925000190734863
1702212909100863500,54.28186352539063,-2.7832999229431152,-1.0793999433517456,5.30679988861084
1702212909160836900,54.3418369140625,-3.6434998512268066,0.4178999960422516,10.17140007019043
1702212909220836900,54.4018369140625,-5.231899738311768,2.5615999698638916,9.53219985961914
1702212909280836900,54.4618369140625,-4.5478997230529785,0.5087999701499939,10.338500022888184
1702212909340836900,54.5218369140625,-3.2574000358581543,-2.484799861907959,10.156399726867676
1702212909400836900,54.5818369140625,-2.4804999828338623,-2.364300012588501,7.3090996742248535
1702212909460836900,54.6418369140625,-3.450199842453003,-5.308899879455566,7.589099884033203
1702212909520836900,54.7018369140625,-2.7060999870300293,-8.030399322509766,5.204999923706055
1702212909580836900,54.7618369140625,1.3923999071121216,-6.194399833679199,0.8050999641418457
1702212909640836900,54.8218369140625,2.3457999229431152,-4.181099891662598,-1.6258999109268188
1702212909700836900,54.8818369140625,2.894199848175049,-4.317699909210205,-3.6810998916625977
1702212909760836900,54.9418369140625,4.33050012588501,-4.475500106811523,-5.013899803161621
1702212909820836900,55.0018369140625,4.889800071716309,-4.022799968719482,-6.511499881744385
1702212909880836900,55.0618369140625,4.54640007019043,-3.8153998851776123,-8.519700050354004
1702212909940836900,55.1218369140625,2.5504000186920166,-3.5578999519348145,-8.185500144958496
1702212910000836900,55.1818369140625,2.027099847793579,-7.738199710845947,-6.911499977111816
1702212910060836900,55.2418369140625,0.8567000031471252,-9.214900016784668,-3.115299940109253
1702212910120836900,55.3018369140625,-2.762899875640869,-10.575299263000488,0.5730999708175659
1702212910180836900,55.3618369140625,-1.0591000318527222,-3.127699851989746,7.51039981842041
1702212910240836900,55.4218369140625,-3.035599946975708,-1.9930999279022217,4.94249963760376
1702212910300836900,55.4818369140625,-1.2259999513626099,-2.5983998775482178,3.8341000080108643
1702212910360836900,55.5418369140625,-1.778499960899353,-1.0938999652862549,8.362299919128418
1702212910420836900,55.6018369140625,-6.273599624633789,-0.050200000405311584,13.268799781799316
1702212910480836900,55.6618369140625,-7.5548996925354,0.32519999146461487,11.328299522399902
1702212910540836900,55.7218369140625,-6.0329999923706055,0.661799967288971,11.735199928283691
1702212910600836900,55.7818369140625,-7.2718000411987305,-5.976500034332275,9.302299499511719
1702212910660836900,55.8418369140625,-3.7625999450683594,-8.729199409484863,7.253200054168701
1702212910720836900,55.9018369140625,-0.5192999839782715,-6.43019962310791,2.771399974822998
1702212910780836900,55.9618369140625,0.39159998297691345,-5.253900051116943,0.22100000083446503
1702212910840836900,56.0218369140625,1.6541999578475952,-6.365900039672852,-1.524399995803833
1702212910900836900,56.0818369140625,4.010900020599365,-5.805599689483643,-2.4535000324249268
1702212910960836900,56.1418369140625,5.103699684143066,-5.561399936676025,-6.348999977111816
1702212911020836900,56.2018369140625,4.854799747467041,-5.355899810791016,-11.554499626159668
1702212911080836900,56.2618369140625,3.6683998107910156,-6.7963995933532715,-10.852999687194824
1702212911140836900,56.3218369140625,1.3733999729156494,-7.868799686431885,-5.858999729156494
1702212911200863500,56.38186352539063,-0.011099999770522118,-7.815999984741211,-2.4711999893188477
1702212911260836900,56.4418369140625,0.9837999939918518,-6.556299686431885,-0.6471999883651733
1702212911320836900,56.5018369140625,0.8305000066757202,-4.1296000480651855,2.197000026702881
1702212911380836900,56.5618369140625,-1.598099946975708,-5.021199703216553,5.0594000816345215
1702212911440836900,56.6218369140625,-2.472399950027466,-4.757199764251709,8.476900100708008
1702212911500836900,56.6818369140625,-3.747499942779541,-1.6955000162124634,10.460999488830566
1702212911560836900,56.7418369140625,-6.342700004577637,0.9068999886512756,11.792799949645996
1702212911620836900,56.8018369140625,-5.124199867248535,1.3320999145507812,12.429299354553223
1702212911680836900,56.8618369140625,-6.625199794769287,-0.6726999878883362,11.30679988861084
1702212911740836900,56.9218369140625,-6.203799724578857,-4.273799896240234,10.558699607849121
1702212911800836900,56.9818369140625,-6.0941996574401855,-11.630599975585938,6.78879976272583
1702212911860836900,57.0418369140625,-1.6018999814987183,-9.437399864196777,2.0745999813079834
1702212911920836900,57.1018369140625,2.119499921798706,-4.5941996574401855,-1.8329999446868896
1702212911980836900,57.1618369140625,3.1571998596191406,-2.78439998626709,-4.96429967880249
1702212912040836900,57.2218369140625,4.363500118255615,-3.1095998287200928,-6.867799758911133
1702212912100836900,57.2818369140625,4.173299789428711,-5.263999938964844,-7.183199882507324
1702212912160836900,57.3418369140625,3.116799831390381,-6.532899856567383,-6.815999984741211
1702212912220836900,57.4018369140625,1.7323999404907227,-7.2718000411987305,-7.12939977645874
1702212912280836900,57.4618369140625,0.3351999819278717,-6.781599998474121,-5.752599716186523
1702212912340836900,57.5218369140625,-0.8637999892234802,-7.34559965133667,-2.9143998622894287
1702212912400836900,57.5818369140625,0.31759998202323914,-4.109699726104736,-0.6976999640464783
1702212912460836900,57.6418369140625,-0.16689999401569366,-0.9863999485969543,1.7583999633789062
1702212912520836900,57.7018369140625,-1.8256999254226685,-1.9006999731063843,3.8404998779296875
1702212912580836900,57.7618369140625,-2.2181999683380127,-2.7757999897003174,7.160399913787842
1702212912640836900,57.8218369140625,-3.4677000045776367,-0.4551999866962433,9.557499885559082
1702212912700836900,57.8818369140625,-5.47599983215332,0.06209999695420265,9.179800033569336
1702212912760836900,57.9418369140625,-5.627599716186523,-0.8032999634742737,9.479700088500977
1702212912820836900,58.0018369140625,-5.53279972076416,-0.2574999928474426,10.406299591064453
1702212912880836900,58.0618369140625,-5.980599880218506,-4.866399765014648,6.757499694824219
1702212912940836900,58.1218369140625,-2.565999984741211,-5.410999774932861,4.919399738311768
1702212913000836900,58.1818369140625,-0.9474999904632568,-3.5107998847961426,2.8616998195648193
1702212913060836900,58.2418369140625,0.9362999796867371,-2.7170000076293945,0.2207999974489212
1702212913120836900,58.3018369140625,2.0911998748779297,-3.6532998085021973,-1.4430999755859375
1702212913180836900,58.3618369140625,3.8066999912261963,-5.766900062561035,-2.6475000381469727
1702212913240836900,58.4218369140625,5.746099948883057,-5.933899879455566,-4.681399822235107
1702212913300863500,58.48186352539062,6.75,-5.90749979019165,-9.440299987792969
1702212913360836900,58.5418369140625,4.622900009155273,-7.214399814605713,-9.142999649047852
1702212913420836900,58.6018369140625,1.3428000211715698,-6.61269998550415,-4.049099922180176
1702212913480836900,58.6618369140625,-2.2158000469207764,-6.9029998779296875,-1.7276999950408936
1702212913540836900,58.7218369140625,-0.34759998321533203,-2.3041000366210938,1.5676000118255615
1702212913600836900,58.7818369140625,-1.9853999614715576,-0.3730999827384949,4.020899772644043
1702212913660836900,58.8418369140625,-4.958099842071533,-1.205899953842163,4.77239990234375
1702212913720836900,58.9018369140625,-3.553299903869629,-0.18019999563694,7.650599956512451
1702212913780836900,58.9618369140625,-5.815399646759033,0.7694000005722046,7.865799903869629
1702212913840836900,59.0218369140625,-4.269499778747559,0.24229998886585236,8.64579963684082
1702212913900836900,59.0818369140625,-5.1082000732421875,-0.6279000043869019,9.554900169372559
1702212913960836900,59.1418369140625,-6.1427998542785645,-2.64520001411438,8.03219985961914
1702212914020836900,59.2018369140625,-4.886600017547607,-6.711899757385254,7.9079999923706055
1702212914080836900,59.2618369140625,-1.5356999635696411,-4.503499984741211,4.781799793243408
1702212914140836900,59.3218369140625,0.40869998931884766,-2.1380999088287354,1.2702000141143799
1702212914200836900,59.3818369140625,1.6171000003814697,-2.908599853515625,-0.7610999941825867
1702212914260836900,59.4418369140625,3.4323999881744385,-5.243299961090088,-1.7579998970031738
1702212914320836900,59.5018369140625,5.816799640655518,-5.505399703979492,-2.461099863052368
1702212914380836900,59.5618369140625,6.583699703216553,-5.273200035095215,-4.545899868011475
1702212914440836900,59.6218369140625,4.83489990234375,-5.881799697875977,-8.525699615478516
1702212914500836900,59.6818369140625,3.609499931335449,-5.708799839019775,-7.56850004196167
1702212914560836900,59.7418369140625,0.7324999570846558,-7.39169979095459,-5.7428998947143555
1702212914620836900,59.8018369140625,0.9208999872207642,-7.436299800872803,-3.2131998538970947
1702212914680836900,59.8618369140625,1.194599986076355,-4.583499908447266,-0.03700000047683716
1702212914740836900,59.9218369140625,-1.676800012588501,-4.304100036621094,3.5282998085021973
1702212914800836900,59.9818369140625,-2.031599998474121,-4.864799976348877,8.738299369812012
1702212914860836900,60.0418369140625,-2.3257999420166016,-2.0894999504089355,7.82859992980957
1702212914920836900,60.1018369140625,-5.3404998779296875,0.33239999413490295,9.409899711608887
1702212914980836900,60.1618369140625,-5.937699794769287,0.22119998931884766,13.800600051879883
1702212915040836900,60.2218369140625,-4.621999740600586,1.2437000274658203,12.475799560546875
1702212915100836900,60.2818369140625,-6.37999963760376,-4.051300048828125,11.43139934539795
1702212915160836900,60.3418369140625,-3.806199789047241,-8.301599502563477,9.111199378967285
1702212915220836900,60.4018369140625,-1.0992000102996826,-7.107199668884277,4.114699840545654
1702212915280836900,60.4618369140625,0.39899998903274536,-5.6566996574401855,0.2996000051498413
1702212915340836900,60.5218369140625,1.4682999849319458,-6.400799751281738,-2.012399911880493
1702212915400836900,60.5818369140625,3.3407998085021973,-5.815999984741211,-3.3523998260498047
1702212915460836900,60.6418369140625,5.641200065612793,-3.321199893951416,-6.467700004577637
1702212915520836900,60.7018369140625,4.728300094604492,-3.8705999851226807,-14.183699607849121
1702212915580836900,60.7618369140625,4.788899898529053,-7.259799957275391,-9.291500091552734
1702212915640836900,60.8218369140625,2.0144999027252197,-8.542200088500977,-4.131400108337402
1702212915700836900,60.8818369140625,-2.1308000087738037,-7.94789981842041,-0.7257999777793884
1702212915760836900,60.9418369140625,-0.12189999967813492,-4.5971999168396,0.714199960231781
1702212915820836900,61.0018369140625,-0.2028999924659729,-0.4596000015735626,-0.005699999630451202
1702212915880836900,61.0618369140625,-5.226900100708008,-0.5702999830245972,2.3018999099731445
1702212915940836900,61.1218369140625,-5.2393999099731445,-0.6559000015258789,9.209799766540527
1702212916000836900,61.1818369140625,-4.215199947357178,1.0642999410629272,7.071399688720703
1702212916060836900,61.2418369140625,-4.625199794769287,0.8271999955177307,7.382499694824219
1702212916120836900,61.3018369140625,-3.2647998332977295,-3.874799966812134,10.045599937438965
1702212916180836900,61.3618369140625,-0.7490999698638916,-1.317099928855896,9.426799774169922
1702212916240836900,61.4218369140625,-3.4158999919891357,-1.8686000108718872,6.892499923706055
1702212916300836900,61.4818369140625,-1.1310999393463135,-2.838099956512451,4.181699752807617
1702212916360836900,61.5418369140625,0.04699999839067459,-2.34309983253479,1.0859999656677246
1702212916420836900,61.6018369140625,0.9932999610900879,-2.2407000064849854,0.16689999401569366
1702212916480836900,61.6618369140625,2.5642998218536377,-2.5109000205993652,-0.8008999824523926
1702212916540836900,61.7218369140625,3.149600028991699,-4.531399726867676,-2.1626999378204346
1702212916600836900,61.7818369140625,4.866799831390381,-5.805599689483643,-5.093699932098389
1702212916660836900,61.8418369140625,4.1118998527526855,-6.580899715423584,-10.07289981842041
1702212916720836900,61.9018369140625,3.6092000007629395,-4.618299961090088,-6.31850004196167
1702212916780836900,61.9618369140625,-2.021199941635132,-6.671000003814697,-3.861999988555908
1702212916840836900,62.0218369140625,-0.7656999826431274,-6.485599994659424,-1.3902000188827515
1702212916900836900,62.0818369140625,1.6069999933242798,-2.4903998374938965,1.5464999675750732
1702212916960836900,62.1418369140625,-1.826200008392334,-0.6261999607086182,4.063799858093262
1702212917020836900,62.2018369140625,-2.974299907684326,-1.21589994430542,5.54509973526001
1702212917080836900,62.2618369140625,-2.538300037384033,0.23709999024868011,8.524999618530273
1702212917140836900,62.3218369140625,-4.366199970245361,1.8868999481201172,8.100799560546875
1702212917200836900,62.3818369140625,-4.207499980926514,0.1184999942779541,9.557000160217285
1702212917260836900,62.4418369140625,-3.8726999759674072,-0.5809999704360962,10.488800048828125
1702212917320836900,62.5018369140625,-4.145400047302246,-1.180999994277954,8.27649974822998
1702212917380836900,62.5618369140625,-3.881500005722046,-7.13979959487915,6.485699653625488
1702212917440836900,62.6218369140625,-0.555400013923645,-5.183099746704102,2.8903000354766846
1702212917500836900,62.6818369140625,1.3363999128341675,-1.8875999450683594,0.08649999648332596
1702212917560836900,62.7418369140625,2.461699962615967,-1.5257999897003174,-3.1171000003814697
1702212917620836900,62.8018369140625,3.5834999084472656,-1.8089998960494995,-3.5571999549865723
1702212917680836900,62.8618369140625,2.8777999877929688,-5.661599636077881,-4.459099769592285
1702212917740836900,62.9218369140625,4.6743998527526855,-4.184199810028076,-6.308399677276611
1702212917800836900,62.9818369140625,3.271099805831909,-5.030900001525879,-8.2593994140625
1702212917860905700,63.04190576171875,2.309999942779541,-4.42140007019043,-4.619699954986572
1702212917920836900,63.1018369140625,-1.6990998983383179,-7.970799922943115,-1.3163999319076538
1702212917980836900,63.1618369140625,-1.1014000177383423,-5.739199638366699,-0.3921999931335449
1702212918040836900,63.2218369140625,-0.7926999926567078,0.6678999662399292,1.9296000003814697
1702212918100836900,63.2818369140625,-1.708799958229065,1.5721999406814575,1.5322999954223633
1702212918160836900,63.3418369140625,-0.5184999704360962,-1.1158000230789185,3.05079984664917
1702212918220863500,63.401863525390624,-1.9757999181747437,-1.0030999183654785,8.505999565124512
1702212918280836900,63.4618369140625,-5.261699676513672,1.4019999504089355,9.077300071716309
1702212918340836900,63.5218369140625,-5.118899822235107,0.998699963092804,8.277099609375
1702212918400836900,63.5818369140625,-5.003399848937988,-2.1805999279022217,7.938599586486816
1702212918460836900,63.6418369140625,-4.307600021362305,-2.3698999881744385,11.107099533081055
1702212918520836900,63.7018369140625,-4.150099754333496,-6.482399940490723,8.193499565124512
1702212918580836900,63.7618369140625,-0.6840999722480774,-3.792799949645996,3.9880998134613037
1702212918640836900,63.8218369140625,0.46050000190734863,-2.885499954223633,0.48159998655319214
1702212918700836900,63.8818369140625,1.6796000003814697,-4.287399768829346,-0.9298999905586243
1702212918760836900,63.9418369140625,3.825899839401245,-5.488199710845947,-1.9398999214172363
1702212918820836900,64.0018369140625,5.172999858856201,-5.866699695587158,-5.619999885559082
1702212918880836900,64.0618369140625,5.357399940490723,-5.589600086212158,-10.736800193786621
1702212918940836900,64.1218369140625,3.6698999404907227,-7.087299823760986,-9.786600112915039
1702212919000836900,64.1818369140625,0.6632999777793884,-8.109099388122559,-5.114500045776367
1702212919060836900,64.2418369140625,-0.5791999697685242,-7.704599857330322,-1.5228999853134155
1702212919120836900,64.3018369140625,0.25679999589920044,-3.086899995803833,0.5699999928474426
1702212919180836900,64.3618369140625,-1.8913999795913696,0.48829999566078186,2.448199987411499
1702212919240836900,64.4218369140625,-3.380499839782715,-1.4305999279022217,3.9462997913360596
1702212919300836900,64.4818369140625,-2.1654000282287598,-2.569700002670288,7.2017998695373535
1702212919360836900,64.5418369140625,-4.147299766540527,0.09149999916553497,7.823599815368652
1702212919420836900,64.6018369140625,-6.573400020599365,0.08760000020265579,8.06209945678711
1702212919480836900,64.6618369140625,-5.203799724578857,0.2020999938249588,8.227499961853027
1702212919540836900,64.7218369140625,-5.949899673461914,-0.498199999332428,8.382699966430664
1702212919600863500,64.78186352539062,-6.033599853515625,-6.142600059509277,6.097399711608887
1702212919660836900,64.8418369140625,-1.8464999198913574,-4.873300075531006,3.177299976348877
1702212919720836900,64.9018369140625,-1.7038999795913696,-1.5286999940872192,-0.5679000020027161
1702212919780836900,64.9618369140625,5.35159969329834,-1.5542999505996704,-0.9860999584197998
1702212919840836900,65.0218369140625,2.2151999473571777,-0.6330999732017517,-2.1514999866485596
1702212919900836900,65.0818369140625,-0.4400999844074249,-3.3113999366760254,-2.0005998611450195
1702212919960836900,65.1418369140625,4.027100086212158,-4.685199737548828,-1.357699990272522
1702212920020836900,65.2018369140625,6.372499942779541,-3.5523998737335205,-5.37470006942749
1702212920080836900,65.2618369140625,4.60759973526001,-3.8241000175476074,-5.595099925994873
1702212920140836900,65.3218369140625,5.764999866485596,-6.2291998863220215,-1.9377999305725098
1702212920200836900,65.3818369140625,-0.26330000162124634,-7.272299766540527,-1.0465999841690063
1702212920260836900,65.4418369140625,-0.8937000036239624,-2.466899871826172,2.5722999572753906
1702212920320836900,65.5018369140625,-1.0680999755859375,0.4341000020503998,3.05049991607666
1702212920380836900,65.5618369140625,-1.3207999467849731,0.10649999976158142,3.1893999576568604
1702212920440836900,65.6218369140625,-2.608299970626831,-1.1461999416351318,4.763000011444092
1702212920500836900,65.6818369140625,-5.250499725341797,0.851099967956543,6.324100017547607
1702212920560836900,65.7418369140625,-9.320199966430664,1.1168999671936035,5.043299674987793
1702212920620836900,65.8018369140625,-8.94849967956543,1.2990000247955322,5.481599807739258
1702212920680836900,65.8618369140625,-7.030099868774414,0.00009999999747378752,7.4756999015808105
1702212920740836900,65.9218369140625,-6.362099647521973,-2.1152000427246094,7.053999900817871
1702212920800836900,65.9818369140625,-4.271999835968018,-6.482800006866455,6.8329997062683105
1702212920860836900,66.0418369140625,-0.3296000063419342,-5.360899925231934,5.730499744415283
1702212920920836900,66.1018369140625,0.986799955368042,-3.8213999271392822,2.7370998859405518
1702212920980836900,66.1618369140625,2.273699998855591,-4.376299858093262,0.8409000039100647
1702212921040836900,66.2218369140625,4.406799793243408,-5.277699947357178,-0.640999972820282
1702212921100836900,66.2818369140625,5.5894999504089355,-5.8354997634887695,-2.9006998538970947
1702212921160836900,66.3418369140625,5.620500087738037,-5.203700065612793,-7.890699863433838
1702212921220836900,66.4018369140625,6.421899795532227,-5.5941996574401855,-9.49209976196289
1702212921280836900,66.4618369140625,4.464600086212158,-6.049200057983398,-6.682999610900879
1702212921340836900,66.5218369140625,-1.0820000171661377,-9.001699447631836,-4.461299896240234
1702212921400836900,66.5818369140625,-1.0750999450683594,-7.589799880981445,-0.9229999780654907
1702212921460836900,66.6418369140625,0.3977999985218048,-3.8105998039245605,1.0872999429702759
1702212921520836900,66.7018369140625,-1.44760000705719,-2.114799976348877,2.9837000370025635
1702212921580836900,66.7618369140625,-1.3586000204086304,-2.990299940109253,5.358599662780762
1702212921640836900,66.8218369140625,-1.5815999507904053,-1.820099949836731,7.61870002746582
1702212921700863500,66.88186352539063,-3.719099998474121,-0.29350000619888306,8.465399742126465
1702212921760836900,66.9418369140625,-5.828000068664551,0.715499997138977,9.284199714660645
1702212921820836900,67.0018369140625,-7.2592997550964355,2.163300037384033,9.905799865722656
1702212921880836900,67.0618369140625,-5.527100086212158,3.273399829864502,10.153900146484375
1702212921940836900,67.1218369140625,-6.335899829864502,-4.1082000732421875,10.105500221252441
1702212922000836900,67.1818369140625,-3.426800012588501,-8.103400230407715,9.205699920654297
1702212922060836900,67.2418369140625,-1.069599986076355,-5.9131999015808105,4.7204999923706055
1702212922120836900,67.3018369140625,0.9924999475479126,-5.447400093078613,1.0716999769210815
1702212922180836900,67.3618369140625,2.8290998935699463,-5.882299900054932,-1.361799955368042
1702212922240836900,67.4218369140625,3.8429999351501465,-6.048799991607666,-3.2444000244140625
1702212922300836900,67.4818369140625,5.110899925231934,-6.607399940490723,-6.877299785614014
1702212922360836900,67.5418369140625,5.441299915313721,-6.314599990844727,-9.782899856567383
1702212922420836900,67.6018369140625,5.127199649810791,-5.136600017547607,-7.8964996337890625
1702212922480836900,67.6618369140625,1.3875999450683594,-6.827399730682373,-5.928999900817871
1702212922540836900,67.7218369140625,1.0263999700546265,-7.692899703979492,-2.970099925994873
1702212922600836900,67.7818369140625,0.004900000058114529,-6.823999881744385,-0.13349999487400055
1702212922660836900,67.8418369140625,-2.1031999588012695,-2.927299976348877,3.926800012588501
1702212922720836900,67.9018369140625,-4.4766998291015625,-0.8209999799728394,5.030999660491943
1702212922780836900,67.9618369140625,-5.91949987411499,-0.11789999902248383,4.515599727630615
1702212922840836900,68.0218369140625,-6.968199729919434,1.2247999906539917,8.638400077819824
1702212922900836900,68.0818369140625,-7.876199722290039,1.7035999298095703,10.070099830627441
1702212922960836900,68.1418369140625,-4.8225998878479,-1.34089994430542,9.516499519348145
1702212923020836900,68.2018369140625,-1.6758999824523926,-0.962399959564209,10.428699493408203
1702212923080836900,68.2618369140625,-4.007299900054932,-3.1004998683929443,7.941299915313721
1702212923140836900,68.3218369140625,-1.4000999927520752,-6.405200004577637,6.381700038909912
1702212923200836900,68.3818369140625,1.1345000267028809,-5.497900009155273,2.7675998210906982
1702212923260836900,68.4418369140625,1.996999979019165,-3.8733999729156494,0.7676999568939209
1702212923320836900,68.5018369140625,2.8178000450134277,-4.2332000732421875,-1.0619999170303345
1702212923380836900,68.5618369140625,3.9682998657226562,-4.892399787902832,-3.5110998153686523
1702212923440836900,68.6218369140625,4.537300109863281,-5.896399974822998,-9.685599327087402
1702212923500836900,68.6818369140625,5.739599704742432,-4.556699752807617,-10.809700012207031
1702212923560836900,68.7418369140625,2.6387999057769775,-6.619699954986572,-8.753799438476562
1702212923620836900,68.8018369140625,-0.025200000032782555,-6.245999813079834,-3.0979998111724854
1702212923680836900,68.8618369140625,-1.503600001335144,-9.43649959564209,-0.8026999831199646
1702212923740836900,68.9218369140625,1.615399956703186,-4.376699924468994,2.7012999057769775
1702212923800863500,68.98186352539062,-0.7800999879837036,-1.3138999938964844,2.580199956893921
1702212923860836900,69.0418369140625,-0.707099974155426,-2.3157999515533447,2.25819993019104
1702212923920836900,69.1018369140625,0.5627999901771545,-3.541100025177002,5.243599891662598
1702212923980836900,69.1618369140625,-2.3030998706817627,-2.3675999641418457,8.634599685668945
1702212924040836900,69.2218369140625,-5.293600082397461,-0.07719999551773071,9.832799911499023
1702212924100836900,69.2818369140625,-8.364699363708496,-0.12349999696016312,10.103899955749512
1702212924160836900,69.3418369140625,-6.448400020599365,-0.5425999760627747,10.544499397277832
1702212924220836900,69.4018369140625,-4.481299877166748,-0.30809998512268066,8.369099617004395
1702212924280836900,69.4618369140625,-3.166299819946289,-2.4679999351501465,7.843599796295166
1702212924340836900,69.5218369140625,-2.3457000255584717,-5.086999893188477,5.383500099182129
1702212924400836900,69.5818369140625,-0.5968999862670898,-5.211400032043457,4.409999847412109
1702212924460836900,69.6418369140625,0.3012000024318695,-4.748799800872803,3.182499885559082
1702212924520836900,69.7018369140625,2.1778998374938965,-5.723499774932861,1.5778999328613281
1702212924580836900,69.7618369140625,3.8432998657226562,-6.5802998542785645,-0.3619999885559082
1702212924640836900,69.8218369140625,4.507499694824219,-6.8115997314453125,-3.6252999305725098
1702212924700836900,69.8818369140625,5.230299949645996,-5.658799648284912,-11.264599800109863
1702212924760836900,69.9418369140625,4.080599784851074,-6.944399833679199,-11.465299606323242
1702212924820836900,70.0018369140625,1.0282000303268433,-8.463099479675293,-4.806999683380127
1702212924880836900,70.0618369140625,-0.6459999680519104,-5.638799667358398,-4.56820011138916
1702212924940836900,70.1218369140625,1.083299994468689,-4.582399845123291,-2.5618999004364014
1702212925000836900,70.1818369140625,0.04089999943971634,-3.8833999633789062,0.2791000008583069
1702212925060836900,70.2418369140625,-1.9745999574661255,-3.6953999996185303,6.3480000495910645
1702212925120836900,70.3018369140625,-2.772599935531616,-2.4110000133514404,6.8725996017456055
1702212925180836900,70.3618369140625,-1.68559992313385,0.06830000132322311,5.401000022888184
1702212925240836900,70.4218369140625,-5.128399848937988,0.26980000734329224,7.62939977645874
1702212925300836900,70.4818369140625,-7.304499626159668,0.4728999733924866,11.463299751281738
1702212925360836900,70.5418369140625,-5.134799957275391,0.5508999824523926,9.344900131225586
1702212925420836900,70.6018369140625,-4.480499744415283,0.2733999788761139,7.375399589538574
1702212925480836900,70.6618369140625,-4.62969970703125,-4.588599681854248,8.67389965057373
1702212925540836900,70.7218369140625,-2.3336000442504883,-6.493799686431885,4.372699737548828
1702212925600836900,70.7818369140625,1.1747000217437744,-3.5769999027252197,1.5729999542236328
1702212925660836900,70.8418369140625,2.178999900817871,-2.207200050354004,-0.03439999744296074
1702212925720863500,70.90186352539062,2.415799856185913,-3.093400001525879,-1.556999921798706
1702212925780836900,70.9618369140625,3.0060999393463135,-4.83519983291626,-2.1828999519348145
1702212925840836900,71.0218369140625,3.1153998374938965,-5.5055999755859375,-1.7132999897003174
1702212925900863500,71.08186352539063,4.240299701690674,-5.9243998527526855,-7.727499961853027
1702212925960836900,71.1418369140625,3.494799852371216,-5.541899681091309,-6.171499729156494
1702212926020836900,71.2018369140625,0.7419999837875366,-4.716300010681152,-5.399399757385254
1702212926080836900,71.2618369140625,0.2126999944448471,-4.667200088500977,-4.362299919128418
1702212926140836900,71.3218369140625,0.7200999855995178,-3.109799861907959,-1.434499979019165
1702212926200836900,71.3818369140625,-0.6484999656677246,-1.0003999471664429,1.5733999013900757
1702212926260836900,71.4418369140625,-1.3830000162124634,-0.3815999925136566,3.8244998455047607
1702212926320836900,71.5018369140625,-3.0174999237060547,-1.3970999717712402,5.236199855804443
1702212926380836900,71.5618369140625,-2.109299898147583,0.6530999541282654,5.891599655151367
1702212926440836900,71.6218369140625,-5.212800025939941,2.0607998371124268,7.393399715423584
1702212926500836900,71.6818369140625,-5.762700080871582,1.1485999822616577,9.27489948272705
1702212926560836900,71.7418369140625,-5.980899810791016,-2.1182000637054443,10.623899459838867
1702212926620836900,71.8018369140625,-4.8048996925354,-0.7060999870300293,9.470099449157715
1702212926680836900,71.8618369140625,-4.144400119781494,-4.2500996589660645,6.5269999504089355
1702212926740836900,71.9218369140625,-1.1606999635696411,-4.739999771118164,5.121799945831299
1702212926800836900,71.9818369140625,-0.583899974822998,-3.7224998474121094,2.5535998344421387
1702212926860836900,72.0418369140625,1.2108999490737915,-4.284299850463867,0.4253999888896942
1702212926920836900,72.1018369140625,3.4047999382019043,-4.990099906921387,-1.6929999589920044
1702212926980836900,72.1618369140625,4.874000072479248,-4.674599647521973,-3.6130998134613037
1702212927040836900,72.2218369140625,5.737599849700928,-5.08329963684082,-8.10890007019043
1702212927100836900,72.2818369140625,4.045300006866455,-5.614199638366699,-8.420999526977539
1702212927160836900,72.3418369140625,1.4060999155044556,-7.989599704742432,-8.14900016784668
1702212927220836900,72.4018369140625,-0.621999979019165,-7.316199779510498,-3.391199827194214
1702212927280836900,72.4618369140625,0.02539999969303608,-4.752500057220459,-2.0525999069213867
1702212927340836900,72.5218369140625,-0.7944999933242798,-3.4147000312805176,-0.6363999843597412
1702212927400836900,72.5818369140625,-0.22949999570846558,-1.909999966621399,2.8940999507904053
1702212927460836900,72.6418369140625,-2.2605998516082764,-1.5895999670028687,5.791899681091309
1702212927520836900,72.7018369140625,-3.8588998317718506,0.023599999025464058,7.861799716949463
1702212927580836900,72.7618369140625,-5.322400093078613,2.043299913406372,8.4753999710083
1702212927640836900,72.8218369140625,-4.929199695587158,0.854200005531311,9.464900016784668
1702212927700836900,72.8818369140625,-3.59060001373291,-3.1503000259399414,9.792200088500977
1702212927760836900,72.9418369140625,-2.899399995803833,-0.9528999924659729,9.380799293518066
1702212927820836900,73.0018369140625,-3.7812998294830322,-3.045599937438965,6.91439962387085
1702212927880836900,73.0618369140625,-1.6217999458312988,-4.765899658203125,4.224599838256836
1702212927940836900,73.1218369140625,0.11889999359846115,-3.8581998348236084,1.7364999055862427
1702212928000863500,73.18186352539063,0.47189998626708984,-3.834399938583374,-0.2581999897956848
1702212928060836900,73.2418369140625,2.1435999870300293,-4.699699878692627,-2.489500045776367
1702212928120836900,73.3018369140625,3.300999879837036,-4.194299697875977,-5.917599678039551
1702212928180836900,73.3618369140625,3.573199987411499,-3.4261999130249023,-8.292499542236328
1702212928240836900,73.4218369140625,2.8976998329162598,-4.639400005340576,-7.899799823760986
1702212928300836900,73.4818369140625,1.1740999221801758,-6.324499607086182,-7.784999847412109
1702212928360836900,73.5418369140625,0.8501999974250793,-6.638700008392334,-4.738100051879883
1702212928420836900,73.6018369140625,-0.05269999802112579,-6.780099868774414,-1.6277999877929688
1702212928480836900,73.6618369140625,1.2279000282287598,-5.423099994659424,1.1740000247955322
1702212928540836900,73.7218369140625,0.09959999471902847,-4.129199981689453,2.9570000171661377
1702212928600836900,73.7818369140625,0.91839998960495,-3.404899835586548,5.065799713134766
1702212928660836900,73.8418369140625,1.1294000148773193,-2.5511999130249023,6.10699987411499
1702212928720836900,73.9018369140625,0.6686999797821045,-0.5654999613761902,7.170300006866455
1702212928780836900,73.9618369140625,-0.9359999895095825,1.74809992313385,9.287699699401855
1702212928840836900,74.0218369140625,-1.7781000137329102,1.4126999378204346,14.118999481201172
1702212928900836900,74.0818369140625,0.15150000154972076,1.029099941253662,10.618199348449707
1702212928960836900,74.1418369140625,-1.1572999954223633,-2.694000005722046,11.98539924621582
1702212929020836900,74.2018369140625,-0.8313999772071838,-5.766499996185303,12.421899795532227
1702212929080836900,74.2618369140625,-1.5256999731063843,-10.446599960327148,7.041100025177002
1702212929140836900,74.3218369140625,0.9851999878883362,-9.083799362182617,1.7967000007629395
1702212929200836900,74.3818369140625,1.17330002784729,-6.08519983291626,-1.3389999866485596
1702212929260836900,74.4418369140625,1.8508999347686768,-6.196899890899658,-2.977099895477295
1702212929320836900,74.5018369140625,3.5899999141693115,-5.673999786376953,-3.6374998092651367
1702212929380836900,74.5618369140625,4.345600128173828,-4.619499683380127,-6.465199947357178
1702212929440836900,74.6218369140625,3.5673999786376953,-4.393099784851074,-9.941800117492676
1702212929500836900,74.6818369140625,2.1480000019073486,-3.928299903869629,-10.742499351501465
1702212929560836900,74.7418369140625,1.51829993724823,-7.928399562835693,-9.571199417114258
1702212929620836900,74.8018369140625,-0.02159999869763851,-9.137800216674805,-4.467400074005127
1702212929680836900,74.8618369140625,-0.033900000154972076,-8.072099685668945,0.9851999878883362
1702212929740836900,74.9218369140625,-0.22749999165534973,-6.456599712371826,4.586699962615967
1702212929800836900,74.9818369140625,0.23349998891353607,-4.679599761962891,3.1647000312805176
1702212929860836900,75.0418369140625,-0.6645999550819397,-3.6161999702453613,4.1392998695373535
1702212929920836900,75.1018369140625,-2.0202999114990234,-2.3740999698638916,10.931900024414062
1702212929980836900,75.1618369140625,-2.697000026702881,3.2971999645233154,13.608999252319336
1702212930040836900,75.2218369140625,-2.469599962234497,2.68999981880188,11.26259994506836
1702212930100863500,75.28186352539062,-0.3310999870300293,1.8388999700546265,10.372200012207031
1702212930160836900,75.3418369140625,-1.616499900817871,-2.146199941635132,9.358099937438965
1702212930220836900,75.4018369140625,1.6288999319076538,-3.8790998458862305,9.258600234985352
1702212930280836900,75.4618369140625,-1.104699969291687,-6.7393999099731445,6.20389986038208
1702212930340836900,75.5218369140625,0.23510000109672546,-7.38129997253418,4.532599925994873
1702212930400836900,75.5818369140625,1.1338000297546387,-6.710299968719482,1.3830000162124634
1702212930460836900,75.6418369140625,1.7089999914169312,-7.025099754333496,-1.3217999935150146
1702212930520836900,75.7018369140625,2.075700044631958,-6.138499736785889,-4.018700122833252
1702212930580836900,75.7618369140625,2.847599983215332,-3.391199827194214,-7.7789998054504395
1702212930640836900,75.8218369140625,1.9536999464035034,-2.1226999759674072,-13.599499702453613
1702212930700836900,75.8818369140625,0.6301000118255615,-3.433499813079834,-12.237099647521973
1702212930760836900,75.9418369140625,-1.1583999395370483,-5.875199794769287,-8.565699577331543
1702212930820836900,76.0018369140625,-0.5521000027656555,-8.688399314880371,-3.7812998294830322
1702212930880836900,76.0618369140625,-1.013100028038025,-8.921799659729004,1.077299952507019
1702212930940836900,76.1218369140625,-2.8203999996185303,-6.870599746704102,6.062699794769287
1702212931000836900,76.1818369140625,-2.2697999477386475,-0.2402999997138977,1.9793999195098877
1702212931060836900,76.2418369140625,-3.749699831008911,-0.0357000008225441,3.9182000160217285
1702212931120836900,76.3018369140625,0.3926999866962433,0.2928999960422516,11.983799934387207
1702212931180836900,76.3618369140625,1.9453999996185303,2.6905999183654785,8.353400230407715
1702212931240836900,76.4218369140625,0.34880000352859497,1.5305999517440796,9.494799613952637
1702212931300836900,76.4818369140625,0.972599983215332,0.5803999900817871,8.408900260925293
1702212931360836900,76.5418369140625,-0.3481999933719635,-3.0508999824523926,5.870800018310547
