time,seconds_elapsed,z,y,x
1705063961634882000,0.067882080078125,-0.32773422662150115,-0.15367920730076728,-0.11840004158886148
1705063961690912000,0.123912109375,-0.19377832224871963,-0.10420472656842321,-0.10572710469695738
1705063961741325800,0.174325927734375,0.10877077410863711,-0.07760393908638506,-0.04616302722995169
1705063961791742000,0.224741943359375,-0.036238286217779386,-0.04500782474626321,0.06418418871543835
1705063961842187800,0.275187744140625,-0.09273753960393369,-0.20923441445259375,0.1448708916814532
1705063961892591900,0.325591796875,-0.13195315884877926,-0.12796041768449357,0.12666589349508284
1705063961943017000,0.376016845703125,0.055297538029751736,-0.15919999828254802,0.2509261688868515
1705063961993464000,0.426464111328125,-0.22962732373783362,-0.265741917360574,0.5494231403091923
1705063962043879000,0.47687890625,-0.2068070411751978,-0.4120357271177694,0.7910166683085262
1705063962094324000,0.527323974609375,-1.3148285070970653,-0.7246868047673255,-0.20769799866555258
1705063962144751900,0.577751953125,-1.9934600284583865,0.40815899528227745,0.03259706190490397
1705063962195171800,0.628171875,-1.3658004233129322,0.102028880366683,2.090130012140423
1705063962245582800,0.678582763671875,-0.9201778126854449,-1.3733911707028745,0.2704684344258159
1705063962296014800,0.729014892578125,-2.638470435246825,2.8814801501870155,1.4940892418347298
1705063962346460000,0.7794599609375,5.188198172679543,2.2656277410827577,0.7552532079447061
1705063962396875000,0.829875,2.3120066304199396,0.5032365952063351,-0.34350901111941784
1705063962447289900,0.880289794921875,2.401144903422892,2.9117054848417636,-1.6072529719389974
1705063962497736000,0.93073583984375,4.253284051698446,0.8016722100965679,-0.7661362748783082
1705063962548143900,0.981143798828125,5.642581524324417,-0.9330904857505112,-0.11024127591946162
1705063962598566000,1.03156591796875,-5.33611845112741,-0.5341512638321146,0.964629752548039
1705063962649012000,1.082011962890625,-4.962656309890747,-3.349966261464357,3.249669027195871
1705063962699426800,1.1324267578125,3.2731329048916695,-1.2874588541343808,3.5678508874982593
1705063962749871000,1.18287109375,3.764332075497508,0.7246782561346888,0.0590863312868867
1705063962800298000,1.233298095703125,-0.041697453522682185,0.7717319029282778,1.112029660383612
1705063962850704000,1.283703857421875,-0.7876518680505454,-0.5600017444035038,-0.57325957764443
1705063962901145900,1.334145751953125,-7.01587186500132,1.3598837466150522,1.6229950232110917
1705063962951576800,1.384576904296875,-2.1275547567799684,-2.050609172004461,0.6364969185303896
1705063963001991000,1.434990966796875,4.167785158111155,-0.21471914774030446,2.8219565325945615
1705063963052423000,1.4854228515625,-1.8288383521869778,1.213852423718944,3.8270048047706484
1705063963102851800,1.535851806640625,-0.18583762890994548,-1.4206390979595482,3.4165611326172947
1705063963153283800,1.586283935546875,0.9616117199011146,-2.5582109036177396,2.653136966241896
1705063963203693800,1.63669384765625,-1.41245301502496,-2.056823224213719,0.9225367238365113
1705063963254113000,1.687113037109375,0.5302379993785172,-0.14875244582253508,-0.4547850643135607
1705063963304559900,1.737559814453125,2.162689929177612,1.6171362141802905,-1.2656632019117473
1705063963354973700,1.7879736328125,0.8327007508929818,0.4538606794776395,-1.9459714243136346
1705063963405396000,1.83839599609375,0.3870062806056812,-1.2955889690980313,-1.8875617593124507
1705063963455844900,1.888844970703125,-0.9048197922948747,-2.6316028875648976,-1.8047133802339435
1705063963506264000,1.93926416015625,-0.7036814261395484,-1.9153285948991774,-1.8460402468785642
1705063963556678000,1.989677978515625,-0.2161780961106531,-1.653335362547636,-1.3672829169556497
1705063963607124000,2.0401240234375,-0.13427872485266998,-1.7637329889394342,-0.7672857371743768
1705063963657538800,2.090538818359375,-1.0271496293470264,-1.489106631116569,0.3344930897645652
1705063963707968000,2.140968017578125,-1.115818092881143,-0.8590725519247353,0.9108383949972688
1705063963758400000,2.19139990234375,-1.2189108030870557,-0.7245671969756483,0.8138562766261398
1705063963808815900,2.24181591796875,-0.8368280599560588,-0.26643620150135827,0.8607792097121476
1705063963859238000,2.29223779296875,-0.4998885999526828,-0.4430350783523172,0.32848383941240605
1705063963909661000,2.342660888671875,-1.0541105553783476,-0.24984054734092204,0.22871179806180297
1705063963960107800,2.393107666015625,0.028756584126304368,0.008814465657243272,-0.1971900669209659
1705063964010526000,2.44352587890625,-0.2980022467079572,0.1595979846241884,-0.21788396844677627
1705063964060967000,2.493966796875,-0.06265904780765995,-0.4639952661314979,-0.23125797541327772
1705063964111382000,2.544382080078125,0.2120787710330449,-0.7513700098358094,0.04170303388009779
1705063964161798000,2.5947978515625,0.05214914330169558,-0.4409774882353842,0.8271378560688346
1705063964212243700,2.64524365234375,-0.04290649595230352,0.5818638129258528,1.0968000886783003
1705063964262657800,2.69565771484375,0.8996863749291747,0.8541025084272027,0.8474964612256735
1705063964313085000,2.7460849609375,1.160107827919349,0.024990242446283808,0.9038187985587864
1705063964363520000,2.79652001953125,0.10786869243606924,-0.04754715223184321,0.9640922846704721
1705063964413934800,2.846934814453125,-0.21797078821370378,-0.027684529881423805,0.4731752189416438
1705063964464379000,2.89737890625,-0.5956877190843224,0.4828862829538062,0.29123947457475585
1705063964514799900,2.9477998046875,0.49667544659245755,1.0639954050548375,0.12585242168772964
1705063964565224000,2.998223876953125,-0.2298842941735871,0.323280754343979,0.588056383955665
1705063964615636700,3.04863671875,-0.1614676326872781,-0.30878282138146457,0.8034343243982642
1705063964666085000,3.099085205078125,0.12722118015713058,-1.582823756342381,1.2927639748051762
1705063964716516900,3.149516845703125,0.7675683535080403,-1.5910390653714537,1.4542479375727473
1705063964766931000,3.199930908203125,1.5923194605708122,-1.3189749592520297,1.6674645717956125
1705063964817346800,3.250346923828125,0.6012401290470734,-0.9137724026225507,1.9550192386440932
1705063964867792000,3.3007919921875,-0.9483999908242374,-0.3117077689174563,2.167490022935718
1705063964918201900,3.351201904296875,-1.5059790015928447,-0.15154952006200328,1.5493917346008121
1705063964968653000,3.401653076171875,-0.08210477590328082,-0.8893142531923949,0.2341038298310712
1705063965019068000,3.45206787109375,-1.0620997275013475,-1.6756028700657188,-0.3266889553522691
1705063965069481700,3.502481689453125,-0.7563746862553059,-2.305940608379245,-1.3059282845437525
1705063965119927800,3.552927734375,-0.6938652577850968,-1.7609052181676028,-0.754491429791972
1705063965170342000,3.603341796875,-0.907790697864443,-1.0149674625135958,0.028046269016037694
1705063965220778000,3.653778076171875,0.7275364220447837,-1.3366085233591496,-0.04613704340532422
1705063965271211800,3.704211669921875,0.333251601803489,-2.1859696824781594,0.330636377803795
1705063965321632000,3.754632080078125,0.2112180260178633,-0.29095715050203724,0.8885925147891044
1705063965372046800,3.805046875,0.20177069097580386,0.5196314112987369,0.8924120000120251
1705063965422493000,3.855492919921875,-0.3364879168435931,1.353462773656845,0.6027614933954552
1705063965472894000,3.90589404296875,-0.1358728256436996,-0.14844891456500625,-0.13081811780370772
1705063965523331800,3.956331787109375,0.36407022617626933,-0.40311139303650706,0.41283995617274194
1705063965573796400,4.00679638671875,-0.7073433827131986,-0.09256643908703699,0.4832109117982909
1705063965624241400,4.057241455078125,-0.015520810878492192,-0.21328626539297402,0.40238026575036345
1705063965674657300,4.1076572265625,0.09857335135163739,-0.526728164626658,0.05407204222225118
1705063965725072400,4.158072265625,0.4557629694350063,-0.13385409709927626,0.5352446485593915
1705063965775517200,4.20851708984375,-0.4395529718575999,-0.007045914764894405,0.9786954681057483
1705063965825932300,4.258932373046875,-0.660015375957638,-0.6929858446020633,0.18234706511413679
1705063965876347400,4.309347412109375,-1.5189927969448267,-1.0035467815719545,0.11093885712902993
1705063965926792400,4.35979248046875,0.7095200691651552,-0.33881993998773396,0.38604185602031643
1705063965977208300,4.410208251953125,0.9698458066958934,-0.28954741156827657,-0.043385703437146726
1705063966027654100,4.460654052734375,-0.8692720205083488,0.1603178233313374,-0.5752525780925527
1705063966078083300,4.511083251953125,-0.8183391941938549,0.5793144207039848,-0.23627425093902274
1705063966128498400,4.56149853515625,-0.04156189467662479,0.8404298107750713,0.5037726017791777
1705063966178932200,4.61193212890625,0.23167441072706133,0.8280217262312769,-0.3794708070669323
1705063966229357300,4.662357421875,-0.23762151909582316,0.9204251385100185,-0.48490438131056723
1705063966279789300,4.712789306640625,-0.7860479399852455,0.887161386007443,-0.5111221242917702
1705063966330205200,4.763205078125,-0.03394328203222249,1.5773400642342865,0.6700776280276477
1705063966380614400,4.813614501953125,-0.7788696458537131,1.0747808568328618,-0.06625054666071664
1705063966431065300,4.8640654296875,6.9121864495992655,-38.995269616937634,3.4673791734457016
1705063966481481200,4.914481201171875,0.5179400606783107,-0.10370109702837653,2.7275200070530174
1705063966531896300,4.964896240234375,2.466281684722006,-0.6721664170004427,1.0088002451207487
1705063966582341000,5.015341064453125,-0.5840078757498413,-0.16778943785363806,0.30619236649684606
1705063966632756200,5.065756103515625,0.5167927172740922,1.9899118344575166,2.3128978801712394
1705063966683201300,5.116201171875,-0.6174133748106658,0.5012124324349686,-2.750947059869766
1705063966733630200,5.166630126953125,-5.082116217529774,2.5982468536689876,-1.3779609628364442
1705063966784046000,5.217046142578125,-1.1214208813242614,2.705397899354994,0.7357824915383011
1705063966834461200,5.267461181640625,-2.354162641365081,-2.253750840806216,0.48934645541124044
1705063966884906200,5.31790625,-1.2565006751604377,-6.223168412649631,1.1358129792921245
1705063966935322400,5.368322265625,1.2964751042827962,-8.684857216623424,0.8739015069399029
1705063966985736400,5.418736328125,-0.015242721164540852,-3.5527284294292327,1.4761640013046562
1705063967036191200,5.469191162109375,-2.698984525181353,0.1734131594869308,-2.1663586808182296
1705063967086614300,5.5196142578125,0.6732865801367909,4.692984797996282,-0.6491745407305658
1705063967137029000,5.570029052734375,-3.4965669817462564,9.2430990021497,2.639685948516428
1705063967187448300,5.6204482421875,-1.8519545854888855,6.752838183686137,4.246808133682609
1705063967237889300,5.67088916015625,1.918204588726908,-4.143303335544466,-0.21274781113471836
1705063967288304400,5.721304443359375,2.5007076859369874,-3.1848528561532494,-0.43544487895164635
1705063967338730200,5.771730224609375,0.8773228596907109,-2.6636209508553144,-0.8238901793844997
1705063967389165000,5.8221650390625,0.17744752956954762,-0.6153090960077942,-0.11522149375113658
1705063967439594200,5.87259423828125,-3.752132519137859,2.409331717009842,1.5961742363028226
1705063967490009300,5.92300927734375,-1.7311549536786972,2.564946057091653,3.3438261512741443
1705063967540431400,5.973431396484375,-1.2648558310516178,0.4339288848981261,-0.49214456169717014
1705063967590869200,6.023869140625,-0.8600443926315754,-1.4522756145864724,0.15647910368498413
1705063967641304300,6.07430419921875,3.4739033145174383,-0.5938464020665735,2.52779179995656
1705063967691727000,6.12472705078125,0.15931281100725755,-0.7985720521241426,0.9935668740231544
1705063967742145300,6.175145263671875,-1.84121311898306,-0.8666722132734954,0.33411472143884746
1705063967792576300,6.225576171875,-0.11152918770499527,0.31153299687243996,0.7171709492444992
1705063967842992400,6.275992431640625,-0.5002270381268114,0.1911582028781995,-0.9152033852737397
1705063967893436200,6.326436279296875,-0.17585037830490619,-0.29936869448926295,-2.4002771806776524
1705063967943850200,6.376850341796875,0.45297553067356344,5.0833162409693,-0.8486839174445718
1705063967994298000,6.427298095703125,-0.2396808993110433,4.0652573883116245,-1.072932671682909
1705063968044712200,6.477712158203125,-2.53953162984997,3.8078187505245205,2.033454185194522
1705063968095128300,6.52812841796875,-0.09881563567491247,1.0642349128991364,1.1645821968544274
1705063968145573400,6.578573486328125,-2.280672165479511,-0.6802382989708334,1.2416348222009836
1705063968195989200,6.6289892578125,-0.1756722087264061,-9.794547474274038,1.45632269802019
1705063968246407200,6.6794072265625,-0.2679542961804196,-9.077783352264762,0.5438083691673353
1705063968296846300,6.729846435546875,1.3679492719098925,-2.2612543483041225,2.8675089079797265
1705063968347278300,6.7802783203125,-4.034180113002658,-0.2256702201425098,1.295488285202533
1705063968397692200,6.830692138671875,0.20987539750356227,3.9734894974574444,-0.4471745893098414
1705063968448124200,6.881124267578125,0.5477941143352538,5.813175406873226,-3.252079303207993
1705063968498569200,6.9315693359375,-1.6716629002682863,4.1470419375509024,-1.0663465712908655
1705063968548986000,6.981986083984375,-0.27789595407806333,-3.418681193511188,0.4053449607748538
1705063968599401200,7.032401123046875,0.6888561974514276,-5.222223191878199,3.4760920567333695
1705063968649845200,7.08284521484375,-2.2854842419363557,-0.6621127135630697,1.7887718608669936
1705063968700260000,7.133260009765625,-0.813552032982558,0.5016600300719961,1.0230058075405657
1705063968750676500,7.183676513671875,0.5331129702929407,0.5177727412873879,0.5083988002751022
1705063968801122300,7.234122314453125,-1.307178138474375,-0.9239151725828647,-0.5701874767227098
1705063968851551200,7.28455126953125,-2.056712603446096,-0.5960931946126744,0.07868220844292081
1705063968901981400,7.3349814453125,-0.3827498287376016,1.5245364025466144,2.180848247811198
1705063968952397300,7.385397216796875,0.910176497022435,0.04589716110168956,0.7420362912360579
1705063969002812400,7.4358125,0.6435292283199727,-0.04212744243778288,-0.3155797149799764
1705063969053241300,7.486241455078125,-0.38270164221432057,-0.29425398182403295,0.6828864753920585
1705063969103665400,7.53666552734375,-0.2126480222883634,0.21770218213908374,0.22577647526226938
1705063969154101200,7.587101318359375,-2.9851538751512763,-1.0636257680248469,2.420308307445794
1705063969204516000,7.63751611328125,-1.501462985473126,0.517457391727902,1.6851956049278378
1705063969254949400,7.687949462890625,-1.340589701949805,0.5310046363694593,1.9347101717174051
1705063969305394200,7.738394287109375,-1.7955825637951492,-0.754861212952435,2.128908509476483
1705063969355809300,7.788809326171875,-1.1443243486583232,-0.13678944729827344,1.8211323078542947
1705063969406224100,7.83922412109375,2.688996799652278,-1.413356247474998,-0.019167808486672582
1705063969456656100,7.88965625,0.2220989557933062,-1.000625414232537,-0.8352101764306425
1705063969507084300,7.940084228515625,-1.1761154713250697,-0.17321153596760705,-0.30415992908747863
1705063969557530000,7.990530029296875,0.08452813059268519,-0.8642054578337818,0.5697136121332645
1705063969607944200,8.040944091796876,-1.2177944393429905,1.5028785513594747,0.8500758101943879
1705063969658360300,8.0913603515625,-1.2054457568362356,2.31022529996112,0.5997118965664878
1705063969708805400,8.141805419921875,-1.7370754297688602,1.033472402627766,-0.09450941724781878
1705063969759230500,8.19223046875,-1.630629755873233,-0.12909545872956513,-1.0206467502590268
1705063969809637400,8.242637451171875,-0.24294253145549444,-0.9419899776514619,0.6488396827530115
1705063969860064300,8.293064208984376,-1.86760311325863,0.06150963117736391,-1.2789248345449566
1705063969910510300,8.34351025390625,-2.585442609414458,0.04941106467389036,0.5082494549322873
1705063969960925400,8.393925537109375,-3.093055739204585,-0.3347873965360224,1.0073325106557458
1705063970011357200,8.444357177734375,-1.2839692584529518,-0.32647312064450235,-1.2734881964489817
1705063970061781200,8.49478125,3.579356908635795,-6.551452272510528,0.4578998718658462
1705063970112217000,8.545217041015626,0.7554976842250675,0.8807708081874996,-0.39353513438515364
1705063970162633200,8.59563330078125,3.1353257319182157,0.180536307631433,1.4030062645047903
1705063970213079300,8.646079345703125,-1.4747313381530343,-0.6336455476872622,0.768759755249694
1705063970263494100,8.696494140625,-0.4349414594741538,-3.522888586960733,2.875628501549363
1705063970313909200,8.7469091796875,0.48953766713440416,2.2510056337513027,-0.8621458218902349
1705063970364330200,8.797330322265625,-0.7917456401702017,0.3739430200887844,0.6867275879248976
1705063970414769200,8.84776904296875,-0.401459607241489,1.4017539263561367,0.36274306922573596
1705063970465184300,8.898184326171876,-2.31397807662338,5.480887572067975,-1.36012077024132
1705063970515629300,8.94862939453125,0.03217228802103782,3.3344074578046796,-0.3341236719302833
1705063970566107400,8.999107421875,-2.119406960029155,-1.4169425815291703,-0.5316280654974281
1705063970616517000,9.04951708984375,-3.1128166707292197,0.5512755632428452,-0.604546257920377
1705063970666962200,9.099962158203125,-3.5378967710003253,-1.587313176716119,-1.4203110350489616
1705063970717377300,9.150377197265625,-0.14641120732547713,-3.3298347430616615,3.3221094095066186
1705063970767809300,9.200809326171875,1.6494574982009826,-1.411410227973759,1.617946653780341
1705063970818225200,9.25122509765625,3.915192206789553,-1.6489670843355357,-0.9056678604915738
1705063970868642000,9.30164208984375,-0.708236970552057,-0.7364611945174634,-0.04254453990526963
1705063970919069000,9.35206884765625,-0.1332253616085276,0.4636390000397339,0.02225992014996009
1705063970969521200,9.402521240234375,0.27286985127804797,0.8052858705490827,0.5529389664104208
1705063971019930000,9.45293017578125,-1.8515595948219299,2.3113231782004235,-0.6888055632427335
1705063971070374100,9.5033740234375,-1.5079028092622757,2.536098440530896,-0.39961774223446844
1705063971120790300,9.553790283203124,-1.1303463113840668,-0.22871150580085814,0.3879982873177156
1705063971171204000,9.6042041015625,-2.5468489671260115,0.26874962954288345,-0.7099691281069069
1705063971221651200,9.654651123046875,-1.7637379573754965,-2.939904282104969,-0.2267062669256702
1705063971272065300,9.705065185546875,-2.726485695569217,-3.5735765716686845,-0.9627441579971462
1705063971322510300,9.75551025390625,2.182442385134846,-3.266692642711103,-1.313058136423677
1705063971372927200,9.80592724609375,1.4849780068792402,1.0719099775716663,2.096095204155147
1705063971423341000,9.856341064453124,1.5900960854329167,-0.5929027280082926,-0.6015966508671641
1705063971473787100,9.906787109375,1.8412378150328992,-1.220046967510134,1.078029337234795
1705063971524218000,9.957218017578125,-0.22854413161100817,0.5011720638919621,0.814291307042539
1705063971574648000,10.00764794921875,-0.015004940628091571,2.4427707530140874,-0.9050755936868489
1705063971625051100,10.058051025390625,0.15356933545181528,3.3870749258920547,-1.154876283941418
1705063971675494100,10.108494140625,-1.0040740203164518,2.3284691049210724,-0.15005883397967554
1705063971725922000,10.158922119140625,-1.0423211141895503,2.0585941794089972,-0.0527349757990567
1705063971776324400,10.209324462890624,-2.2875744922138748,-2.614203132213652,0.6058343980347737
1705063971826769200,10.25976904296875,-2.880555728818476,-1.6991615864381193,1.25390846671015
1705063971877191200,10.310191162109374,-3.2505510707274077,-1.5897259369462728,0.3349451443810016
1705063971927631000,10.360631103515624,-0.12495539978276937,-3.1356463421747085,1.0689126954518258
1705063971978046200,10.411046142578124,2.6668831675216556,0.707751744318381,1.0721440055232494
1705063972028461300,10.46146142578125,3.313628873670101,-3.0387200456440446,0.06905314645867329
1705063972078897200,10.511897216796875,-0.030963544702227227,-0.1672478235239163,0.12223468784829601
1705063972129335000,10.5623349609375,-0.6869827317297458,0.8737528922494501,0.2758110558290966
1705063972179749400,10.612749267578126,-0.7206425708778202,2.5601921405628323,-0.48857178124431516
1705063972230196200,10.6631962890625,-1.030357777738571,2.2393251328296957,-0.88641867788136
1705063972280597200,10.71359716796875,-1.2131301007937638,0.8344402149714529,-1.135966343222931
1705063972331041000,10.764041015625,-0.8455542411167174,1.1963846446327864,-0.04312113421682734
1705063972381456100,10.8144560546875,-1.557979384073615,-1.368950704037398,-0.9179019767079502
1705063972431903200,10.8649033203125,-2.789528719459474,-3.1261633512973783,-0.7905622025392949
1705063972482299100,10.915299072265626,-1.0941153796389698,-1.5944041578903794,-1.0634976846657693
1705063972532733200,10.965733154296874,1.8724654585979879,0.6109822092520073,-2.4407398317083713
1705063972583179300,11.01617919921875,3.550488833808899,-1.3667942566558717,0.40141423372980206
1705063972633593000,11.066593017578125,0.13894151989878153,-3.3543238721519706,0.6932781786121428
1705063972684008200,11.11700830078125,1.3007519048191607,-2.6815736639142034,0.8500681383445858
1705063972734453200,11.167453369140626,0.7050438735991716,0.17241419331114738,-1.0767878127411008
1705063972784883200,11.21788330078125,1.244975510931015,4.322536743883789,-0.508628152051568
1705063972835295200,11.268295166015625,-0.5091493629140779,3.65588719060868,-0.5528990362588316
1705063972885734100,11.318734130859376,-1.5703611651323734,1.624393199571222,0.8697971403609961
1705063972936158200,11.369158203125,-2.067734640458971,0.11137335782246663,1.322899293088913
1705063972986590200,11.419590087890626,-1.5219086843915284,-2.545656834731996,0.4610856988277286
1705063973037006000,11.470006103515624,-2.8173835255905986,-0.27623792120534923,-1.6887724405013025
1705063973087441200,11.520441162109375,-2.1004854019381103,2.895306430965662,-2.2058972027413546
1705063973137866200,11.5708662109375,1.708761920084804,-5.8179667328029865,1.3088102697208523
1705063973188281000,11.621281005859375,4.377831637865305,1.668822270014882,2.8453037981733678
1705063973238726100,11.67172607421875,3.3988378444001075,-2.479312723469734,-2.1208177036099136
1705063973289142000,11.72214208984375,1.2215897399727254,-4.415170896178484,0.7751882539272308
1705063973339556000,11.77255615234375,-1.6404336492680012,2.4668109692931175,0.673335826105997
1705063973390005000,11.8230048828125,-0.6341182797655462,4.652491459566354,1.211560148063302
1705063973440417000,11.8734169921875,-1.415176740900427,1.7989467795312404,-1.0752423368647694
1705063973490862000,11.923862060546876,-1.713386511145532,1.6805185530275106,-3.0608173111617565
1705063973541288200,11.9742880859375,-2.075185540986806,3.3469957212209698,-1.3390917184770106
1705063973591706000,12.0247060546875,-3.2997835959300397,-3.2041753962606188,2.3159495228268203
1705063973642121000,12.075120849609375,-2.9491388511791823,-4.454144185434282,-0.5732596507096662
1705063973692551200,12.12555126953125,1.791855506096035,-5.632715379348397,-0.5818369614515453
1705063973742973200,12.17597314453125,6.807202226558327,-1.3936284875676035,-0.30327859794199463
1705063973793414100,12.2264140625,0.7882119861513376,-0.5381411737184971,0.44735337994284924
1705063973843829200,12.276829345703124,3.3754958395183086,-0.6049842840114608,1.3729825899019836
1705063973894275000,12.327275146484375,0.08897867112760431,-0.7867416944030672,1.1169699663300066
1705063973944689200,12.377689208984375,0.3472278124468401,3.177189481918514,-0.13013166990950703
1705063973995106300,12.428106201171875,0.647377647376433,4.186498041887581,-0.10541455901591107
1705063974045550000,12.478550048828126,-0.911861527499929,2.2126547141775488,-0.5812014034943654
1705063974095966200,12.52896630859375,-1.156416791381687,1.3247358608663082,-0.045918788411607965
1705063974146411300,12.579411376953125,-0.7263557608928531,-2.1094380853310226,0.05997100516692735
1705063974196826000,12.629826171875,-2.269099216585606,-2.1380083462551234,2.530595166939497
1705063974247240200,12.680240234375,-3.771284086592495,1.7279256163686514,0.32817630783319474
1705063974297670100,12.730670166015624,-1.6912515439659357,-4.189489917179942,-0.04740918679956812
1705063974348116200,12.7811162109375,4.784070844066143,1.7788973864540456,2.441991439204663
1705063974398530300,12.8315302734375,3.41850934407562,-3.148818250697851,-2.0950062398746607
1705063974448947200,12.881947265625,1.3127328499920665,-1.3369436005324125,-0.6753579795833676
1705063974499376000,12.932376220703125,-0.6821954974532127,0.6481640485137701,-0.3799029514065012
1705063974549815300,12.982815185546874,-0.32460031250994653,3.8773742250487206,-1.1758762557417153
1705063974600238000,13.033238037109374,-1.4416558747641741,2.500082832036912,-1.094181649808213
1705063974650683100,13.08368310546875,-1.1115270446237175,1.8900015536800026,-0.7454838013414293
1705063974701098200,13.13409814453125,-3.4926647136107083,-1.326051035118103,-0.041411535553657446
1705063974751514000,13.18451416015625,-1.3257295480787754,-2.982773117494583,-0.6999624056164175
1705063974801959000,13.234958984375,-3.5863740939214823,-3.1985046571478244,-1.0231512804258613
1705063974852373200,13.285373291015626,-0.996805490618199,-2.7253844563290475,-0.2429087205174379
1705063974902789000,13.3357890625,5.763498645034432,-1.0185085691865532,0.5962845889989287
1705063974953234200,13.386234130859375,2.41644607905969,-1.8160019592285155,-0.091843495107349
1705063975003650300,13.436650390625,0.5855913455490023,-3.561230884836614,1.1220743037316947
1705063975054077200,13.4870771484375,0.5455481620393693,2.1937012996435166,-0.20043995382869614
1705063975104523300,13.537523193359375,0.8240858480870723,4.437545225071907,-1.410198221835494
1705063975154938000,13.587938232421875,0.15541348374746738,4.854618252237141,-1.1575471105858683
1705063975205365200,13.638365234375,-2.189503555692732,3.1201930447161197,0.19943552602650597
1705063975255786200,13.6887861328125,-0.9511419830087572,1.042305478229001,1.025072457746789
1705063975306207200,13.739207275390624,-2.459912734211981,-3.858950971868634,0.5118459450542926
1705063975356638200,13.78963818359375,-3.22138722782433,-0.8862302426371723,1.4504622815541923
1705063975407072000,13.840072021484374,-6.130666654562949,-0.20722113840142264,-0.345743419107981
1705063975457497000,13.8904970703125,4.5227316917091605,-6.788135122516751,3.5548920372039077
1705063975507921200,13.940921142578125,2.1646292266771194,2.1494084228001533,-0.7131104218073189
1705063975558395000,13.991394775390624,3.3277988533198832,-2.5987004426553844,-0.6577717617493123
1705063975608809700,14.041809814453124,-0.7154336771231145,-2.346134087079763,1.3148837444156407
1705063975659223800,14.092223876953126,-2.2573872976124285,5.283695020928978,0.7670134230390191
1705063975709670000,14.142669921875,-0.5239337481351569,4.579015012206137,-0.6861045606557279
1705063975760085000,14.1930849609375,-1.9041357313640415,3.374866309443116,-2.2231221860475836
1705063975810513700,14.243513671875,-2.8240900374919176,1.749896771288663,-0.3158983890077099
1705063975860928800,14.2939287109375,0.7151547140512615,-6.2672705892264835,1.2300794089637697
1705063975911374800,14.344374755859375,-4.819710312724113,-3.840342132988572,1.6243470223419367
1705063975961788000,14.394787841796875,2.175407371931523,-3.4704973054662345,-1.37151602448076
1705063976012221000,14.445220947265625,7.594093777760863,-1.2726761494137346,2.2929253517225385
1705063976062636800,14.49563671875,-0.2846318564706482,-3.3097675220668314,-0.37439796078205106
1705063976113064700,14.546064697265624,2.5838532943964,-3.6611660077944395,2.9228397500574586
1705063976163496700,14.59649658203125,0.5785393081456423,1.9631635282635687,1.0176963029555977
1705063976213942800,14.64694287109375,0.34198633159678427,4.967247729334235,-1.4960340922921895
1705063976264356900,14.69735693359375,-0.007842131760058692,4.8927597668439144,-1.219315730626136
1705063976314772700,14.747772705078125,-1.5070023532912133,1.8811220816537737,0.16923695151451973
1705063976365218000,14.798218017578124,-2.0024092047199606,0.5688339066892862,0.15243764627445489
1705063976415632600,14.848632568359376,-1.7610460879430174,-2.5908985367327926,1.6179758798748254
1705063976466077700,14.89907763671875,-3.1950323048621416,0.16702471882514655,0.9073593937750906
1705063976516492800,14.949492919921875,-1.2999103394284843,-5.801279217374325,0.9646733724940567
1705063976566916600,14.99991650390625,4.588215386749804,-0.15194533271286637,2.448203299456835
1705063976617336800,15.0503369140625,3.8832229510769247,-3.9744647722303865,-1.7435279669091104
1705063976667782700,15.10078271484375,0.9551962999008595,-2.1181949538908897,0.5876438210994005
1705063976718197800,15.15119775390625,-0.6457124175779521,2.7135066792696714,-0.07704545582025311
1705063976768629800,15.201629638671875,-1.3733948239646852,4.563449194283783,-0.46061475684773173
1705063976819044900,15.252044921875,-0.8761366455808282,3.1502871542066333,-0.9140370449081062
1705063976869491000,15.302490966796874,-1.6519636358030139,3.300978066411614,-2.0226472522370518
1705063976919904800,15.35290478515625,-2.0955836013711986,1.4002198486566542,-0.04753903285746928
1705063976970316800,15.40331689453125,-1.778080955504626,-5.65137740972042,1.2357581852525472
1705063977020765700,15.453765625,-3.3021985481172798,-4.272361384873092,0.3382895959706977
1705063977071181800,15.504181884765625,0.3012995712202973,-3.627474166072905,-1.6319209647275505
1705063977121627000,15.554626953125,4.169450753235817,0.69959656797871,2.4839593802317976
1705063977172041000,15.605041015625,1.1394524317730217,-3.533347437132895,-0.08684470043936744
1705063977222456800,15.655456787109374,2.3102893051080406,-2.596160987305641,1.8553529957555233
1705063977272884700,15.705884765625,0.3750347973808646,2.130062355686724,-0.7375860338289291
1705063977323320800,15.75632080078125,1.2156662682078778,4.744737781587243,-0.5412747225038707
1705063977373747000,15.806746826171874,0.26493989852899685,5.0444730078339575,-0.5819287679208442
1705063977424161800,15.857161865234374,-1.9103605972282587,2.1396981990382073,0.1634104190518148
1705063977474593000,15.907593017578124,-1.1001300368186087,1.06948318881616,0.6111768185086548
1705063977525033700,15.95803369140625,-2.2021733599126336,-3.9062878925830122,1.1228889811154454
1705063977575466800,16.008466796875,-4.183437485273182,0.05400152970273047,0.4484731777530163
1705063977625868800,16.058868896484373,-0.6003509981876238,-4.707702474656701,0.23718358433628453
1705063977676295000,16.109294921875,5.00793279094398,-0.21609604385038836,2.8479905530393124
1705063977726730000,16.15972998046875,5.1350440901190035,-3.062945555362105,-1.1239000578541307
1705063977777174800,16.2101748046875,1.570899509792775,-1.3584217112384736,-0.11228436258700676
1705063977827589600,16.260589599609375,-0.9492110149461775,2.8343361216962335,0.8738476578608154
1705063977878024700,16.311024658203124,-1.704902029786259,3.654577861575782,0.37836854491345584
1705063977928450800,16.361450927734374,-0.6801268014203756,2.929297255633771,-0.8522750738043338
1705063977978865000,16.411864990234374,-1.525132761004567,2.983936608316004,-1.1875750229723752
1705063978029312000,16.46231201171875,-3.222256704135239,-1.8524553746178745,0.794061223636195
1705063978079740000,16.512739990234376,-1.1630676275730132,-3.7106560148894783,-1.5316842284746468
1705063978130155800,16.56315576171875,-3.879354000689089,-3.1638214663013815,1.1293277089260518
1705063978180571000,16.61357080078125,2.1279522316649553,0.39585400578677654,-0.0860655601598788
1705063978231019800,16.664019775390624,5.415387218153477,-1.6168582740217445,0.7226460927199572
1705063978281448000,16.714447998046875,0.27866291986256836,-3.4677409924954175,0.9401815399900079
1705063978331863000,16.764863037109375,1.5589697102852165,-2.523158879458904,1.6302569770380855
1705063978382277600,16.815277587890623,1.0222415451698004,1.8453138323001563,-1.5818587107025086
1705063978432722700,16.86572265625,1.060376410840079,5.996444646599889,-0.8709702027283608
1705063978483137800,16.9161376953125,-0.39833150181621313,4.879430329671502,0.04583412863572593
1705063978533554000,16.966553955078126,-2.0355397592969235,2.3112403222225604,1.4024473154477775
1705063978583997700,17.016997802734377,-1.5798343652680515,-0.8158071184329688,2.13907802131325
1705063978634413800,17.067413818359373,-1.6605251279212534,-2.752036608672142,2.095079451241344
1705063978684859000,17.11785888671875,-3.7958965498015282,0.25313688547257335,0.3956418974060565
1705063978735274800,17.168274658203124,-0.004426979279529768,-4.246985828337073,1.5700921389326452
1705063978785700900,17.218700927734375,3.950231955988705,-1.4051014832183717,1.3476850670382379
1705063978836117800,17.26911767578125,3.1612346646785734,-2.902010897040367,-0.26173343063788485
1705063978886562800,17.319562744140626,0.8877857284508645,-1.6182205022856593,-0.6850987446140497
1705063978936979000,17.36997900390625,-0.766964542395994,3.416703755958378,-0.15585035906108094
1705063978987410700,17.42041064453125,-1.060111622424051,4.223649376413226,1.09038978324458
1705063979037825800,17.47082568359375,-0.7405671685315668,3.7517780066117643,-1.5321721581220626
1705063979088255000,17.5212548828125,-2.168648253060132,2.502979430261254,-1.2773869574531913
1705063979138678800,17.5716787109375,-1.4325610064215957,-2.105638400787115,-0.20771597271366044
1705063979189131800,17.6221318359375,-1.893890962333977,-3.294932941028476,-0.6391948523774743
1705063979239545900,17.6725458984375,-2.216751920363307,-3.4256296974748373,1.3091145133644342
1705063979289961700,17.722961669921876,5.493682171711325,-1.0002166142359374,-1.1386875848803668
1705063979340406800,17.77340673828125,2.6457690678223966,-1.4992710283868014,1.1670736483439803
1705063979390835700,17.823835693359374,1.8116905257701872,-2.8510291900828477,0.10626719378987326
1705063979441265000,17.874264892578125,0.6072456165395677,-2.7828002879872917,0.7747039775416255
1705063979491666000,17.924666015625,2.960984771795571,3.4899788355275985,-0.9846456086818128
1705063979542111000,17.975111083984373,0.36633316613957284,5.808763435649872,-1.0075003415033221
1705063979592523800,18.025523681640625,-1.5062386754423378,4.080682920980453,1.1327173513643443
1705063979642974000,18.075973876953125,-1.8193844412736593,2.575878954516351,2.5290350780159234
1705063979693395000,18.12639501953125,-0.9652681965820491,-0.5656625101115554,1.5442466267973183
1705063979743816000,18.17681591796875,-3.6754634132161734,-3.098345954567194,0.4618452484907582
1705063979794248000,18.227248046875,-3.6226954073637723,-0.6505147763583808,0.451649396636337
1705063979844662800,18.277662841796875,3.2755966646566983,-3.810933083152771,0.6773413354203105
1705063979895094800,18.3280947265625,-0.9295727599531411,0.15389363550273702,0.2867979301970452
1705063979945510000,18.378510009765623,5.672324336159229,-3.0453432631760835,-0.8385797989942133
1705063979995937800,18.428937744140626,0.9638573799360542,-2.7101982853740454,1.2123910459294915
1705063980046383900,18.4793837890625,0.6108332657679915,2.3215293687857685,-0.12254457578137516
1705063980096789800,18.529789794921875,-0.422103495613113,2.2364308726929125,-0.6570260579485446
1705063980147231000,18.58023095703125,-1.8226283916309476,3.2323642566516995,-1.0235128802798688
1705063980197646800,18.630646728515625,-3.6218741541087627,1.319098147240281,0.5466013974193483
1705063980248092000,18.681091796875,-1.4404276481434701,0.4798641951862722,1.1935805469974874
1705063980298520800,18.731520751953123,-4.197803864277899,-3.8086373734310266,0.737369103142619
1705063980348935000,18.781934814453123,1.3951022133819757,-0.4312085565561428,0.19482085357159376
1705063980399350000,18.83235009765625,3.7948677912756796,-2.9904058043301105,-0.3957359688976779
1705063980449796900,18.882796875,1.4087934696041047,-7.747945199823379,0.7941888686038553
1705063980500205800,18.933205810546873,0.7473229994673282,-3.1490351083189245,0.5724406990095973
1705063980550681900,18.983681884765623,0.9462388672675937,6.566664454689621,0.035970632274518716
1705063980601128000,19.0341279296875,0.1900131975615397,10.763441021746397,1.2118174107600004
1705063980651542800,19.084542724609374,-1.160688038960099,5.529557787212729,0.28835297761932016
1705063980701959000,19.134958984375,-3.192862559607625,0.5103537702677771,1.6423104029253124
1705063980752405000,19.185405029296874,-1.8085624568775296,-1.6091291410744188,1.0794386195108294
1705063980802819000,19.235819091796873,-1.286711396767944,-6.964313527199626,3.738163615018129
1705063980853235000,19.28623486328125,1.3502360666953026,-1.1831252039566635,-2.540129303482175
1705063980903665000,19.336664794921877,6.469147498789429,-5.8463563764631745,3.951102309082448
1705063980954094800,19.3870947265625,5.456909315109253,-3.4916873930111527,-0.938748511512205
1705063981004541000,19.437541015625,1.4313687278971075,-2.952671701480448,-0.03736288578393869
1705063981054956000,19.4879560546875,-0.6371507793292402,1.6527438263952732,1.9953928962171077
1705063981105390800,19.538390869140624,-0.4909509679984301,5.806643959277868,0.19715185380242764
1705063981155799000,19.588799072265626,-1.3869262134499847,6.901593743914366,-1.7480461749859153
1705063981206240800,19.63924072265625,-2.720411928613484,2.8676459783628583,-1.3777613486111164
1705063981256667000,19.6896669921875,1.534340442071855,-3.4801562374323605,0.5198096174098551
1705063981307106000,19.74010595703125,-2.7272642787262797,-7.43883716507554,-0.8810049822695553
1705063981357520000,19.790519775390624,-1.1195640744764357,-1.3160362754516304,-0.9060535718735306
1705063981407935000,19.84093505859375,2.945243012784421,1.2954871161587536,0.07303190932995639
1705063981458359000,19.891359130859374,5.095590031608939,-3.91716526042819,0.7537509866882115
1705063981508812800,19.941812744140623,0.7331236475925892,-5.103220380356907,2.262002097931504
1705063981559227000,19.992226806640623,1.5231522547118366,0.6101593120291828,1.7726842110276222
1705063981609643000,20.04264306640625,0.5822301254875958,4.233698184479773,-1.6006455364979804
1705063981660087800,20.093087890625,0.2259263503280468,6.667741148898005,-0.7808600159533321
1705063981710504000,20.14350390625,-1.4626356805592775,5.590180890479684,1.0085731583666055
1705063981760932000,20.19393212890625,-2.938663342133164,-1.0586628118552266,2.400651128556579
1705063981811364900,20.24436474609375,-1.1504868898760527,-4.889686350747943,2.029912420934439
1705063981861780000,20.294780029296874,-3.9404602112978693,-4.158251606090366,0.43514257153682406
1705063981912225000,20.34522509765625,-1.5548802490144966,0.6885128639064729,-0.13524652870520948
1705063981962638800,20.395638916015624,6.566288607114553,-5.784290673172474,3.2138670614525675
1705063982013068000,20.446068115234375,-0.20461716644810513,0.18771620919816195,-0.35142741956114765
1705063982063483000,20.49648291015625,3.6427713961869475,-1.7700851344451307,1.1473277682580054
1705063982113928700,20.5469287109375,-0.09375017811204306,-0.08885822308571077,0.9274767375219612
1705063982164344800,20.5973447265625,-2.0921873830616473,5.251109679144621,0.4248151657246053
1705063982214774800,20.64777490234375,-0.937802389768511,5.030914438080788,0.8818104534335434
1705063982265191000,20.69819091796875,-3.224280026656389,2.387793985071033,-0.6115194944664836
1705063982315635000,20.748635009765625,-1.688177543348074,-2.152269365189224,-1.2667146106608211
1705063982366051000,20.799051025390625,0.5060116128776222,-5.442457011386752,-0.9868161576539277
1705063982416497000,20.849496826171876,-4.054203494855761,-3.7761189594030378,1.8124818222783505
1705063982466911700,20.899911865234376,6.052544719484448,2.335090568887442,-0.33191169496923684
1705063982517328000,20.950327880859376,2.7830829043209553,-4.534215501014888,0.19521067487308755
1705063982567773000,21.00077294921875,2.1522581131428478,-3.0951015658184886,2.850825776465237
1705063982618197000,21.051197021484374,0.48161063699480144,0.1318185544173699,0.600556201903522
1705063982668633900,21.1016337890625,1.048756188738346,5.054597511485219,-0.6931942266557365
1705063982719048000,21.1520478515625,0.7337510587759316,6.85231036530733,-0.6236731658577919
1705063982769459000,21.202458984375,-1.5504682777911423,3.198444159132242,0.38025088806133717
1705063982819892000,21.25289208984375,-1.340303432354331,-1.2450342553809284,2.1261130335390566
1705063982870338000,21.303338134765625,-0.7269335607808083,-3.0981895949617027,2.5233678460344673
1705063982920754000,21.35375390625,-2.1572429158180952,-0.21492067992808295,1.5108103672720492
1705063982971185000,21.404184814453124,-2.6020237418591976,0.2193978070758283,1.026439069924876
1705063983021618000,21.454617919921876,1.372652042773366,-2.990749503201246,0.5230724916633218
1705063983072036900,21.505036865234374,4.367926329922676,-1.7206950805932282,2.2583944288283586
1705063983122461000,21.5554609375,4.002792456570267,-3.3634164024069904,-0.8586330645289272
1705063983172892000,21.605891845703123,1.3615924502290784,-0.04509900102789979,-1.3382847860082983
1705063983223321000,21.656321044921874,-1.9610567652426658,5.4423202332645655,0.9002333412874489
1705063983273735000,21.70673486328125,-1.731367281255126,5.178624873170256,0.8693322262629866
1705063983324181800,21.757181640625,-1.4684225933976471,2.2779018239833415,-1.0738285976093263
1705063983374596900,21.807596923828125,-2.0104756067976353,-1.3682484009869396,-1.0230375909183174
1705063983425012000,21.858011962890625,-0.7469031666200607,-1.9400318051315844,-0.02614539013104513
1705063983475451000,21.908450927734375,-3.7570761130198833,-4.317592857740819,0.4847212067633867
1705063983525871900,21.958871826171876,3.999824254414439,-1.6232295626193285,0.4354102460296824
1705063983576290800,22.009290771484373,4.230283699861169,-0.3843536472050473,1.1299093082062899
1705063983626745900,22.059745849609374,1.3078795647419987,-2.9064243295684453,-1.0233842123989014
1705063983677161000,22.110160888671874,0.9895977511964738,-3.0128827168151733,2.3357921412855385
1705063983727594000,22.160593994140626,1.4950617401286959,3.800583830834925,0.09636851651743054
1705063983778008800,22.2110087890625,0.5760797496316954,6.507424914735555,-1.1043737388029693
1705063983828452900,22.261452880859373,-1.2375251949250696,4.698455922883749,-0.034123833080765324
1705063983878868000,22.311867919921873,-1.485147372096777,1.6816189154848455,2.2234718762680887
1705063983929283800,22.362283935546873,0.5749864379696548,-3.8002468539655205,3.367686042550206
1705063983979730000,22.41272998046875,-3.3201310951709746,-2.3115476346060633,0.9711565970335155
1705063984030155800,22.46315576171875,1.830781302948296,-3.7753701868623493,0.24746594543037934
1705063984080590800,22.5135908203125,4.563349825562536,-0.4366881570110097,1.5144197899408638
1705063984131005000,22.5640048828125,5.928869824498891,-4.139717001490295,0.7084774282444268
1705063984181419800,22.614419677734375,2.5583432978257536,-1.5141574857428668,-0.5829201170457526
1705063984231864800,22.66486474609375,-0.38979861473795024,1.2402661641962827,0.5505581722211093
1705063984282276900,22.71527685546875,-1.3501441506281495,4.021439581634104,1.5516843755826353
1705063984332696800,22.76569677734375,-0.20241748271305113,3.460108597920835,0.11682906594509258
1705063984383124000,22.8161240234375,-0.420522436966747,2.8218057259470224,-2.0443312607787547
1705063984433556700,22.866556640625,-2.213225207541883,1.2445271826416253,-1.1107054991077632
1705063984484001000,22.9170009765625,-0.9532691312305629,-3.626575171406567,0.37009094777051355
1705063984534412000,22.967412109375,-4.10269543082416,-3.9872202089071274,2.546979607768357
1705063984584833000,23.0178330078125,2.9284298251494763,0.03339971320743207,-0.9129995916191488
1705063984635278000,23.068278076171875,7.55484021025896,-4.448835557632148,-0.02611134401425952
1705063984685692000,23.11869189453125,-0.9250241567380726,-1.9548693087793885,0.08316255046105943
1705063984736138800,23.169138671875,2.5947876531258225,-2.229367071786523,1.483695273592323
1705063984786553900,23.219553955078126,0.7763215688060968,2.609329388697445,0.00127761929120461
1705063984836969000,23.269968994140626,1.0388752845846116,6.773833625441789,-0.1367751904440578
1705063984887419000,23.3204189453125,-0.8027518950920551,4.845009004631638,-0.3616379575280472
1705063984937829000,23.3708291015625,-2.163873439873755,1.60304719081223,2.0446388654232024
1705063984988274700,23.421274658203124,-0.2759898647284135,-2.6863459928825497,3.6493808774545786
1705063985038689000,23.47168896484375,-3.5188510020077226,-4.054828348755836,0.5549697415856644
1705063985089105000,23.52210498046875,-1.99175190936625,-2.5827131844505664,0.4397813007207587
1705063985139555000,23.57255517578125,6.181696000054479,-1.8235250482097267,1.6050130840577184
1705063985189952000,23.622951904296876,3.1853958769887685,-2.002012460487336,0.07812151495339348
1705063985240394000,23.67339404296875,3.6214953839242456,-1.0006759023107588,-0.4149318504180759
1705063985290809900,23.723809814453126,0.4265975921619683,0.6544225974518806,-0.6239296248368918
1705063985341239800,23.77423974609375,-1.570986895815283,4.900229956594109,0.8280458377592265
1705063985391687000,23.82468701171875,-0.6265826235637069,4.800391279748082,-0.05451566693705972
1705063985442101000,23.87510107421875,-1.327287591175735,2.9991113810941576,-1.9215873630329965
1705063985492541700,23.925541748046875,-0.4716325560769066,-2.6467241765901446,-0.034407725772773845
1705063985543015000,23.976014892578124,-1.6522141034327447,-4.965165077841282,0.29926278642937537
1705063985593431000,24.02643115234375,-0.6758733817595988,-4.245840457694232,-0.011593822718574665
1705063985643876000,24.0768759765625,3.8097850821614263,-3.1997844678252934,1.0520494581300766
1705063985694292000,24.1272919921875,2.5451424554690716,4.064716997824609,1.553462491171062
1705063985744707000,24.17770703125,1.8883806744799017,-1.9374666308186947,-2.8436031317353248
1705063985795152100,24.228152099609375,0.9069497900608926,-3.191864488480985,2.8852567461162804
1705063985845567000,24.27856689453125,0.9401566247444599,3.274724850258231,0.7408301303166895
1705063985895989200,24.3289892578125,0.8452232555966824,4.773981119467318,-0.9211890355546027
1705063985946435000,24.37943505859375,-0.35196280507948247,3.9401892854019995,0.006767130931199062
1705063985996857000,24.429857177734377,-1.1033738410454244,1.628267556786537,0.7962946817766875
1705063986047271000,24.48027099609375,-0.6214231219086795,-3.510112984278798,1.5112696553468703
1705063986097711000,24.530711181640626,-2.5024694349125025,-2.7350451418608426,0.8734455798659473
1705063986148150000,24.58114990234375,1.7885406824596226,-5.53289482268095,0.1396426539054606
1705063986198565000,24.631565185546876,4.142490557856857,2.272602548531443,1.638309788981825
1705063986248980000,24.68197998046875,5.648243787869811,-4.5447152677193285,0.7456540433418005
1705063986299425000,24.732425048828127,2.4912553824588657,-0.08642434700229204,-1.304153676086664
1705063986349853000,24.78285302734375,3.491602929598093,0.9584072978366166,-0.5684128317330033
1705063986400286000,24.833285888671874,-3.3160523014247416,3.147682816927135,1.065095694446936
1705063986450701000,24.883701171875,-1.1756952731516213,5.14709868505001,-0.2638269140521064
1705063986501116200,24.9341162109375,-1.0418228823438287,1.0521133171465247,-0.5633570461807772
1705063986551561200,24.984561279296877,-1.6826855218030512,-1.4647573488883674,0.9173610747642814
1705063986601975000,25.03497509765625,-1.3975561824053526,-2.821954194507003,0.5977734393171966
1705063986652422100,25.085422119140624,-4.0721918637499215,-1.7202390073888003,1.4970583207733927
1705063986702820000,25.135820068359376,3.453153956477344,-0.0423350618730532,-1.5550781096741557
1705063986753265200,25.18626513671875,6.363784505563974,-2.162370780225843,-0.7573182507157326
1705063986803677200,25.23667724609375,0.6645222589228302,-3.1124738486409185,-0.8521471365757286
1705063986854103000,25.28710302734375,3.3271693232446906,-2.8574337964281438,3.6518142420813438
1705063986904527000,25.337527099609375,0.9031058279838412,2.0899752599701285,-1.4092835912086068
1705063986954957000,25.38795703125,1.1295542111583052,5.5726808896243565,-1.2654722093842923
1705063987005388000,25.438387939453126,0.39562275431416927,6.140187931624054,-0.31597284248340873
1705063987055834000,25.488834228515625,-1.055431794044748,1.9186679684549568,1.8918569722883403
1705063987106248200,25.539248291015625,-0.38195056811869144,-2.090151931711286,2.0348647826448083
1705063987156670200,25.589670166015626,-1.5797741595134138,-3.5401942342877386,0.3704516343090683
1705063987207116000,25.640115966796873,-3.756202252794802,-1.9482453605949877,1.1120922772910444
1705063987257529000,25.690529052734377,0.13991989994426257,-2.0813255050465465,1.4498853584490716
1705063987307953200,25.740953125,4.7218984655305745,-1.3679310056008398,1.153302531818673
1705063987358398000,25.79139794921875,4.006444841597974,-2.866154570761323,-0.26965724590709433
1705063987408806100,25.84180615234375,2.370854540707916,-0.45806978507265445,-0.04501224519305397
1705063987459228200,25.892228271484374,0.8987976824611424,2.0304943124756214,0.028126524328149386
1705063987509658000,25.942658203125,0.6296183379977941,2.8246739748597145,1.241152153250575
1705063987560089000,25.993089111328125,-4.369131614059209,5.095837284368276,-1.1779574459299444
1705063987610534000,26.043533935546876,-0.2182130908032879,2.0526235805667934,-0.8538679690189659
1705063987660949000,26.093948974609376,-0.4447599293835461,-0.36538941901605576,0.5486449590109288
1705063987711382300,26.14438232421875,-1.368511874228716,-3.0490859568357465,0.006181643781243474
1705063987761809200,26.19480908203125,-3.7384181743010876,-1.2279651932887732,2.762492243973911
1705063987812243000,26.245242919921875,2.222673857758194,0.4872233988426625,-1.5528415827937423
1705063987862657000,26.295656982421875,3.8502103237912055,-0.9385038160361349,0.6557160713285207
1705063987913073200,26.3460732421875,-0.40842579299230125,-7.104400043281912,2.2395748698070643
1705063987963518200,26.396518310546874,-1.0606939523566514,-2.2713925882197916,2.5956062760323286
1705063988013936000,26.44693603515625,1.0471800985280424,4.055193967197836,-0.6475094570625572
1705063988064378000,26.497378173828125,0.2848482574339956,6.845402485615015,-0.5902066573247313
1705063988114793000,26.54779296875,-2.8106086246281863,4.559686042357981,0.7807465456414967
1705063988165209000,26.598208984375,-1.776775425864011,2.0236223808795213,2.872918073546886
1705063988215633200,26.648633056640627,-1.3985691588401794,-5.674615661966801,2.7743711900770665
1705063988266083000,26.6990830078125,-3.6482585954263804,-0.8074188639897852,2.014372321975231
1705063988316512000,26.749511962890626,0.11408073535133152,-1.2406909654796123,0.17524421083899214
1705063988366913000,26.7999130859375,3.8802980035409327,-1.0909271780569105,-1.6058743770621715
1705063988417345000,26.850344970703127,5.904519227096438,-2.6098811773613093,2.437224370933324
1705063988467791000,26.900791015625,6.272195770668983,-4.3584731496617195,-1.469189486116916
1705063988518206200,26.951206298828126,1.9098272210039198,-1.5112804690018296,-1.086915019806102
1705063988568621000,27.00162109375,1.067321699933335,3.9066704621598123,0.1021717685692478
1705063988619049000,27.052049072265625,1.3599182334065436,4.918082424148917,0.16984377656755967
1705063988669481000,27.10248095703125,0.8140135860797018,4.4906285804837935,-1.6409689251884818
1705063988719926000,27.152926025390624,-0.2384649841826409,2.5205486969605087,-2.19914027582705
1705063988770341000,27.203341064453124,0.7569325393337756,-3.0881337726324793,-0.06497353986168745
1705063988820757200,27.25375732421875,-1.3302344582825898,-4.721531678044796,-0.3610117884537205
1705063988871190000,27.30418994140625,3.1948470114231107,-3.939090091988444,-0.2638203564471565
1705063988921617200,27.3546171875,8.763965240129828,-1.3453813201405107,0.3167996486963704
1705063988972043000,27.40504296875,3.8311677696689963,-2.2291597126461564,0.47542950067445633
1705063989022461200,27.455461181640626,3.861253988113999,-2.7164728355988856,2.098684343865514
1705063989072900000,27.505900146484375,1.7772808911681175,0.6453768289480358,-0.2942358799117617
1705063989123322000,27.556322021484377,3.043178194096684,6.572060760775208,-1.2778848239727318
1705063989173767200,27.60676708984375,0.9289699717544019,5.365524578353762,-0.10381791007476858
1705063989224169000,27.6571689453125,-0.14827582302042283,2.006179663169384,0.8760489672973751
1705063989274614000,27.707614013671876,1.063770364127308,-2.5973966665804387,1.605627416563779
1705063989325022000,27.75802197265625,-0.9078188279803842,-4.1154444377601145,1.972313049402833
1705063989375474000,27.808473876953126,-2.089312558277696,-2.1674453070111572,-0.3454478336948901
1705063989425890000,27.85889013671875,2.2672354685403406,-4.523423473365605,0.04636183773768134
1705063989476318200,27.909318115234374,5.236531118693947,0.22828984632268548,1.8817692935161292
1705063989526750200,27.959750244140626,5.411359862333536,-3.3715266436263915,-0.8124088542968034
1705063989577165000,28.0101650390625,3.29045813370198,-1.6969120539456606,-1.2636179598197341
1705063989627609900,28.06060986328125,1.3594133526243268,2.643944190482795,-0.3806332749750465
1705063989678026000,28.11102587890625,0.28013054472971705,5.308379380330443,0.7791879180226474
1705063989728447000,28.161447021484374,0.9235057149991392,4.178168604959548,-1.1736156173333525
1705063989778870000,28.2118701171875,-0.5081609363986179,2.475931848859787,-1.9026218196697533
1705063989829315000,28.262315185546875,0.4121026914067566,-1.4911699933871625,-0.21958052496528252
1705063989879729200,28.312729248046875,-0.25866701053828,-4.893528120867908,-0.03748341602422297
1705063989930162000,28.363161865234375,-1.5936781817033887,-2.017786075941473,1.3024711298272014
1705063989980576000,28.413575927734374,8.124061654961109,-0.03567316086501814,-1.3430787422865629
1705063990031023000,28.464023193359374,6.269705707418918,-3.6060926476091146,1.0852579733140766
1705063990081451300,28.514451171875,2.6298174654528497,-1.0368373490162193,0.46294867968801406
1705063990131884000,28.564884033203125,3.23417159833461,-1.5923703139752148,1.445773393085599
1705063990182299100,28.615299072265625,3.1460119611054655,3.0641140146195887,-1.3657454782553016
1705063990232713000,28.665712890625,2.9724656584918496,6.813793879908323,-1.2417327296175062
1705063990283159000,28.716158935546876,0.08543751878887415,4.091304852759838,-0.10447037350097671
1705063990333574100,28.76657421875,-0.2945836887024343,0.044173255351954134,1.413765851189196
1705063990384003000,28.817003173828127,0.6216071001734584,-1.1673309841059147,1.3306271108619867
1705063990434434000,28.86743408203125,-0.6304148952029645,-3.198047268769145,0.21183493407350032
1705063990484844000,28.917843994140625,2.9346435850977897,-4.954532040145993,-0.8219780621528625
1705063990535278000,28.968278076171874,8.524487206447123,-0.5475939155880362,2.3431213151298462
1705063990585769500,29.01876953125,5.6634390189141035,-2.470440850228071,-0.48570309394020583
1705063990636183600,29.06918359375,4.235339229685068,-3.1088667640596626,-0.18276187472641467
1705063990686601500,29.1196015625,1.3735222497366368,2.381796059830487,0.19211395096676423
1705063990737029400,29.170029296875,1.2667718938060104,5.398947540006041,0.5953839503647759
1705063990787475500,29.220475341796874,1.666702647512406,4.344875709202886,-0.972204790912196
1705063990837890300,29.270890380859374,0.27849967385856433,3.5099271063178774,-1.465501299123466
1705063990888305400,29.321305419921874,1.0374352418441324,-2.2187885407574472,-1.279703709962964
1705063990938750500,29.37175048828125,0.2769889953009784,-3.800513103686273,-0.48676838508415965
1705063990989180400,29.422180419921876,-1.9291668583765624,-3.0885517057836056,1.6930900114394722
1705063991039612400,29.4726123046875,6.6747741162747145,-0.9986073524083942,-0.2550175481200218
1705063991090027300,29.52302734375,4.4370922206074,0.4190285451471805,0.6295118088833987
1705063991140442400,29.5734423828125,4.199977701185643,-1.7659822291709482,0.13383105415040628
1705063991190888400,29.623888427734375,2.8270088475480675,-3.962546663160622,1.1205055200450122
1705063991241315300,29.6743154296875,2.5185651219278573,2.3187933679506183,-0.8315780304733663
1705063991291731500,29.7247314453125,2.468831076943874,6.299964067560434,-0.17106836819276214
1705063991342146300,29.775146240234374,-0.6885697086602449,3.339367418299615,-0.6714104110013693
1705063991392596500,29.825596435546874,0.1981090083967894,2.3616335617676376,0.7736496461831033
1705063991443024400,29.8760244140625,0.7978671187251806,-1.4726033862136303,1.6938807234257458
1705063991493439500,29.926439453125,0.8119206323884427,-2.479827979515493,0.28621826714556664
1705063991543879400,29.97687939453125,4.196727467218041,-3.732445237371325,0.9852483968805521
1705063991594282500,30.027282470703124,2.4753350520104167,-0.014717769133608088,-0.9147027422752231
1705063991644715300,30.07771533203125,9.896016382670402,-4.7604424234583975,0.6490638468977064
1705063991695159600,30.12815966796875,4.291109924484789,-3.459895539692044,0.06947463240690994
1705063991745575400,30.178575439453127,2.746418768790364,0.6928135567750782,-1.5128032946549355
1705063991795990500,30.228990478515627,-0.29426519733779133,3.5482308257490396,0.5566812216786667
1705063991846419500,30.27941943359375,2.0937955489106477,4.4191397998094555,0.3346356400404125
1705063991896850400,30.329850341796874,0.806012723518908,3.8541991011664267,-2.010927149957418
1705063991947296300,30.380296142578125,0.6257165813189,2.4676927205637096,-1.5512214342460036
1705063991997707300,30.430707275390624,1.963564218018949,-1.3750053279012442,-0.9058314535554498
1705063992048140300,30.481140380859376,-0.9319178617745637,-5.316077533617616,0.2536321947088465
1705063992098554400,30.531554443359376,-0.04060225586423184,-1.1040461873490364,1.2784461111173033
1705063992148981200,30.581981201171875,6.242458804053068,2.142992564408481,-1.1677901260502637
1705063992199427300,30.63242724609375,5.374458995437622,-2.7440651914015413,-1.6287546096511185
1705063992249848300,30.682848388671875,2.6216829665750265,-5.119638431194424,0.7708343695666641
1705063992300277500,30.733277587890626,4.044138612437248,-1.7062570976570248,1.5573970541410147
1705063992350707200,30.783707275390626,3.0874767700284718,3.7852781251534817,-2.135565190886706
1705063992401122300,30.834122314453126,1.8733594848282633,6.516655099895596,-1.7272326656684278
1705063992451566300,30.88456640625,1.5362415995180605,2.982235357356071,-0.40842838680818677
1705063992501984300,30.934984375,-0.3512115848533809,1.8487196952208875,1.981649033024907
1705063992552398300,30.9853984375,0.8517780110023915,-1.2701488228932023,1.8591072337225079
1705063992602843600,31.03584375,-1.313096860998869,-2.795822558906674,-1.2066694534122944
1705063992653259500,31.086259521484376,-3.285025294998288,-2.9345336949825285,-0.7599748296391219
1705063992703673300,31.13667333984375,5.628211638188362,-2.602796772058308,0.2678948576107621
1705063992754111200,31.187111328125,4.538343394599854,-1.4829358335271476,-1.1568048408512026
1705063992804534500,31.237534423828127,6.0593485542804,-5.241928593823314,-1.573917834700644
1705063992854981400,31.2879814453125,3.6501211744278668,0.03297301222796086,-0.8452025050695985
1705063992905409300,31.3384091796875,0.0057257749311480435,4.358869455502927,0.7699138206556438
1705063992955824400,31.388824462890625,1.0600680024780333,4.931213123878837,-0.6733646868743002
1705063993006239500,31.439239501953125,0.4462146582365036,5.020453834342956,-1.6474973040439187
1705063993056680400,31.489680419921875,-0.5808419225322082,0.2750900298118591,-1.3570515919290482
1705063993107099400,31.540099365234376,2.6693139017999172,-4.876605043117702,-0.960914531417191
1705063993157532400,31.590532470703124,0.5483647172974422,-5.24995524841249,-1.3011504026174545
1705063993207946200,31.6409462890625,6.487900130054355,-3.3899665556803344,1.2669739922493695
1705063993258392300,31.691392333984375,4.085824375522137,2.678049873702228,-0.9198413472726941
1705063993308819200,31.741819091796874,2.7285195394843815,-0.7553902052626014,-0.4713705441398546
1705063993359253500,31.79225341796875,4.36240698197931,-3.782449915990233,1.6313032712206244
1705063993409668400,31.84266845703125,2.3267817363560197,1.2514436840318142,-0.7988171859916299
1705063993460083500,31.89308349609375,2.837217230090499,5.047884277582169,-1.138456771799177
1705063993510529500,31.943529541015625,1.06757845117338,5.5482654102921485,-0.7486740487501025
1705063993560944400,31.9939443359375,0.020404512958065606,2.3601197962038216,-0.3081713749522343
1705063993611373300,32.044373291015624,0.5403177505725995,-2.3522784350536763,0.6928132645141333
1705063993661806300,32.09480639648437,-0.28955822522323577,-2.490404610848427,0.7212132103726268
1705063993712232400,32.145232421875,2.994321224208176,-6.224632639983296,0.9088860918857157
1705063993762648300,32.1956484375,6.1314253639757625,1.729260225973278,-0.8888148523028939
1705063993813080300,32.24608032226563,8.68984552643001,-3.9739594530567524,-1.8731401429891585
1705063993863518500,32.2965185546875,3.5315815965041515,-1.1695526056781411,-1.9332221251167356
1705063993913923600,32.34692358398438,2.95840323086977,-0.04724663948188536,-0.7746075314298272
1705063993964353300,32.39735327148438,1.032673142008856,2.5872256934389473,-0.2570265133222565
1705063994014800400,32.44780029296875,0.7665183329984545,4.560286638599634,-0.4269012878162786
1705063994065216300,32.49821630859375,0.4222404929310083,4.381740335741639,-1.7768293480083346
1705063994115631400,32.54863134765625,0.49750316612087186,2.3666204102694985,-1.9613741606287658
1705063994166080500,32.59908056640625,0.9238459067389369,-2.1062444038562473,0.2870172720361501
1705063994216492300,32.6494921875,-0.5416433000879362,-3.4356308670073745,-1.4723133172258733
1705063994266936300,32.69993627929688,0.833293090762943,-1.2478785388961433,0.1961423479663208
1705063994317352200,32.750352294921875,7.527161345216632,-0.19210543886674566,0.3619271497329697
1705063994367766300,32.80076635742188,5.013794376453757,-3.127564450266957,-1.9891822050087153
1705063994418208300,32.851208251953125,4.355536219426989,-5.352407907149195,-0.3168460451213643
1705063994468628500,32.90162841796875,2.7573285776004193,-0.3663888418495655,-0.4359602445952594
1705063994519057400,32.95205737304688,3.2173718547031283,4.186598871913552,-2.253453903686255
1705063994569489400,33.00248950195312,2.2585019808560607,6.620200814566016,-1.9829329353556036
1705063994619903200,33.0529033203125,0.2633795904097147,4.07836733751446,-0.19474795273216441
1705063994670335200,33.103335205078125,0.023340402013179846,0.25737507103160023,2.132580475987494
1705063994720777500,33.15377758789062,1.9384417594611643,-3.4214339993506666,1.981885033737868
1705063994771193600,33.20419360351563,-2.4940435518726707,-2.7995556079551576,-1.9965812292188405
1705063994821607400,33.254607421875,3.584191196924448,-5.577419608584046,-2.3258906327351925
1705063994872054300,33.30505419921875,8.239891097143293,0.4179792187573388,-0.9234687439896165
1705063994922486300,33.355486328125,3.9877380953013897,-2.232945222534239,-0.33823742739204316
1705063994972901400,33.4059013671875,4.776089782184362,-3.497098312143981,-0.016588926450483266
1705063995023330600,33.45633056640625,2.500606855911016,-0.7028051547616719,-1.2148982795100658
1705063995073745400,33.50674536132812,0.9996939786013215,2.5160113457918167,-0.8307048278354108
1705063995124175400,33.55717529296875,0.9180208538472652,3.3986344307824967,-0.0953217565440107
1705063995174604300,33.607604248046876,0.5203691144561394,4.989706229379773,-1.9608669417589901
1705063995225050400,33.65805029296875,-0.2030670509292744,2.661963831298053,-2.720644860586524
1705063995275462400,33.70846240234375,1.945722417988628,-1.9147069558694958,-1.3218074061989784
1705063995325878300,33.75887817382812,-1.8117269122578203,-5.382416676443815,-0.7484096256602555
1705063995376326400,33.80932641601562,-0.6075562899239361,-1.838642537842691,-0.7485732187241315
1705063995426737400,33.8597373046875,7.224786418116092,0.8119638139430433,0.6872951586797833
1705063995477155300,33.9101552734375,5.889488831225037,-4.26397115766853,0.1470704749518074
1705063995527587300,33.96058740234375,3.235125245797634,-2.3775207205988464,0.9296813348941504
1705063995578045200,34.01104516601563,3.1023052135869857,-1.1787094333410262,0.611403539936617
1705063995628460300,34.06146020507813,3.1119927871257067,2.5411466638311744,-2.3814105676442385
1705063995678876200,34.111876220703124,2.426700054309517,5.660300136366486,-2.2625290444150568
1705063995729321200,34.1623212890625,0.1907814419876784,3.480459019771218,-0.5874795704483986
1705063995779735000,34.21273510742188,-0.09027433696133084,0.7087624557308853,1.4629934079557656
1705063995830182100,34.26318212890625,1.4083829891070723,-3.491328496570885,0.5069163066323846
1705063995880591000,34.31359106445313,-1.8556337123930453,-2.0478779934749007,-0.965544748501107
1705063995931025200,34.36402514648437,4.132474190755188,-4.539015594772994,-2.000976979959756
1705063995981440000,34.41443994140625,8.502274205595254,-0.4278650182818994,2.1979583725661036
1705063996031886000,34.46488598632813,6.200508252552151,-4.293875005283952,-1.34468793104887
1705063996082318000,34.51531811523437,4.372923115296661,-3.7042119533166287,-1.628351727938652
1705063996132733200,34.56573315429687,1.71181926182881,2.5700334433585406,-1.2107112761490046
1705063996183161300,34.61616137695312,0.9207133808668703,4.7517336318239565,0.0013151801027219334
1705063996233594000,34.66659399414063,1.4973464900650084,3.85914444861412,-1.3522612889125942
1705063996284009200,34.71700927734375,0.8446034431979059,3.1369550866857168,-2.109616656768322
1705063996334453000,34.76745288085937,0.41988614835720506,-2.0112899919204414,-1.74933358444795
1705063996384869000,34.817869140625,1.145983660172671,-4.5766561741203065,-1.7740221816331148
1705063996435284200,34.8682841796875,-3.863784967896342,-3.9080394124254583,0.5605437788583338
1705063996485712100,34.91871215820313,8.792469450080395,0.6310724823288619,-0.4701444729436189
1705063996536144400,34.96914428710937,6.88530370337069,-2.517851128439605,-1.0934878223251552
1705063996586560300,35.01956030273438,3.1329546188727018,-3.4280957953274247,1.6498844914413988
1705063996636989200,35.0699892578125,3.5347929597660896,-0.5760139909191057,1.3138602465867995
1705063996687435300,35.12043530273438,3.505752743242681,3.3738860662341117,-2.7130808550730348
1705063996737850000,35.17085009765625,2.7092078130319712,5.748972107031941,-2.344292696996778
1705063996788283100,35.221283203125,1.3421623580940067,3.782735454933345,-0.9294991832602768
1705063996838709000,35.271708984375,0.3390647815942764,0.06442029902625362,0.9147649207912385
1705063996889141000,35.32214111328125,0.5276103177560493,-3.066920011951029,1.6789214930944143
1705063996939557000,35.37255712890625,-1.7863192070178686,-3.2303514555245636,-1.0985184369035064
1705063996990001200,35.42300122070313,2.4836446151942013,-5.823478774222731,-0.10755698700523934
1705063997040417300,35.473417236328125,5.513923580229282,2.855849742107093,-1.4740356109738348
1705063997090831000,35.5238310546875,8.287530215674638,-4.360385413023829,0.1153596783791203
1705063997141278200,35.5742783203125,5.031414204296469,-2.4337217696398494,-0.5180276293639093
1705063997191693000,35.62469311523437,2.520338561341166,0.2410009506673552,-2.1022952278390528
1705063997242107100,35.675107177734375,0.8136067588444799,2.966447128854692,-1.155912275925651
1705063997292553200,35.72555322265625,0.9647006258271634,4.2151714709252115,0.1885578476540744
1705063997342980000,35.77597998046875,-0.35933132455348965,3.0592481621488927,-0.8267968606114388
1705063997393397000,35.82639697265625,0.2945557595158927,1.8728119339480995,-2.1526913899935782
1705063997443842000,35.87684204101563,1.4003897983960807,-2.5377576059147713,-1.0937916275773196
1705063997494258200,35.927258056640625,-0.41398043144475666,-5.087098682117462,-0.8876563299175352
1705063997544669200,35.977669189453124,5.885470243233442,-3.374552713449299,-1.2365430520199239
1705063997595099100,36.02809912109375,8.012986713829637,1.9414593537166713,1.0541847165931015
1705063997645545200,36.07854516601562,4.768379646198452,-4.210568068782985,-1.5270168211854993
1705063997695966200,36.12896630859375,3.6208413039296863,-2.0700942091971632,2.5880811412245035
1705063997746381000,36.179381103515624,2.213532373794913,0.21877666123649103,-0.7893191436756402
1705063997796826000,36.229826171875,2.82455122526288,4.679519751745462,-2.037572434168309
1705063997847241200,36.2802412109375,1.870929188941419,4.532750104637444,-0.6368336031388491
1705063997897687300,36.330687255859374,0.6820307353455572,2.5891329883649945,0.22258332351045682
1705063997948102100,36.38110205078125,0.8841467874266207,-0.5464687840156257,0.8348292142890393
1705063997998528300,36.4315283203125,0.33628304192125796,-3.1105270984873172,1.52481916501075
1705063998048961300,36.48196118164063,-1.0988144241753965,-1.958948979308456,-0.266283951815404
1705063998099377200,36.532377197265625,1.8928912837721406,-3.721192606472969,-0.5858873693535104
1705063998149805000,36.58280517578125,9.967421576714514,-0.6320991950280964,1.6322788382545113
1705063998200220200,36.63322021484375,8.265927455675602,-2.9833649459078906,-0.3122111518623307
1705063998250666200,36.68366625976562,4.02602661716342,-1.4171217374883591,-1.3152913023032247
1705063998301082000,36.73408203125,1.1471042617004363,2.5563328347861765,-1.2605302229374646
1705063998351514000,36.78451416015625,1.0052966209139673,4.261023706039786,0.10024837189177051
1705063998401929200,36.83492919921875,0.626593071892485,4.196235884308814,-0.8892305934969336
1705063998452374300,36.88537426757812,0.5285260808940977,0.39349520423356443,-2.136204950094968
1705063998502789400,36.93578930664062,0.9227458365425467,-1.6149901420623063,-0.9950856810882687
1705063998553205200,36.986205322265626,0.5628093491701409,-4.1864091945603485,1.6241076606281102
1705063998603650000,37.03665014648438,-1.7994954994551837,-1.8387129727303981,-1.144365119060129
1705063998654064000,37.08706420898437,7.196027356621623,1.9117957445979117,-0.789480910108611
1705063998704510200,37.13751025390625,6.153507431924343,-2.507262222146988,1.4763710681840776
1705063998754924000,37.18792407226562,3.308694047616422,-2.5770345542922612,-0.8763436393950134
1705063998805341200,37.238341064453124,3.900592895811796,-2.7528300971373914,0.3249160273956135
1705063998855786000,37.288785888671875,4.471647108899057,3.529202884674072,-0.6121527143361046
1705063998906215200,37.33921508789062,2.6724364177346227,5.163440748041868,-2.031196177134663
1705063998956630300,37.38963037109375,0.7364142135705798,4.248194035083055,-1.0353588739614934
1705063999007075000,37.44007495117187,-0.302182528067287,0.1123334167599678,1.2958167865045367
1705063999057499100,37.4904990234375,1.6930886962652205,-3.2492201143845914,2.1972854417406023
1705063999107921200,37.54092114257813,-1.6888611416980623,-3.010841566376388,-2.0801118914730847
1705063999158337000,37.5913369140625,2.819376452973485,-3.5051278893426057,-0.7313656249441206
1705063999208761000,37.64176098632812,6.760989341437816,-2.64908272241503,0.5451640946252271
1705063999259194000,37.69219409179688,5.784898575937747,-3.82710388123095,-1.230190760383755
1705063999309626000,37.74262622070312,4.657720007869601,-3.1145658524841067,-1.5578877602674066
1705063999360059100,37.79305908203125,1.7295725067928431,0.5034305468758568,-0.37398265797942876
1705063999410474000,37.84347387695313,-0.437845437287353,4.534767874200642,0.24192911662925035
1705063999460888000,37.89388818359375,0.6149097214266658,4.544061187724769,-1.1954277822993695
1705063999511329300,37.944329345703125,0.7000285296551882,3.8887919833809135,-1.8332732658945023
1705063999561749200,37.99474926757812,1.9029734095863997,-0.46905528946742414,-1.6158357991062104
1705063999612195300,38.0451953125,2.5343109725922344,-3.6417704024508595,-1.2857286693409085
1705063999662623200,38.09562329101563,-3.3687463652580973,-4.143873244386911,0.2695778422616422
1705063999713038000,38.1460380859375,6.470739151895046,0.33488146802764385,0.6070644147537648
1705063999763454200,38.1964541015625,7.08118458738923,-0.19339703131355343,-0.8521876147165894
1705063999813897200,38.246897216796874,2.8072072917521,-4.401289670342207,-2.4954423127546903
1705063999864314000,38.297314208984375,4.6920264743581415,-4.0573233804419635,3.5253409485489127
1705063999914745000,38.3477451171875,3.09556450715512,2.209030678461492,-1.9089223811186848
1705063999965161000,38.398160888671875,3.949679290542006,4.995580089849233,-2.8362407862737773
1705064000015607000,38.44860693359375,2.0474749656319617,6.296655673664808,-2.1541867431178687
1705064000066022100,38.499022216796874,0.5966669393800199,1.162902938530594,0.29888743204465135
1705064000116450000,38.54944995117187,1.4669452143214643,-3.366222107477486,3.1437226811245083
1705064000166882000,38.599882080078125,-2.3306094779506323,-2.773282518057525,0.030140738810948094
1705064000217297200,38.650297119140625,3.0487372895285487,-6.155460319557785,-0.022910132253577464
1705064000267742200,38.7007421875,6.539855942741036,-0.7844485419645905,-1.2927110755741595
1705064000318158000,38.75115795898437,6.428887969115376,-4.294117581868171,-0.1951847732468508
1705064000368584200,38.80158422851562,6.3666077462911606,-3.4285739342331882,-0.84744948027879
1705064000419001000,38.8520009765625,1.5227265766456721,1.1484222124312071,-2.2917501704633234
1705064000469448200,38.9024482421875,1.0911905782334506,4.013738213476539,-0.6070073873369023
1705064000519863000,38.952863037109374,0.9490995173957198,4.493075389114022,-0.6496996605832129
1705064000570372600,39.00337255859375,0.02403329106461024,3.266855139796436,-2.318317859393358
1705064000620774700,39.053774658203125,1.0942743695929646,-0.8351140956450254,-1.6905442724794149
1705064000671207700,39.10420776367187,1.61295498297289,-3.7685330343186854,-0.2711621523110196
1705064000721634600,39.154634521484375,-2.657208161203563,-3.8133021503716704,0.38457280638106167
1705064000772079600,39.20507958984375,6.0022898654967545,0.10862398604908957,-0.43993809871766715
1705064000822495700,39.255495849609375,10.07541667200923,-1.8934426340445876,0.7712730532448738
1705064000872910800,39.305910888671875,3.386427567899227,-3.4296146754577754,-1.4525275435209273
1705064000923356700,39.35635668945312,3.99251130105257,-3.565326337456703,1.4423628539897502
1705064000973782500,39.40678247070313,4.044815488785505,2.5092636250972746,-1.507035817169398
1705064001024186600,39.4571865234375,3.6803260508164763,5.186311336019635,-3.017934154985845
1705064001074632700,39.5076328125,1.0832686261277644,4.726579609084129,-1.1058360664404927
1705064001125046800,39.558046875,0.9338860200423746,2.343825079485029,0.6850039790026843
1705064001175467800,39.6084677734375,1.1666839183740316,-1.0719815084379165,0.9532612401850521
1705064001225920800,39.65892065429688,-2.3991095982030033,-4.274482614810765,-0.3084642569515854
1705064001276335600,39.70933569335938,-3.3325562769800423,-6.319073841699957,-1.0117218316558747
1705064001326768600,39.7597685546875,7.50191175314784,1.0437033623281866,-1.5926741192273794
1705064001377182700,39.8101826171875,4.929183079355955,-1.8969741691716013,0.3561472511572763
1705064001427628800,39.86062890625,5.3525896934568875,-3.2937656508147715,-0.03424015750339022
1705064001478042600,39.91104272460937,3.3689994632363316,-0.5259635369297117,-1.8821129923872648
1705064001528459500,39.96145947265625,1.531038331786543,3.1181513097554445,-1.9600246457159518
1705064001578901800,40.01190185546875,0.7707668572884052,4.550721230135858,-0.23268101222002877
1705064001629319700,40.062319580078125,0.07089665543350857,4.387181650012732,-0.9008931934356689
1705064001679734800,40.11273486328125,1.0541454074960201,0.6667253949902952,-2.168256915654987
1705064001730180900,40.163180908203124,2.4417148142203686,-4.287213209307193,-0.8356976676866412
1705064001780595500,40.21359545898437,-1.1646095232527702,-5.060578339460492,-1.0529662807140499
1705064001831040500,40.26404052734375,-0.17224051724467426,1.2397846642896533,-1.7135818875871598
1705064001881469700,40.3144697265625,10.994409001237154,2.056061592191458,0.5135957113310694
1705064001931870700,40.36487060546875,5.1619256673038,-5.826751512283087,-1.0287774497445672
1705064001982298600,40.415298583984374,1.9558231023728847,-2.5125381167232987,2.6610417480170727
1705064002032745500,40.465745361328125,4.176898146632314,0.6073897742506116,-0.5630535331895574
1705064002083167500,40.51616748046875,3.5612340997070073,3.4802979839906096,-2.3251342614099384
1705064002133591600,40.56659155273437,3.6806159736737607,5.505392483249306,-2.2226590985804795
1705064002184018700,40.61701879882813,0.6933606692638248,3.10418152885288,-1.11410566294007
1705064002234436900,40.667436767578124,-0.9946088573567569,-0.783263423833251,0.9500136365659534
1705064002284880600,40.71788061523438,0.7626642148535698,-4.719380345229804,0.7173993511728942
1705064002335282700,40.76828271484375,-1.908893301154673,-2.518431266415119,-1.8274280469976365
1705064002385728500,40.818728515625,6.409626219284534,-6.899446210491657,1.169135622375086
1705064002436142600,40.869142578125,2.145271030734479,-1.3190044776074588,0.8578589383512735
1705064002486570500,40.91957055664062,6.982841702058911,-5.26478164614439,-1.4959616115778684
1705064002536997600,40.96999755859375,2.4246884222261604,0.06165746041652746,-0.8599985807284712
1705064002587431700,41.020431640625,0.30984716267734763,3.480231348495185,0.33179099119901656
1705064002637847600,41.07084765625,1.328684013970196,3.733378718829155,0.4500331570787355
1705064002688293600,41.12129370117187,0.8028498025085776,4.742839546750486,-1.624909916921705
1705064002738720800,41.171720703125,1.4212414477668702,0.8367252571687102,-2.8902646374061702
1705064002789138400,41.22213842773437,3.7698511311799288,-1.6809062371708452,-2.304041058368236
1705064002839562800,41.27256274414062,-3.3398607547745107,-4.761181551387906,-0.460900076595135
1705064002889984500,41.32298461914063,2.8535116545483468,0.5665060847962274,0.06373027550205589
1705064002940428800,41.3734287109375,12.050393387663364,-0.12508119072006083,2.1344569373838604
1705064002990830600,41.42383056640625,2.736131475792825,-2.0168900038845834,-3.2552900819480417
1705064003041275600,41.474275634765625,5.0457349905937905,-4.323848411004245,2.096842369260639
1705064003091710500,41.52471044921875,3.9358039099246263,-1.4746630952224133,0.555630507049337
1705064003142136600,41.57513647460937,3.0809961758375164,2.6184265951275822,-1.4449671912692486
1705064003192552400,41.62555249023438,3.8244633035942908,5.176684260496497,-1.1340010344993323
1705064003242966500,41.67596655273437,1.5093684979006647,3.558335163395107,-0.9022014264900237
1705064003293411800,41.726411865234375,0.20367849735850468,0.8607216343060136,0.7633256013717502
1705064003343827700,41.77682763671875,0.30096485937321554,-2.265382095758617,0.08407634083773009
1705064003394255600,41.82725561523438,-2.1146604961544275,-1.692803595713526,-0.6625208559725433
1705064003444687600,41.8776875,5.170794033414126,-1.6203560530096293,0.4182054652612656
1705064003495100700,41.9281005859375,5.362953851082921,-3.3338387180060147,-0.8480405780397355
1705064003545532700,41.97853271484375,5.343081275877356,-3.681063425180316,-1.6198134705655276
1705064003595977500,42.0289775390625,4.810125322777033,-3.5230391013473272,-1.190103883862868
1705064003646391600,42.0793916015625,2.4615777448147536,0.2650043420673348,-0.12146760333278216
1705064003696832800,42.12983276367188,1.0256520842656494,3.1947149094760414,0.2106662190876901
1705064003747238700,42.18023876953125,2.074752118005603,4.049041874308884,-1.2677118050046265
1705064003797685500,42.230685546875,1.6544357250049708,4.490922302733361,-2.309248417752981
1705064003848100600,42.2811005859375,-0.2726835714583285,1.6383214794196188,-1.493522986254096
1705064003898514700,42.3315146484375,1.9116912613101302,-1.716554181396216,-1.3816419894367455
1705064003948959500,42.38195947265625,-1.8897266822613774,-4.9180333243101835,-0.6190946058958768
1705064003999379700,42.432379638671875,5.522681471702456,-4.484233034227788,-0.44368294780179857
1705064004049790700,42.482790771484375,9.171555860939621,0.31651589985154566,2.6142075161278244
1705064004100235800,42.53323583984375,3.960813555757701,-3.2748297719374295,-1.1767474856182931
1705064004150651600,42.58365161132812,5.81471445300877,-4.747407877579331,1.3155590133287012
1705064004201096700,42.6340966796875,3.4610064235433935,0.25979493685597554,-0.47512905642315745
1705064004251501600,42.68450146484375,3.5042210036307573,4.707370466223359,-1.5728319391600787
1705064004301929700,42.7349296875,1.468578514611721,5.0853842794150115,-1.50018755870983
1705064004352356600,42.785356689453124,1.092689657684788,2.4508052986487745,0.19277924647508188
1705064004402801700,42.8358017578125,0.8102234730817377,-0.567253834423609,1.1200003470018505
1705064004453233700,42.88623364257813,1.3180628128431737,-2.396153963267803,3.3061195209532976
1705064004503648800,42.93664868164063,-1.423448310161382,-2.104288739743829,-0.8896073909200728
1705064004554062600,42.9870625,3.3402693355754014,-3.5494317259714006,-1.0069574667982757
1705064004604503600,43.03750366210937,6.622407969221473,1.010342213865742,2.326463025795668
1705064004654923800,43.087923828125,5.634726134648918,-4.495611045071483,-1.476123084772378
1705064004705338600,43.13833862304688,3.9529689797371623,-2.05974992531538,-1.277456515558064
1705064004755784700,43.18878466796875,2.2798748776219786,2.49205880779624,-0.3129705188622698
1705064004806199600,43.239199462890625,0.6077242303693666,3.7846111856773494,-0.4513364582296461
1705064004856645600,43.289645751953124,1.7493910137236117,4.760871170264482,-1.1315265341445804
1705064004907062800,43.340062744140624,0.5017352507326752,2.2659989124827087,-1.5803900994546711
1705064004957474800,43.39047485351563,1.179435117267072,-0.5573483438178897,-1.106501252350956
1705064005007898600,43.440898681640626,0.6017620705619454,-5.2078457069575785,-0.9093497638747096
1705064005058349600,43.491349609375,-2.3935804595179855,-3.136097008551657,2.8621605326890944
1705064005108763600,43.541763671875,11.01511744274497,3.10779913482815,1.2893532895788549
1705064005159179800,43.5921796875,3.357072586338222,-4.897903851734101,-2.0131512557476756
1705064005209625600,43.64262548828125,5.39949056084156,-5.1465813831776375,0.35448140030428765
1705064005260055600,43.6930556640625,5.176991134488582,-1.027796914274618,0.5233585785957053
1705064005310471700,43.7434716796875,3.757653328385949,3.926402752111852,-1.6331319479525088
1705064005360886500,43.79388647460937,3.190260560415685,6.585818067970871,-1.880930504604429
1705064005411332600,43.84433251953125,0.7018113944839686,4.577467198242247,-0.4533884223233908
1705064005461746700,43.89474658203125,0.46712600190527737,0.16195154374670237,1.1996063831582664
1705064005512193800,43.94519384765625,1.1168245665099472,-5.073963306212425,3.114198188215494
1705064005562648300,43.9956484375,-2.8528514370739457,-2.3850233513139187,-1.9380179810911415
1705064005613062400,44.0460625,2.373953968027979,-8.722510363191367,-1.459806156221777
1705064005663508200,44.09650830078125,6.960964216771721,-0.7677401298783719,2.169140712752193
1705064005713923300,44.14692333984375,6.619378392267227,-4.03431601434201,-0.5287430115804076
1705064005764365300,44.197365234375,4.189638385739922,-1.111284906430915,-1.1248580892313271
1705064005814764300,44.24776440429687,1.3088700370840727,3.0208240312084556,-2.348341972387582
1705064005865212200,44.29821215820313,1.2418966880075633,4.26696595557034,-0.4629063018510118
1705064005915645400,44.3486455078125,1.3379082077808677,2.834001775175333,-0.3880364639036357
1705064005966059300,44.39905932617187,1.281092095581442,-0.01610868463588995,-1.2962744671441613
1705064006016475100,44.44947509765625,1.5366180316150189,-2.1679573481865226,-1.3997639215826987
1705064006066919400,44.49991943359375,1.3330533150956034,-3.6408006806358695,-1.0592449225921183
1705064006117348000,44.55034814453125,-1.3263108550980687,-0.39640429661329835,-0.9204335410121828
1705064006167750400,44.60075048828125,8.813598747348784,1.8208097979016602,1.1436648618362844
1705064006218196500,44.65119653320313,7.793167320340872,-3.2663089040905233,0.15618759165881202
1705064006268610300,44.7016103515625,-0.23026543897828086,-3.0064725575119255,0.8300253211386501
1705064006319055400,44.752055419921874,6.3065177269876,-0.4633845503546297,1.855909460594505
1705064006369471200,44.80247119140625,3.4543554412215944,3.220247702400386,-0.7671268202856183
1705064006419908400,44.85290844726563,2.956101675929129,4.796215163107216,-2.333080836500227
1705064006470332400,44.90333251953125,1.6079551288589835,3.4995036197200418,-0.9400179469261318
1705064006520760300,44.95376025390625,1.3554536552131176,1.0878865682519971,0.8420363691888749
1705064006571175400,45.004175537109376,-0.4510389731204137,-4.955457338297367,0.9038425447605549
1705064006621590300,45.05459033203125,-1.0935198248986153,-1.3837161653622985,0.7009322735618799
1705064006672037400,45.10503735351563,3.414505369131267,-7.222412674722075,0.4918655620926991
1705064006722452200,45.1554521484375,3.985318174678087,-0.8962064969241619,0.5640634408844635
1705064006772883200,45.20588330078125,5.616370393747091,-3.574481411553919,1.4202614968188105
1705064006823298300,45.25629833984375,5.053753461876512,-2.7132214325875044,1.4013798323467372
1705064006873744100,45.306744140625,2.0196382796794174,1.593183091662824,-1.328684013970196
1705064006924159200,45.3571591796875,1.4515264036543667,2.9484654819622635,0.44654469390846785
1705064006974604300,45.40760424804687,2.2508020740032193,3.766489545792341,-0.36751035669278354
1705064007025033200,45.458033203125,1.0782507249005138,3.137831284998357,-1.661563384927809
1705064007075435300,45.50843530273438,1.5635012162350117,-0.18187447916632518,-1.299574677733332
1705064007125880300,45.55888037109375,1.3790334143735468,-3.686831779448688,0.14954223536020145
1705064007176295200,45.60929516601563,-0.31449794762525707,-1.8533103840120135,1.787161503060907
1705064007226710300,45.65971020507813,6.7993672951489685,1.4126036755420266,2.654330267679691
1705064007277139200,45.71013916015625,5.19072096915543,-0.7414369371034204,-1.0334555245582013
1705064007327585300,45.76058520507812,2.903935143101215,-4.381075149831176,-0.5393641396421939
1705064007377999400,45.810999267578126,4.357404935908317,-3.6834862684130667,2.0881072741411626
1705064007428444400,45.8614443359375,3.5202760663747785,2.683767666827142,-0.2567201873194426
1705064007478846200,45.91184619140625,2.1929932975046333,5.380685322606563,-1.7093743528947234
1705064007529291300,45.96229125976563,2.860212028969824,3.8170021739333864,-1.011582934641838
1705064007579704300,46.01270434570313,1.3479847806371748,1.8546997925437987,1.3184979893900453
1705064007630152200,46.063152099609376,-1.4301384554497896,-2.191998733509332,2.8708269464865324
1705064007680568300,46.113568359375,-1.849644847241789,-2.88657279715091,-1.5531547403961419
1705064007730983200,46.16398315429687,4.76702004828304,-8.036832868841291,0.7911644062161445
1705064007781428200,46.21442822265625,9.549755552092194,2.9362174102857708,1.7257357051089406
1705064007831843300,46.26484326171875,8.306485091513395,-4.901741530200839,0.07894577301624231
1705064007882257200,46.315257080078126,4.206308073250949,-0.9266941357769072,-0.014238472600508248
1705064007932704300,46.36570434570312,1.390663061890751,2.499767774738371,-1.5609750587582587
1705064007983118300,46.416118408203126,0.7451959243107587,4.644571187961101,-0.05946007823641412
1705064008033548300,46.46654833984375,1.9606750724487005,4.973219204959273,-0.0737451904321555
1705064008083962000,46.51696215820313,1.8372766563169658,0.32494781077336515,-1.5069858405478298
1705064008134407200,46.5674072265625,2.204971320068091,-2.17616388938725,-0.6356400825053453
1705064008184819200,46.617819091796875,-1.5495957327403127,-3.1392154328331348,0.587251351183094
1705064008235254300,46.668254150390624,-1.1970203121878207,-2.0172646824158726,0.7891383802812546
1705064008285670400,46.71867041015625,5.896431197708845,1.149116989762336,0.43031946222931144
1705064008336116200,46.7691162109375,7.275863109880685,-0.4672976686777547,-1.0663256015680729
1705064008386531300,46.81953125,4.4411999481871725,-6.055448039710521,1.8029402330815791
1705064008436976000,46.86997607421875,3.7523578523263335,-0.3597854249965399,1.3225927113577722
1705064008487391200,46.92039111328125,2.892859330074489,3.0869214742332693,-1.690370669478178
1705064008537806300,46.97080639648438,3.618346564504504,6.1693468060910694,-2.1534397241428493
1705064008588252400,47.02125244140625,1.321844669469446,4.147457824875414,-0.6500832530733197
1705064008638667300,47.071667236328125,1.5968673331335186,-0.7000162546955049,1.238446839814633
1705064008689082400,47.122082275390625,1.1750498148549346,-2.8482398516252636,2.9626021438643333
1705064008739527200,47.172527099609376,-2.3557240454629063,-2.671579800905287,-0.9553247485861182
1705064008789940500,47.2229404296875,4.886448976261914,-6.096386783820391,0.6821087690178305
1705064008840372200,47.27337231445313,5.013939922404289,-1.5233751036822796,1.0579461149532348
1705064008890816300,47.323816162109374,8.108468364509939,-6.602076544332504,-0.9347018664699047
1705064008941231400,47.3742314453125,4.827658056858182,-1.4639499780282377,-3.357913421076536
1705064008991661300,47.424661376953125,2.3841825165756045,-0.18002682373933493,-1.7462756581820547
1705064009042079200,47.47507934570312,1.9557877387985585,3.7451527432531115,0.960035995016992
1705064009092523300,47.525523193359376,2.176688936174661,4.4175288574814795,-1.1273757711406796
1705064009142938400,47.5759384765625,0.8589642692446708,3.509295822677016,-1.9598415442340076
1705064009193354500,47.6263544921875,-0.0642370742467232,1.8079180214941502,-1.2953956384830176
1705064009243800000,47.67680004882813,2.7578786126986143,-3.0987936983346938,1.297683164898306
1705064009294213400,47.72721337890625,-2.3997812138542534,-3.315131679448485,0.19630911936797202
1705064009344629200,47.777629150390624,6.235629834815859,-1.4195467726781963,-0.45766957024130966
1705064009395076400,47.82807641601563,8.552447811040281,-1.4906725652590394,0.696267788882181
1705064009445491200,47.8784912109375,4.05457934243083,-3.2918554332792755,-2.340712938813865
1705064009495936500,47.9289365234375,5.022151285910606,-4.794713526372611,1.3351042562760411
1705064009546335200,47.97933520507812,3.586112228114903,2.1097341456681487,-1.092806781258434
1705064009596770300,48.02977026367188,4.175074438336491,4.8994922899693245,-2.7720938927948473
1705064009647191300,48.08019140625,1.9762296383246778,4.150243948462605,-1.2096502958539872
1705064009697641500,48.13064135742187,1.2581203853167593,1.9427577229641377,0.6294641703493893
1705064009748042200,48.181042236328125,1.036230030772835,-2.0276538283526895,1.535308118060231
1705064009798472200,48.23147216796875,0.2901200238244608,-3.4265243082270023,1.8542159545496104
1705064009848917200,48.28191723632813,0.7567409622844308,-1.588788217704743,0.3172686909802258
1705064009899331300,48.33233129882812,2.153327934331447,-1.5743582719445228,-2.7932018550142645
1705064009949770200,48.38277026367187,5.839653663954138,-3.9441707562536,0.8431036330942064
1705064010000191200,48.433191162109374,5.9272647273898125,-2.64984727704674,-1.433363116584718
1705064010050624300,48.48362426757812,3.2113340358436107,-1.0862910426888615,-0.7980993200458586
1705064010101039000,48.5340390625,0.8351175297111272,1.7287857403293252,0.9221556886296719
1705064010151459300,48.58445922851563,0.8464303663641214,5.815796403026581,0.02666778145377757
1705064010201898200,48.634898193359376,-0.611327661688812,4.908589788660406,-1.171631311648339
1705064010252313300,48.685313232421876,3.3805513693422076,-0.5812198889991268,-2.1368948320552708
1705064010302759200,48.73575927734375,2.18965728494972,-0.755932130119577,-2.186050200368464
1705064010353188400,48.78618823242188,-3.4255259448394177,-3.333931072464585,-0.23292647488107904
1705064010403604200,48.836604248046875,3.720059803050756,1.237398061414063,0.9800301507756114
1705064010454038300,48.88703833007813,8.165899978259205,-5.125393049198388,-1.5302435281470417
1705064010504465400,48.93746533203125,2.4989181721717117,-5.755908043774962,-2.891932570618391
1705064010554915300,48.98791528320312,5.116601255455612,-2.625557177659869,1.6504267816245555
1705064010605330400,49.03833032226562,3.3648917356565593,1.7715920318767426,-1.8846053937248886
1705064010655746600,49.08874658203125,4.006916843023896,5.663007641759514,-3.1787174221381544
1705064010706192400,49.1391923828125,0.5321992164488881,4.110803918477893,-1.2035854428570716
1705064010756593400,49.18959350585938,-0.5799169531743973,0.8590340465452522,1.916195586992055
1705064010807022600,49.240022705078125,0.7219019963543861,-0.05367459017015062,2.7907144221127034
1705064010857467400,49.29046728515625,0.5196625005567446,-3.2944521717742083,-1.243111324494332
1705064010907883500,49.34088354492187,-1.7377295097634196,0.14806994345108979,-4.644713226780295
1705064010958327600,49.39132763671875,14.334966798365116,-9.141353030377626,4.969746560412645
1705064011008726500,49.4417265625,2.8181697075322267,-1.3547042981505393,-0.9343111866518855
1705064011059160600,49.49216064453125,3.6432717469245195,-6.040944298061728,0.7041501396298409
1705064011109586400,49.54258642578125,2.497086865091324,-0.2848294796682894,-0.2847204846021719
1705064011160033500,49.593033447265626,3.101510263817012,5.730079190513491,-0.3433191145705059
1705064011210447600,49.64344750976562,1.961012779970467,5.778022260427474,-1.2022017334137112
1705064011260879600,49.69387963867187,1.4170491106435656,5.190691158539057,-2.613561619439721
1705064011311294500,49.74429443359375,1.0769166998177766,-0.0192470317523228,-2.476565470588207
1705064011361739500,49.794739501953124,0.49763179746922104,-4.99674211936593,-0.05869204387282952
1705064011412155600,49.84515576171875,-2.561236973440647,-3.6440152587682006,1.8005026306711136
1705064011462570500,49.89557055664063,7.352406835857034,-1.4220906119421124,2.577264563655853
1705064011513015600,49.946015625,4.935849551507831,-0.3878291047632694,-2.037013485111296
1705064011563420400,49.99642041015625,7.282458854883909,-6.2905462508738035,1.7328391073733567
1705064011613845500,50.04684545898437,2.8877149529233574,-3.3086104609861966,1.895750618726015
1705064011664290300,50.09729028320312,3.825493231163919,3.0845360404014586,-0.8077893778026104
1705064011714706400,50.14770654296875,3.8292347557798028,7.676884873694181,-2.525960492876172
1705064011765151500,50.1981513671875,2.204188499127328,4.0517826974496245,-2.3411751494981345
1705064011815565600,50.248565673828125,0.6926899303954094,1.0671679706763475,1.459802649090439
1705064011865996500,50.29899658203125,-1.2275947525411843,-1.9735618804201482,2.3984306760281324
1705064011916431400,50.34943139648438,-1.126609974399954,-3.79961381675899,-0.3677988913105801
1705064011966855400,50.39985546875,3.5491757053837176,-6.302300401553511,1.1793776149261743
1705064012017258800,50.4502587890625,7.69788616066873,0.15982815838456152,3.270749224625528
1705064012067703600,50.50070361328125,7.586634109404683,-4.600754842588305,-0.5401643866417929
1705064012118118400,50.55111840820312,6.244311153921484,-2.875655097295344,-0.9738217976547777
1705064012168562400,50.6015625,3.5064714129060506,0.47297191492188717,-0.9941969886202364
1705064012218979600,50.6519794921875,1.4327034836322068,5.1402498420685525,-0.3409091308193281
1705064012269394700,50.70239477539062,0.8242394312135874,6.285382584500312,0.47506483208052813
1705064012319839500,50.75283959960937,-0.24428545223074033,3.02920841319412,-0.07359766715366858
1705064012370253600,50.80325366210938,1.5878263869352638,-2.28989139085412,-1.1738627239622175
1705064012420668700,50.85366870117188,0.6530581772308797,-1.964933898936957,-0.7688266099408269
1705064012471100700,50.9041005859375,-0.2250907580204308,-3.6771339767768976,-0.01667217058741371
1705064012521530600,50.95453051757813,6.829892197272181,-0.2267879173271358,0.64999667076841
1705064012571950300,51.004950439453125,7.139262682348489,-2.4344055141203103,0.028017636576597577
1705064012622405600,51.05540551757812,4.057317535223066,-6.258164907228946,2.2316548904627562
1705064012672819700,51.10581982421875,4.603378761351109,-1.9864349521271882,0.9413046988010406
1705064012723234300,51.156234375,4.673952765268087,3.291939019909501,-1.5157691587232052
1705064012773667600,51.20666748046875,2.5825579938888548,7.261340663531422,-2.150771673977375
1705064012824094500,51.25709448242188,2.5613424796417354,3.282925692370534,0.07261818199648987
1705064012874526500,51.3075263671875,1.546870107168704,-0.46984885099790985,1.2868813465073703
1705064012924941600,51.35794165039062,0.18894255438903346,-3.3689696526199575,1.9538998792253433
1705064012975386600,51.40838671875,-0.9750853878498077,-2.1285770855650306,-0.23273871549032626
1705064013025802500,51.458802490234376,-0.2417829861568287,-2.25011116912961,-0.42688079301752146
1705064013076228600,51.509228515625,6.800155815178155,-2.272721644866466,2.790889778679609
1705064013126662400,51.55966235351563,5.524003075695037,-3.6772874137729405,-0.12629602813622914
1705064013177078500,51.61007861328125,5.976717032822966,-5.575904527845978,1.0876062169406562
1705064013227524600,51.66052465820312,2.549125972147286,0.27172219734657554,-1.26830217211321
1705064013277939500,51.710939453125,2.5193548110008237,4.3612154341071845,-0.3302398527668789
1705064013328370700,51.76137060546875,1.182708147588372,4.770040565147996,0.39128929168712345
1705064013378782500,51.81178247070312,1.1353117517717182,5.255629202395677,-1.6238734134808182
1705064013429228500,51.862228515625,0.34626568941641594,0.6504886920690536,-2.792872476929426
1705064013479650600,51.912650634765626,2.024091459695995,-4.391322695340216,0.0686789748174604
1705064013530075600,51.96307568359375,-2.071918063623458,-2.590830732193589,1.3014781732670961
1705064013580495600,52.01349560546875,7.319163322424888,-0.9656550039425492,0.08091767587740906
1705064013630918400,52.06391845703125,6.141881876060366,-1.3083594572134316,0.9298656054198742
1705064013681335600,52.11433544921875,4.942038469275832,-6.494989211532473,1.370204941882193
1705064013731766500,52.1647666015625,4.883794077838957,-2.6329323826029896,4.1182644636169075
1705064013782211600,52.21521166992188,3.640325464339554,1.7712492097884416,-2.1482655363753436
1705064013832626700,52.26562670898438,4.6501416815698144,6.082191085207462,-2.6084020447194574
1705064013883041500,52.31604150390625,1.975031222320348,5.755205448463559,-1.1937305499274282
1705064013933487400,52.3664873046875,1.2120296652711928,2.420377865550667,1.4296590013697743
1705064013983910700,52.41691064453125,1.8815538971997796,-2.5147709903419018,2.747722252604365
1705064014034347500,52.467347412109376,-0.4004073217095807,-3.211237881992757,0.8086409531306475
1705064014084745700,52.517745849609376,-1.6982678524687884,-3.8804417959257957,-0.6678542528897523
1705064014135191600,52.568191650390624,6.215640939754247,-3.5920243747681377,1.4513884564884005
1705064014185605600,52.61860571289063,10.900655197262763,0.14684547969005068,2.8883859840527175
1705064014236051500,52.669051513671874,7.520256388133764,-3.656953943057358,-0.5639129264978692
1705064014286452500,52.71945239257813,3.6909780854731795,-1.4315651272520422,-0.057556934329099016
1705064014336899600,52.76989965820312,1.4618122353471814,3.1437086525991558,0.11135830638380721
1705064014387313700,52.820313720703126,2.351164044070989,4.1682571595370765,-0.15254833097415976
1705064014437759700,52.870759765625,2.008920340179652,3.703508481222391,-2.266359562488645
1705064014488174300,52.92117431640625,1.4669433146253228,1.2358414796218276,-1.7847808915346859
1705064014538588400,52.97158837890625,1.9395850842773914,-2.956772999319434,-0.6441654073316604
1705064014589017600,53.022017578125,-1.667514694547653,-3.520745437452197,0.6820478326108306
1705064014639450600,53.07245068359375,4.749935057969391,0.33389041116368023,0.3852834754010662
1705064014689865500,53.12286547851563,12.16392507429719,-0.11963912753029726,2.1213129397809505
1705064014740309500,53.1733095703125,1.3858650139592588,-8.196947442951798,-0.18773054825076832
1705064014790725400,53.22372534179687,6.195401284801959,-3.8897918080732223,3.093101331911981
1705064014841152500,53.274152587890626,3.421109589701891,3.7690403993189334,-1.023631099832058
1705064014891569700,53.324569580078126,3.4734459261387585,7.572395740693807,-1.890507311245054
1705064014942015700,53.375015625,2.137960269329697,6.5524740167737,-1.2258546308755873
1705064014992430300,53.425430419921874,2.009484696064144,1.8634921708084642,2.034582604702562
1705064015042861600,53.47586157226562,1.4471537415280937,-3.44215734616667,2.892961913666129
1705064015093276400,53.5262763671875,-2.303650451615453,-3.5965228552311657,-0.844019140503928
1705064015143721500,53.57672143554687,-0.6769815621972084,-4.997187525045871,1.1617050339829176
1705064015194137600,53.6271376953125,9.211313286310434,0.2606293783861212,3.9203833456918593
1705064015244583700,53.677583740234375,6.023586920547485,-3.3758035902932284,-1.2939514310240745
1705064015294998500,53.72799853515625,6.922915933406353,-3.3921573437228796,-0.8965487344905734
1705064015345412600,53.77841259765625,3.831651461532712,-0.19538009488955138,-0.17638315174104643
1705064015395858400,53.8288583984375,0.6715971657451242,3.5793677222907543,1.5290079950027167
1705064015446274600,53.87927465820312,1.6481554756917058,5.380021890261769,0.12202704558013938
1705064015496696600,53.92969653320313,1.1568723531294614,4.93370435617268,-1.9537685079306364
1705064015547182800,53.980182861328124,3.0041508365660903,-0.6394938353240489,-1.693109008400887
1705064015597595600,54.030595703125,1.595226434058696,-3.1741420770466324,-0.021300751695025245
1705064015648028000,54.08102783203125,-2.5147972938269376,-2.0214390454910696,1.4787603014081716
1705064015698441700,54.13144165039063,5.766742157000303,-2.362212092307955,1.1296868976272643
1705064015748887800,54.1818876953125,8.156717723894118,-0.9640081135183572,-0.9435947824995964
1705064015799303000,54.23230297851563,5.5161611300230025,-0.7777375000186264,-0.19178015243513508
1705064015849734700,54.282734619140626,4.704579958721995,-3.6242274392366407,1.1773149102427065
1705064015900149800,54.333149658203126,3.209098531876504,0.2799927984931506,1.0651238245628774
1705064015950595800,54.383595947265626,3.9667116738855834,5.192760366028547,-0.809868668294698
1705064016001011000,54.434010986328126,2.6788378092095253,6.678133363574743,-2.2677377189740535
1705064016051444700,54.48444482421875,1.2272742884151637,3.193438021408021,-0.035186274680506904
1705064016101871600,54.53487158203125,2.4595479925528165,-1.6482684345468879,2.4557307723522186
1705064016152286700,54.58528662109375,-1.2030480480447412,-2.3249694262370464,2.759348392990231
1705064016202731800,54.635731689453124,-1.7231494880080223,-3.4980677416980264,-1.0094877889934926
1705064016253147000,54.68614697265625,7.478144508591294,-2.823449109239876,0.7169843406312167
1705064016303560700,54.73656079101563,9.928576590013503,-1.587172160810232,0.552014727704972
1705064016353987600,54.78698754882812,5.581463331016898,-4.03279538064599,-1.505855375213176
1705064016404436000,54.83743603515625,5.4451943273961545,-2.64350638358742,-1.200830298930034
1705064016454850600,54.8878505859375,1.460896435676515,3.868305660191178,-0.4920030343346297
1705064016505266700,54.9382666015625,1.8670650608591735,5.229790996783971,0.9075888186167925
1705064016555699000,54.98869897460938,1.770177781164646,5.585997467315197,-1.1728794850785285
1705064016606143700,55.03914379882813,1.604680929493904,1.1754733009640126,-2.033638309589773
1705064016656564700,55.08956469726562,2.818258847120404,-2.5426906784027814,-0.22657003679275511
1705064016706968800,55.13996875,-0.9509262944314628,-4.735990703769028,0.1801363302621059
1705064016757401600,55.19040161132813,5.042615397268533,-4.684925117920339,1.8363057654581962
1705064016807835000,55.2408349609375,9.22998700712025,1.5802010066233574,0.8174131653901189
1705064016858249700,55.291249755859376,6.132839322426915,-2.704879428438842,-1.0669394226174802
1705064016908693800,55.34169384765625,6.088035135060548,-3.870254456171393,1.2359662750452756
1705064016959126800,55.39212670898438,3.1877596835106607,-0.2049185422811657,-0.03934954782282002
1705064017009555000,55.44255493164062,2.9154730206817385,5.226130136188864,-2.1582658291250465
1705064017059970800,55.492970703125,2.870533224236965,6.410557947176694,-1.6400395353838801
1705064017110404600,55.543404541015626,1.3906085552245377,2.8754399932399393,0.16636252858936787
1705064017160813800,55.593813720703125,1.485340118189901,-2.850219627265632,2.332590568765253
1705064017211260000,55.644260009765624,0.09580665398412383,-3.311937559582293,0.7828339463748037
1705064017261668600,55.69466870117188,-1.3483371012061833,-3.530249178856611,-1.0443165257904679
1705064017312107800,55.74510766601563,7.915334148851037,-2.7359993738457558,1.8916442063204943
1705064017362534700,55.79553466796875,5.850904541286826,-1.9141791326031088,0.1565976154981181
1705064017412950800,55.84595068359375,5.936119064974784,-3.0021850894510744,-0.24445556636694818
1705064017463385900,55.8963857421875,3.958282868236303,-0.831654164449498,-0.9232491829548031
1705064017513821000,55.946821044921876,1.083480588378012,3.874885330842435,-0.7009484209790825
1705064017564219600,55.9972197265625,2.0003889509387314,4.337234254539013,-0.38410222972724584
1705064017614672600,56.04767260742187,1.4941151069283485,3.3781177124544977,-1.7360884645581245
1705064017665074000,56.09807397460938,2.064837603843212,0.598359641707316,-2.301628298138082
1705064017715517700,56.148517578125,2.003806650427729,0.8208625021263957,-0.47572409970685836
1705064017765933800,56.19893383789063,0.8783921694226563,-5.194423915326595,-0.07844832662180996
1705064017816380000,56.2493798828125,4.334497815312445,-4.151883532363176,2.0415886840723454
1705064017866807800,56.29980786132813,8.993976941809057,2.09513351951614,1.3234217095278202
1705064017917222700,56.35022265625,5.2137698363095515,-4.167471269856393,-0.7441972686622291
1705064017967637800,56.4006376953125,5.842343633690476,-4.445199246956408,2.7223563406795264
1705064018018082800,56.45108276367188,3.8414232062235474,-0.8189249581925571,0.30607893271762876
1705064018068483800,56.50148388671875,4.486665814332664,4.358125359137356,-1.8195370014868675
1705064018118914800,56.55191479492188,2.998951514357328,6.0904503795087335,-1.8796948253296315
1705064018169358800,56.60235888671875,1.0527818640578537,4.042166727842391,0.001210776444631483
1705064018219790600,56.65279052734375,1.1963221738558263,0.7351965083438903,1.2300488676950334
1705064018270206700,56.70320678710937,2.7254335561677814,-3.3118469586893915,2.463902680630982
1705064018320621800,56.75362182617187,-0.9481976731851697,-1.4630550750151277,0.14832557131312787
1705064018371065900,56.80406591796875,5.242099274215102,-4.619500751851499,-0.12623149326634592
1705064018421481700,56.854481689453124,5.900661382624507,-1.5036759853474795,0.7246297408178448
1705064018471896800,56.904896728515624,7.98966604399681,-5.97370732961297,0.5130858621127903
1705064018522341600,56.955341552734374,5.628992559432983,-3.0728149152085185,-0.0974831449621357
1705064018572757800,57.0057578125,1.4447703535228966,1.3473361074700951,-0.6723069945149124
1705064018623177700,57.056177734375,2.7098323746711013,4.843273559141159,0.9721502111807465
1705064018673601800,57.106601806640626,2.511454120878875,5.245543277189135,-0.9781323543302715
1705064018724047600,57.15704760742187,0.7161063887529074,4.804545184557139,-2.653683494208753
1705064018774466800,57.207466796875,2.880109738616645,-1.6145697246931492,-0.9310863063212483
1705064018824906800,57.25790673828125,0.7248566814415156,-4.273192282739282,0.7453027456860989
1705064018875308800,57.30830883789063,-2.0538434777505694,-2.2937037887491285,3.0896205040588973
1705064018925755000,57.3587548828125,8.565885969284176,1.5449007067918776,2.26465334309265
1705064018976169700,57.409169677734376,8.841907726988197,-5.854714454963803,-0.4843479530042037
1705064019026614800,57.45961474609375,7.144612226682901,-5.5685600103020665,2.618739898860454
1705064019077029600,57.510029541015626,2.7196082110151645,-1.1131838719200342,0.9644948010567576
1705064019127444700,57.56044482421875,3.917597222104668,4.05876539594382,-1.0704344981916247
1705064019177890800,57.610890869140626,2.944898437130451,6.791769095104932,-1.259647302623093
1705064019228306000,57.661305908203126,2.087885301953554,5.017632931703329,-0.36352019107807426
1705064019278720800,57.711720703125,1.1211794007185847,2.0561647603049873,0.8788504345841706
1705064019329166800,57.76216674804687,1.2745011728838085,-2.5742478461831806,3.2995699531793594
1705064019379587800,57.812587890625,-0.7611210770647973,-3.1170135378971695,1.7870986669577658
1705064019430009900,57.863009765625,6.166058870461582,-5.252244820654392,-0.42146917976494874
1705064019480425700,57.91342578125,9.739759068509935,-3.6645834150224923,1.1235233334962278
1705064019530869800,57.963869873046875,9.243893367397785,-5.452565732946992,-0.3602739756984636
1705064019581301800,58.0143017578125,4.481109056988358,-3.0541119683042166,-1.0321459763295948
1705064019631717600,58.06471752929688,1.7828657055631278,1.6345367001838982,-0.13498341165645977
1705064019682145800,58.11514575195312,1.8909443874880671,4.441669027003646,0.4673761407414451
1705064019732578800,58.16557885742188,2.039508078406006,5.799188967096805,-1.0719425646670162
1705064019782993000,58.215992919921874,1.0495363793306052,4.562333341996371,-1.2080651455543934
1705064019833408000,58.266407958984374,1.4099303646795451,-0.7818461774464697,0.08122643129932694
1705064019883853600,58.316853515625,2.195412925866991,-5.5248892108798024,0.0807580922683701
1705064019934268700,58.3672685546875,0.07146360513388644,-1.728681695432961,1.8708869572348892
1705064019984714800,58.41771484375,8.14951582969129,1.0176192921966314,2.1555643150813877
1705064020035144000,58.46814404296875,7.26841396291852,-4.629660326816142,1.3044516361199319
1705064020085557800,58.51855786132813,5.36241433737874,-2.9844352054879066,2.344398641589284
1705064020135973600,58.5689736328125,3.8111692299962043,-0.14184305002656764,0.981614205096662
1705064020186418000,58.61941796875,3.6357314145475623,4.581207553814351,-1.197775952860713
1705064020236832800,58.66983276367188,3.1142960956320165,6.064174367001653,-0.8984994301669299
1705064020287248000,58.72024780273438,1.2383479094848036,3.104927671045065,0.5467196169715375
1705064020337695000,58.77069506835937,1.251839697612077,1.7145147845230995,2.3610924406282603
1705064020388127000,58.821126953125,1.555686450830847,-3.5163144692674275,2.1138544404685495
1705064020438541800,58.87154174804687,0.428915002258867,-1.597487510858476,0.8003142926815897
1705064020488956700,58.92195678710937,5.96298193745911,-5.0139872686773534,-0.22395391774391754
1705064020539401700,58.972401611328124,8.299093812218308,-1.105597727639973,2.9896225449979306
1705064020589843200,59.02284326171875,8.736253641861676,-3.989985874228179,0.587572253700532
1705064020640258300,59.07325830078125,4.741270982259512,-3.6986508120581507,0.887648292741552
1705064020690703000,59.123703125,1.9874770085260272,0.7684065578978508,1.0187610826428979
1705064020741119200,59.174119140625,2.4257950682938096,4.456781255939602,1.496562500080466
1705064020791563300,59.22456323242187,1.8685664053328335,5.574941235771775,-0.004204160562661127
1705064020841979400,59.2749794921875,2.017015676090866,4.346013773322105,-1.430322579845041
1705064020892387000,59.325386962890626,1.239582565846294,0.8479409901227801,-0.8340473431963473
1705064020942823200,59.3758232421875,3.1969121272593735,-3.8094419678121803,1.154580004408583
1705064020993268200,59.426268310546874,0.5587115584624931,-5.052998259595036,3.200298262566328
1705064021043683300,59.476683349609374,6.82422525755167,0.5675420037152246,2.882069640512764
1705064021094115300,59.527115234375,8.07694919065237,-1.606586032462865,1.4113155354276299
1705064021144531200,59.57753125,4.512897987698018,-3.0189594063803553,2.901092613151669
1705064021194950100,59.6279501953125,4.300398269572854,-1.1981702128753065,3.3681475225821136
1705064021245374200,59.67837426757813,3.0796292713984847,5.285804560428858,-1.2599126755610108
1705064021295807200,59.72880712890625,2.5964640619054435,5.760168039306998,-0.11275660147494636
1705064021346252300,59.77925219726563,2.21349174952358,4.08048359901607,1.0180202742129563
1705064021396667100,59.82966723632813,0.15277592005180193,0.7129462442215532,1.8039852120898663
1705064021447081200,59.880081298828124,1.9453417481079696,-4.252826371058822,1.829044980674982
1705064021497530000,59.930530029296875,0.39414957648906856,-1.516330884259194,2.2699358135402203
1705064021547942100,59.98094213867188,6.321854996851086,-6.165289639654755,1.14811614215672
1705064021598358300,60.031358154296875,8.336506135767698,1.070539566001296,-0.8830253821812569
1705064021648802300,60.08180224609375,8.464055826359987,-3.376988416163623,1.563713397680968
1705064021699218200,60.13221826171875,5.263498620596528,-2.2179655339367685,0.25019186326293275
1705064021749664300,60.182664306640625,1.911518973483145,2.3066263986863196,-0.7047351729761808
1705064021800081200,60.2330810546875,2.2636209313049913,4.1607109819412225,1.3907289667338132
1705064021850507300,60.28350732421875,1.5465752158753574,4.830182606899738,0.06310636231689713
1705064021900922400,60.33392236328125,0.6260695594750344,3.117635469187796,-1.901179658037424
1705064021951369200,60.384369140625,2.493959380720556,-0.7923729782883078,0.36584505382906646
1705064022001770200,60.43477026367187,1.518864348259568,-6.682342505702376,1.0583785880863665
1705064022052224300,60.48522436523437,-0.8604114723782986,-1.2246321033433079,0.16597723733251912
1705064022102629000,60.535629150390626,10.866335579031706,0.29854278332544487,2.0093305284157394
1705064022153076200,60.586076171875,3.980215298581123,-2.240670263828337,1.8793956962525844
1705064022203491300,60.6364912109375,3.1394884045556184,-1.3827620795078575,-0.9408912226293236
1705064022253905400,60.686905517578126,5.156804086506367,-2.6379750529453156,2.7960277260899544
1705064022304350200,60.73735009765625,4.277473613320291,3.571090892332792,0.07987532721762546
1705064022354778400,60.7877783203125,3.398335740096867,5.468665803876519,-1.604906554943323
1705064022405180200,60.83818017578125,1.4112394014514982,3.2771336649656293,-0.5111398060789332
1705064022455627300,60.88862719726563,0.961585854807496,0.7525166225876658,1.4881754877462983
1705064022506042400,60.93904248046875,0.8719214390385895,-4.058552045454085,2.500989425487816
1705064022556468200,60.98946826171875,0.09626332084359601,-3.5155370551541445,-0.6204677208799868
1705064022606886100,61.03988623046875,5.054895033127069,-4.561633961555361,-1.1490770961433647
1705064022657323000,61.09032299804687,6.3245478891968725,-5.052782571017742,1.2686216133259236
1705064022707746300,61.140746337890626,7.892996644836663,-3.5128660823792215,-0.7595556543789803
1705064022758178300,61.19117822265625,2.5312337571039794,0.5460607146713883,-1.15525476186499
1705064022808593200,61.24159326171875,0.9102021429203451,3.6579046679109335,1.5236094969600438
1705064022859039200,61.292039306640625,2.8893846397012473,5.155456763550639,-0.1344956829384435
1705064022909454000,61.3424541015625,1.7771010045565663,3.2739147029191256,-1.825667613196373
1705064022959868200,61.3928681640625,2.2242279553323985,-0.8185521793574094,-1.2596138387449085
1705064023010314200,61.443314208984376,2.6017162833452225,-3.8039746423169967,-0.1617152325064875
1705064023060730000,61.49373022460937,-1.0586650768775492,-2.5207518183171747,1.7916838027909396
1705064023111175400,61.544175537109375,6.014117665934562,0.519251946994476,1.288643826135248
1705064023161590000,61.59459008789062,10.430001678818464,-0.9963978596653789,0.9237019682236015
1705064023212005000,61.64500512695312,2.8515540907397865,-7.186265256541967,0.4599071200350299
1705064023262450200,61.6954501953125,6.523204083147645,-1.729949523411691,2.7840485344827175
1705064023312882200,61.745882080078125,4.122034337544441,2.51675982607156,-1.9400320973925291
1705064023363294200,61.79629418945313,4.969366621184348,5.545756057819724,-1.376163850286603
1705064023413710000,61.8467099609375,2.323471004372835,3.6494235475525256,-0.6547035332851111
1705064023464152000,61.89715209960937,1.1062878287959843,0.8711123876780271,1.384372145052999
1705064023514569200,61.9475693359375,2.439286856421083,-3.797883339704573,2.788150416843593
1705064023564985300,61.9979853515625,0.45241479151826347,-2.8544954048886892,-1.2353053269185126
1705064023615417300,62.04841723632813,3.1857348996847867,-2.8755107203885912,-0.8873347698129713
1705064023665862100,62.09886206054688,7.560124288141727,-0.6597551906514912,0.7910834499344229
1705064023716272000,62.149272216796874,5.715510566934943,-3.596801672172546,-0.16118434050017966
1705064023766704000,62.1997041015625,6.501063563010097,-4.586249931895733,-0.39876477866694326
1705064023817138200,62.25013818359375,3.1643580573961136,0.07086735627378803,-1.5281054932050406
1705064023867552300,62.30055224609375,1.97301769054085,3.7918329536244273,1.8104941555924712
1705064023917998300,62.35099829101563,2.144897813507914,5.591337074777484,0.02119553547159303
1705064023968414200,62.401414306640625,1.9227825641669332,3.5603476722612974,-2.4235991656847298
1705064024018842000,62.451842041015624,1.444421832346171,-0.5948104978583753,-1.2527234947092831
1705064024069272300,62.502272216796875,1.4180635483831165,-4.266094141171872,1.4541457923725247
1705064024119703300,62.55270336914062,4.029482602836191,-2.4573718175575134,1.7002311153657734
1705064024170119200,62.603119140625,7.961848062744736,0.6813030786581337,2.218624143975973
1705064024220534000,62.653533935546875,7.069672428771853,-6.289525675654411,-0.7038203962188214
1705064024270965000,62.70396508789062,7.185050035533308,-3.8905952334105964,2.630010357676446
1705064024321396200,62.75439624023438,4.029451915436983,-0.3756713782513514,0.6418384987540543
1705064024371825200,62.8048251953125,3.880139598108828,4.0646208439737554,-0.8112038624212146
1705064024422241300,62.8552412109375,3.729957804469764,5.313275335678458,-0.39352874117698516
1705064024472686300,62.90568627929687,1.7109692208707332,3.0211633461654186,0.0679637574865017
1705064024523100200,62.95610009765625,-0.023920106163853778,0.7270921123433858,1.119510444593057
1705064024573516000,63.00651611328125,2.639024269737303,-2.7887501363024114,2.0850252363473176
1705064024623941000,63.056941162109375,1.5177704155430196,-0.834537610931322,1.393792299827188
1705064024674377200,63.10737719726563,3.71297452096492,-3.364828899553418,-1.3394625976160168
1705064024724792300,63.15779223632813,9.2911034468621,-4.315058663088083,-0.06794149085576645
1705064024775238400,63.20823828125,8.659632174474,-5.666863732665777,0.7279056937485933
1705064024825658000,63.258658203125,5.892478076168895,-4.525002559250593,-0.4797995324522257
1705064024876081200,63.3090810546875,2.3957497663810847,-0.20733782358365133,-0.07456897813754622
1705064024926517200,63.35951733398438,2.6953394466772673,4.4523201848775145,0.8289047196108847
1705064024976928300,63.40992822265625,1.8928379461497067,5.731010333883762,-1.827748511123657
1705064025027374300,63.460374267578125,1.1869433009400963,3.992854123140871,-2.8319492265596984
