time,seconds_elapsed,z,y,x
1702689818568155600,0.05315576171875,0.028299998492002487,-0.07509999722242355,-0.1834999918937683
1702689818628154000,0.113154052734375,-0.13819999992847443,-0.11189999431371689,-0.033299997448921204
1702689818688154000,0.173154052734375,-0.0997999981045723,-0.16129998862743378,-0.04319999739527702
1702689818748154000,0.233154052734375,-0.10379999876022339,-0.07589999586343765,-0.06019999831914902
1702689818808154000,0.293154052734375,-0.09789999574422836,0.05069999769330025,-0.08479999750852585
1702689818868154000,0.353154052734375,0.006399999838322401,0.028099998831748962,0.05849999934434891
1702689818928154000,0.413154052734375,-0.2635999917984009,0.06059999763965607,0.13679999113082886
1702689818988154000,0.473154052734375,-0.18519999086856842,0.012999999336898327,0.275299996137619
1702689819048154000,0.533154052734375,-0.15070000290870667,0.014699999243021011,0.2231999933719635
1702689819108154000,0.593154052734375,0.012999999336898327,-0.08379999548196793,0.12399999797344208
1702689819168154000,0.653154052734375,-0.002699999837204814,-0.07729999721050262,0.054099999368190765
1702689819228154000,0.713154052734375,-0.02449999935925007,0.07609999924898148,0.02589999884366989
1702689819288154000,0.773154052734375,-0.2712000012397766,-0.10899999737739563,0.04919999837875366
1702689819348154000,0.833154052734375,-0.09099999815225601,-0.17749999463558197,0.21959999203681946
1702689819408154000,0.893154052734375,-0.2085999995470047,-0.11140000075101852,0.04169999808073044
1702689819468154000,0.953154052734375,-0.08529999852180481,-0.16449999809265137,0.12479999661445618
1702689819528154000,1.013154052734375,-0.2434999942779541,0.0632999986410141,0.13030000030994415
1702689819588154000,1.073154052734375,0.14270000159740448,-0.05920000001788139,0.09669999778270721
1702689819648154000,1.133154052734375,-0.20809999108314514,-0.18050000071525574,-0.1542000025510788
1702689819708154000,1.193154052734375,-3.1698999404907227,-0.8933999538421631,0.6419999599456787
1702689819768154000,1.253154052734375,-0.3203999996185303,0.515999972820282,-0.07479999959468842
1702689819828154000,1.313154052734375,-0.19539999961853027,-0.3249000012874603,-0.2587999999523163
1702689819888154000,1.373154052734375,-0.05389999970793724,-0.5533999800682068,0.12029999494552612
1702689819948154000,1.433154052734375,0.1467999964952469,-0.42339998483657837,-0.04699999839067459
1702689820008154000,1.493154052734375,0.22899998724460602,-0.10239999741315842,0.5697000026702881
1702689820068154000,1.553154052734375,0.35819998383522034,-0.085999995470047,-0.6175999641418457
1702689820128154000,1.613154052734375,-0.034299999475479126,-0.03999999910593033,0.5367000102996826
1702689820188154000,1.673154052734375,-0.21859999001026154,-0.10089999437332153,0.0016999999061226845
1702689820248154000,1.733154052734375,-0.21289999783039093,-0.12379999458789825,0.320499986410141
1702689820308154000,1.793154052734375,-0.41920000314712524,-0.14630000293254852,0.2514999806880951
1702689820368154000,1.853154052734375,-0.043299999088048935,0.18459999561309814,0.3874000012874603
1702689820428154000,1.913154052734375,0.0502999983727932,0.06520000100135803,0.055799998342990875
1702689820488154000,1.973154052734375,-0.38999998569488525,-0.32839998602867126,0.13490000367164612
1702689820548154000,2.033154052734375,-0.48669999837875366,-0.2913999855518341,-0.09989999979734421
1702689820608154000,2.093154052734375,-0.004100000020116568,0.02149999886751175,-0.11589999496936798
1702689820668154000,2.153154052734375,0.033799998462200165,-0.3813000023365021,-0.4220999777317047
1702689820728154000,2.213154052734375,-0.2474999874830246,-0.24239999055862427,-0.250900000333786
1702689820788154000,2.273154052734375,0.21220000088214874,-0.2457999885082245,-0.5622000098228455
1702689820848154000,2.333154052734375,-0.30480000376701355,0.16009999811649323,-0.19979999959468842
1702689820908154000,2.393154052734375,-0.5892999768257141,0.1655000001192093,-0.22089999914169312
1702689820968154000,2.453154052734375,0.14869999885559082,0.2816999852657318,0.5697999596595764
1702689821028154000,2.513154052734375,-0.25920000672340393,-0.26999998092651367,0.12439999729394913
1702689821088154000,2.573154052734375,-0.10589999705553055,-0.11129999905824661,0.5952999591827393
1702689821148154000,2.633154052734375,0.1704999953508377,0.09369999915361404,0.21939998865127563
1702689821208154000,2.693154052734375,-0.23269999027252197,-0.11069999635219574,0.1014999970793724
1702689821268154000,2.753154052734375,0.24560000002384186,-0.16049998998641968,0.44029998779296875
1702689821328154000,2.813154052734375,-0.016699999570846558,-0.08649999648332596,0.03399999812245369
1702689821388154000,2.873154052734375,-0.3287999927997589,-0.10399999469518661,0.6209999918937683
1702689821448154000,2.933154052734375,-1.9062999486923218,0.45249998569488525,-0.936199963092804
1702689821508154000,2.993154052734375,-0.27799999713897705,-0.574400007724762,-0.21040000021457672
1702689821568154000,3.053154052734375,0.18140000104904175,-0.2549000084400177,-0.22280000150203705
1702689821628154000,3.113154052734375,0.4684000015258789,0.21859999001026154,-0.13759998977184296
1702689821688154000,3.173154052734375,0.18400000035762787,-0.2483000010251999,-0.1331000030040741
1702689821748154000,3.233154052734375,0.2337999939918518,-0.2996000051498413,0.17189998924732208
1702689821808154000,3.293154052734375,-0.26809999346733093,-0.05729999765753746,0.2708999812602997
1702689821868154000,3.353154052734375,-0.16269999742507935,-0.15729999542236328,0.22059999406337738
1702689821928154000,3.413154052734375,-0.04089999943971634,-0.0024999999441206455,0.6644999980926514
1702689821988154000,3.473154052734375,-0.12019999325275421,0.010799999348819256,0.1907999962568283
1702689822048154000,3.533154052734375,-0.05999999865889549,-0.020800000056624413,0.2295999974012375
1702689822108154000,3.593154052734375,-0.21789999306201935,0.05009999871253967,0.15349999070167542
1702689822168154000,3.653154052734375,-0.22139999270439148,-0.1712999939918518,0.12999999523162842
1702689822228154000,3.713154052734375,0.12729999423027039,0.07909999787807465,-0.03460000082850456
1702689822288154000,3.773154052734375,0.367499977350235,0.0982000008225441,0.2888000011444092
1702689822348154000,3.833154052734375,-0.4909999966621399,-0.20589999854564667,-0.5519999861717224
1702689822408154000,3.893154052734375,-0.39079999923706055,-0.3021000027656555,-0.49289998412132263
1702689822468154000,3.953154052734375,-0.3741999864578247,0.12539999186992645,-0.3409999907016754
1702689822528154000,4.013154052734375,0.21400000154972076,0.18779999017715454,0.07719999551773071
1702689822588154000,4.073154052734375,0.16380000114440918,0.022499999031424522,0.1703999936580658
1702689822648154000,4.133154052734375,-0.15959998965263367,-0.262800008058548,-0.024299999698996544
1702689822708154000,4.193154052734375,-0.5861999988555908,-0.14649999141693115,0.22029998898506165
1702689822768154000,4.253154052734375,0.23070000112056732,-0.07149999588727951,0.6890999674797058
1702689822828154000,4.313154052734375,-0.0625,-0.008200000040233135,0.2937999963760376
1702689822888154000,4.373154052734375,-0.15489999949932098,-0.09209999442100525,0.03819999843835831
1702689822948154000,4.433154052734375,0.07069999724626541,0.03519999980926514,0.2653999924659729
1702689823008154000,4.493154052734375,-0.17919999361038208,-0.030700000002980232,0.17059999704360962
1702689823068154000,4.553154052734375,-0.32089999318122864,0.10999999940395355,0.21959999203681946
1702689823128154000,4.613154052734375,0.20329999923706055,0.12879998981952667,0.22089999914169312
1702689823188154000,4.673154052734375,-0.6466999650001526,-0.17970000207424164,-0.6394000053405762
1702689823248154000,4.733154052734375,-0.3743000030517578,-0.3141999840736389,-0.6071999669075012
1702689823308154000,4.793154052734375,-0.19769999384880066,-0.2565999925136566,-0.39469999074935913
1702689823368154000,4.853154052734375,0.36879998445510864,0.21529999375343323,-0.12469999492168427
1702689823428154000,4.913154052734375,0.3130999803543091,-0.1695999950170517,0.1613999903202057
1702689823488154000,4.973154052734375,-0.1525000035762787,-0.11829999834299088,0.26190000772476196
1702689823548154000,5.033154052734375,-0.2671999931335449,-0.14059999585151672,0.38429999351501465
1702689823608154000,5.093154052734375,-0.29829999804496765,0.011299999430775642,0.36559998989105225
1702689823668154000,5.153154052734375,0.30239999294281006,-0.03480000048875809,0.6823999881744385
1702689823728154000,5.213154052734375,-0.1551000028848648,-0.06260000169277191,0.13459999859333038
1702689823788154000,5.273154052734375,0.19979999959468842,0.1331000030040741,0.2547000050544739
1702689823848154000,5.333154052734375,-0.10929999500513077,0.09269999712705612,0.13989999890327454
1702689823908154000,5.393154052734375,-0.065700002014637,-0.1184999942779541,0.20919999480247498
1702689823968154000,5.453154052734375,-0.28329998254776,0.006799999624490738,0.0421999990940094
1702689824028154000,5.513154052734375,-0.36559998989105225,0.25669997930526733,-0.22769999504089355
1702689824088154000,5.573154052734375,-0.5950999855995178,-0.18199999630451202,-0.8976999521255493
1702689824148154000,5.633154052734375,-0.23999999463558197,-0.41029998660087585,-0.4520999789237976
1702689824208154000,5.693154052734375,-0.07909999787807465,-0.1467999964952469,-0.3926999866962433
1702689824268154000,5.753154052734375,0.04649999737739563,0.005399999674409628,-0.14989998936653137
1702689824328154000,5.813154052734375,0.24039998650550842,-0.0794999971985817,0.32919999957084656
1702689824388154000,5.873154052734375,-0.2971999943256378,-0.1889999955892563,0.3513000011444092
1702689824448154000,5.933154052734375,-0.3156999945640564,-0.18479999899864197,0.38920000195503235
1702689824508154000,5.993154052734375,-0.23119999468326569,-0.1735999882221222,0.613099992275238
1702689824568154000,6.053154052734375,-0.06849999725818634,-0.1030999943614006,0.38989999890327454
1702689824628154000,6.113154052734375,-0.01759999990463257,0.0851999968290329,0.13580000400543213
1702689824688154000,6.173154052734375,-0.12729999423027039,0.0348999984562397,-0.18079999089241028
1702689824748154000,6.233154052734375,-0.1006999984383583,0.03189999982714653,-0.005200000014156103
1702689824808154000,6.293154052734375,-0.20969998836517334,-0.31790000200271606,-0.029600000008940697
1702689824868154000,6.353154052734375,-0.18850000202655792,-0.48330000042915344,0.4494999945163727
1702689824928154000,6.413154052734375,-0.4229999780654907,0.42479997873306274,-0.3017999827861786
1702689824988154000,6.473154052734375,-0.37860000133514404,0.19020000100135803,-0.2386999875307083
1702689825048154000,6.533154052734375,0.09459999948740005,-0.035599999129772186,-0.4584999978542328
1702689825108154000,6.593154052734375,0.11400000005960464,-0.2581999897956848,-0.0026000000070780516
1702689825168154000,6.653154052734375,-0.31709998846054077,-0.23389999568462372,-0.9192999601364136
1702689825228154000,6.713154052734375,0.06859999895095825,0.028999999165534973,0.3822000026702881
1702689825288154000,6.773154052734375,0.08479999750852585,-0.2296999990940094,0.10329999774694443
1702689825348154000,6.833154052734375,-0.5712999701499939,-0.11639999598264694,0.2687000036239624
1702689825408154000,6.893154052734375,-0.1615999937057495,-0.07660000026226044,0.1647000014781952
1702689825468154000,6.953154052734375,0.4624999761581421,-0.07180000096559525,0.699999988079071
1702689825528154000,7.013154052734375,-0.2556000053882599,-0.18609999120235443,0.42489999532699585
1702689825588154000,7.073154052734375,-0.045899998396635056,-0.022299999371170998,0.27619999647140503
1702689825648154000,7.133154052734375,0.016300000250339508,0.03280000016093254,-0.03949999809265137
1702689825708154000,7.193154052734375,-0.3707999885082245,-0.05049999803304672,0.13580000400543213
1702689825768154000,7.253154052734375,-0.1720999926328659,0.02499999850988388,-0.26639997959136963
1702689825828154000,7.313154052734375,-1.2062000036239624,0.006799999624490738,-0.7199999690055847
1702689825888154000,7.373154052734375,0.46309998631477356,-0.10049999505281448,-0.007199999876320362
1702689825948154000,7.433154052734375,0.07000000029802322,-0.1517999917268753,0.23809999227523804
1702689826008154000,7.493154052734375,-1.1059999465942383,0.0916999951004982,-0.9074999690055847
1702689826068154000,7.553154052734375,-0.3757999837398529,0.05269999802112579,0.358599990606308
1702689826128154000,7.613154052734375,0.44689998030662537,-0.1785999983549118,-0.1987999975681305
1702689826188154000,7.673154052734375,0.017500000074505806,-0.15279999375343323,-0.007400000002235174
1702689826248154000,7.733154052734375,-0.13359999656677246,-0.42089998722076416,-0.4368000030517578
1702689826308154000,7.793154052734375,-0.24859999120235443,-0.041600000113248825,0.3483999967575073
1702689826368154000,7.853154052734375,-0.17819999158382416,-0.1062999963760376,0.23269999027252197
1702689826428154000,7.913154052734375,-0.01719999872148037,-0.2296999990940094,0.45649999380111694
1702689826488154000,7.973154052734375,0.23469999432563782,-0.20969998836517334,0.32659998536109924
1702689826548154000,8.033154052734375,-0.16820000112056732,-0.03720000013709068,0.15459999442100525
1702689826608154000,8.093154052734375,-0.17739999294281006,0.03969999775290489,0.04089999943971634
1702689826668154000,8.153154052734376,-1.3701999187469482,0.08100000023841858,-0.14739999175071716
1702689826728154000,8.213154052734374,0.22599999606609344,-0.03790000081062317,-0.19129998981952667
1702689826788154000,8.273154052734375,0.33879998326301575,-0.01860000006854534,0.08410000056028366
1702689826848154000,8.333154052734375,-0.22289998829364777,0.029500000178813934,-0.7408999800682068
1702689826908154000,8.393154052734374,-0.10869999974966049,-0.14839999377727509,0.11339999735355377
1702689826968154000,8.453154052734375,-0.3815999925136566,-0.3084000051021576,-1.027899980545044
1702689827028154000,8.513154052734375,-0.06859999895095825,0.06390000134706497,0.29589998722076416
1702689827088154000,8.573154052734376,0.0714000016450882,-0.3617999851703644,-0.015799999237060547
1702689827148154000,8.633154052734374,-0.2029999941587448,-0.1476999968290329,0.27950000762939453
1702689827208154000,8.693154052734375,0.054999999701976776,-0.09019999951124191,0.5027999877929688
1702689827268154000,8.753154052734375,-0.3982999920845032,-0.005799999926239252,0.12349999696016312
1702689827328154000,8.813154052734374,0.3896999955177307,0.09380000084638596,0.43629997968673706
1702689827388154000,8.873154052734375,-0.29009997844696045,-0.016599999740719795,-0.30169999599456787
1702689827448154000,8.933154052734375,-0.028599999845027924,0.00039999998989515007,0.11189999431371689
1702689827508154000,8.993154052734376,-0.210099995136261,-0.3301999866962433,0.04490000009536743
1702689827568154000,9.053154052734374,-0.1103999987244606,-0.1046999990940094,-0.12629999220371246
1702689827628154000,9.113154052734375,0.41499999165534973,-0.10520000010728836,-0.4258999824523926
1702689827688154000,9.173154052734375,-0.19820000231266022,-0.243599995970726,-0.3522000014781952
1702689827748154000,9.233154052734376,0.22909998893737793,0.21719999611377716,-0.13599999248981476
1702689827808154000,9.293154052734375,0.24159999191761017,0.10869999974966049,-0.18699999153614044
1702689827868154000,9.353154052734375,0.23959998786449432,-0.11389999836683273,-0.4461999833583832
1702689827928154000,9.413154052734376,-0.7005999684333801,-0.018400000408291817,0.14729999005794525
1702689827988154000,9.473154052734374,-0.6777999997138977,-0.06469999998807907,-0.3499999940395355
1702689828048154000,9.533154052734375,-0.2368999868631363,0.01759999990463257,0.40860000252723694
1702689828108154000,9.593154052734375,0.28290000557899475,-0.2425999939441681,0.48729997873306274
1702689828168154000,9.653154052734376,0.12239999324083328,-0.23899999260902405,0.3903999924659729
1702689828228154000,9.713154052734374,0.11050000041723251,-0.29670000076293945,0.26179999113082886
1702689828288154000,9.773154052734375,0.0037999998312443495,-0.17499999701976776,0.204599991440773
1702689828348154000,9.833154052734375,-0.4203999936580658,-0.20999999344348907,0.10089999437332153
1702689828408154000,9.893154052734374,0.811199963092804,0.3994999825954437,0.6710999608039856
1702689828468154000,9.953154052734375,-0.5956999659538269,-0.18019999563694,-1.358799934387207
1702689828528154000,10.013154052734375,-0.3109999895095825,-0.3130999803543091,-0.6096999645233154
1702689828588154000,10.073154052734376,-0.4936999976634979,-0.11580000072717667,-0.3057999908924103
1702689828648154000,10.133154052734374,0.10279999673366547,0.10260000079870224,-0.3098999857902527
1702689828708154000,10.193154052734375,0.16449999809265137,0.02459999918937683,0.38509997725486755
1702689828768154000,10.253154052734375,-0.1378999948501587,-0.337799996137619,-0.09279999881982803
1702689828828154000,10.313154052734374,-0.4712999761104584,-0.10679999738931656,0.2451999932527542
1702689828888154000,10.373154052734375,0.29659998416900635,-0.16339999437332153,0.5783999562263489
1702689828948154000,10.433154052734375,-0.2094999998807907,-0.23429998755455017,0.16269999742507935
1702689829008154000,10.493154052734376,0.004399999976158142,0.16290000081062317,-0.1468999981880188
1702689829068154000,10.553154052734374,0.0023999998811632395,0.06430000066757202,-0.032499998807907104
1702689829128154000,10.613154052734375,0.32359999418258667,-0.011299999430775642,0.3109000027179718
1702689829188154000,10.673154052734375,-0.6628999710083008,-0.11999999731779099,-0.36079999804496765
1702689829248154000,10.733154052734376,-0.23179998993873596,-0.28380000591278076,-0.15289999544620514
1702689829308154000,10.793154052734375,-0.42149999737739563,-0.07679999619722366,-0.5236999988555908
1702689829368154000,10.853154052734375,-0.1931999921798706,-0.17149999737739563,-0.5126000046730042
1702689829428154000,10.913154052734376,0.08460000157356262,-0.1687999963760376,0.00989999994635582
1702689829488154000,10.973154052734374,-0.27320000529289246,-0.017899999395012856,-0.13509999215602875
1702689829548154000,11.033154052734375,-0.093299999833107,-0.07169999927282333,-0.07699999958276749
1702689829608154000,11.093154052734375,-0.07090000063180923,-0.04519999772310257,0.07149999588727951
1702689829668154000,11.153154052734376,0.05130000039935112,-0.12029999494552612,-0.0018999999156221747
1702689829728154000,11.213154052734374,0.07349999994039536,-0.04399999976158142,0.059699997305870056
1702689829788154000,11.273154052734375,-0.10339999943971634,-0.16030000150203705,0.060099996626377106
1702689829848154000,11.333154052734375,-0.029500000178813934,-0.16009999811649323,0.1087999939918518
1702689829908154000,11.393154052734374,0.008100000210106373,-0.12870000302791595,0.10719999670982361
1702689829968154000,11.453154052734375,-0.2638999819755554,-0.18129999935626984,-0.5532000064849854
1702689830028154000,11.513154052734375,-0.085999995470047,-0.13459999859333038,0.003399999812245369
1702689830088154000,11.573154052734376,-0.21490000188350677,-0.09380000084638596,-0.1679999977350235
1702689830148154000,11.633154052734374,-0.0018999999156221747,-0.08339999616146088,0.04349999874830246
1702689830208154000,11.693154052734375,-0.18410000205039978,-0.06430000066757202,-0.05739999935030937
1702689830268154000,11.753154052734375,0.008899999782443047,-0.1403999924659729,-0.011500000022351742
1702689830328154000,11.813154052734374,-0.18809999525547028,-0.10419999808073044,0.006000000052154064
1702689830388154000,11.873154052734375,-0.1224999949336052,-0.0052999998442828655,-0.02579999901354313
1702689830448154000,11.933154052734375,-0.22369998693466187,-0.08229999989271164,-0.12119999527931213
1702689830508154000,11.993154052734376,-0.03849999979138374,0.15429998934268951,-0.03399999812245369
1702689830568154000,12.053154052734374,-0.05649999901652336,-0.04899999871850014,-0.03439999744296074
1702689830628154000,12.113154052734375,-0.010300000198185444,-0.10300000011920929,-0.07569999992847443
1702689830688154000,12.173154052734375,-0.05559999868273735,-0.10659999400377274,-0.1419999897480011
1702689830748154000,12.233154052734376,-0.218299999833107,-0.08810000121593475,-0.1834999918937683
1702689830808154000,12.293154052734375,-0.3391000032424927,-0.03619999811053276,-0.2717999815940857
1702689830868154000,12.353154052734375,-0.275299996137619,-0.013399999588727951,-0.2410999983549118
1702689830928154000,12.413154052734376,-0.12919999659061432,-0.04479999840259552,-0.17889998853206635
1702689830988154000,12.473154052734374,-0.02019999921321869,0.15039999783039093,-0.14239999651908875
1702689831048155600,12.53315576171875,0.26639997959136963,0.16830000281333923,0.2874000072479248
1702689831108154000,12.593154052734375,0.6502000093460083,-0.5759999752044678,0.16380000114440918
1702689831168154000,12.653154052734376,-1.0059999227523804,-0.7218999862670898,-0.8906999826431274
1702689831228154000,12.713154052734374,0.11159999668598175,-0.5268999934196472,0.21249999105930328
1702689831288154000,12.773154052734375,0.012999999336898327,-0.3172000050544739,0.179299995303154
1702689831348154000,12.833154052734375,-0.07099999487400055,-0.05810000002384186,0.1630999892950058
1702689831408154000,12.893154052734374,-0.0802999958395958,0.04470000043511391,0.2689000070095062
1702689831468154000,12.953154052734375,-0.1354999989271164,-0.1348000019788742,0.2636999785900116
1702689831528154000,13.013154052734375,-0.17960000038146973,-0.13650000095367432,0.08339999616146088
1702689831588154000,13.073154052734376,-0.08309999853372574,-0.1631999909877777,-0.12449999898672104
1702689831648154000,13.133154052734374,-0.057099997997283936,-0.12629999220371246,-0.24079999327659607
1702689831708154000,13.193154052734375,-0.1386999934911728,-0.065700002014637,-0.20600000023841858
1702689831768154000,13.253154052734375,-0.09589999914169312,-0.1151999980211258,-0.1412999927997589
1702689831828154000,13.313154052734374,-1.1898999214172363,-0.42319998145103455,-1.2151999473571777
1702689831888154000,13.373154052734375,0.3384999930858612,0.17970000207424164,0.22059999406337738
