time,seconds_elapsed,z,y,x
1702216435564682800,0.050682861328125,0.4861999750137329,-0.8944999575614929,-0.6635000109672546
1702216435624681200,0.11068115234375,-0.02850000001490116,-0.12049999833106995,0.1678999960422516
1702216435684681200,0.17068115234375,-0.6922000050544739,0.23309999704360962,0.4244999885559082
1702216435744681200,0.23068115234375,-1.0778999328613281,0.09860000014305115,0.3951999843120575
1702216435804681200,0.29068115234375,-1.3214999437332153,-0.5001000165939331,-0.37779998779296875
1702216435864681200,0.35068115234375,-1.9567999839782715,0.1005999967455864,-0.5748999714851379
1702216435924681200,0.41068115234375,-0.6276999711990356,0.5005999803543091,-0.3951999843120575
1702216435984681200,0.47068115234375,0.37119999527931213,-0.5139999985694885,-1.1121000051498413
1702216436044681200,0.53068115234375,-0.0364999994635582,-0.002099999925121665,1.3517999649047852
1702216436104681200,0.59068115234375,-1.4926999807357788,0.5318999886512756,2.065700054168701
1702216436164681200,0.65068115234375,-1.5928999185562134,0.44020000100135803,2.151700019836426
1702216436224681200,0.71068115234375,-1.2144999504089355,-1.9434999227523804,2.5002999305725098
1702216436284681200,0.77068115234375,-1.0614999532699585,-0.6344000101089478,-0.5575999617576599
1702216436344681200,0.83068115234375,2.1967999935150146,-2.125,-0.5303999781608582
1702216436404681200,0.89068115234375,0.1428999900817871,0.10359999537467957,-1.6562999486923218
1702216436464681200,0.95068115234375,2.600800037384033,-1.6017999649047852,-1.5917999744415283
1702216436524681200,1.01068115234375,-0.1371999979019165,0.6696000099182129,0.1622999906539917
1702216436584681200,1.07068115234375,-0.43639999628067017,1.3832999467849731,2.054299831390381
1702216436644681200,1.13068115234375,-3.1469998359680176,1.591499924659729,4.43149995803833
1702216436704681200,1.19068115234375,-2.959699869155884,-4.482999801635742,5.0808000564575195
1702216436764681200,1.25068115234375,-3.84060001373291,-7.107999801635742,-0.8361999988555908
1702216436824681200,1.31068115234375,0.9301999807357788,-5.093599796295166,0.8330000042915344
1702216436884681200,1.37068115234375,0.661799967288971,-3.401099920272827,-0.703000009059906
1702216436944681200,1.43068115234375,1.236799955368042,-1.6019999980926514,-2.0321998596191406
1702216437004682800,1.490682861328125,1.164699912071228,-2.057299852371216,-3.9860999584198
1702216437064681200,1.55068115234375,0.09629999846220016,-1.5683999061584473,-6.480499744415283
1702216437124681200,1.61068115234375,-1.5867999792099,-0.4883999824523926,-8.622099876403809
1702216437184681200,1.67068115234375,-2.322000026702881,0.9266999959945679,-9.535399436950684
1702216437244681200,1.73068115234375,-2.9649999141693115,0.8757999539375305,-10.457900047302246
1702216437304682800,1.790682861328125,-2.065000057220459,-2.5541000366210938,-12.288700103759766
1702216437364681200,1.85068115234375,0.5462999939918518,-4.4639997482299805,-8.74489974975586
1702216437424681200,1.91068115234375,0.6973999738693237,-5.760900020599365,-7.424499988555908
1702216437484681200,1.97068115234375,-1.4663000106811523,-7.419600009918213,-3.6786999702453613
1702216437544681200,2.03068115234375,1.316999912261963,-7.34529972076416,-0.05909999832510948
1702216437604681200,2.09068115234375,0.8657999634742737,-7.40839958190918,2.6656999588012695
1702216437664681200,2.15068115234375,1.7771999835968018,-6.246699810028076,4.064899921417236
1702216437724681200,2.21068115234375,2.8269999027252197,-3.5996999740600586,5.825599670410156
1702216437784681200,2.27068115234375,1.5721999406814575,-1.7095999717712402,8.351300239562988
1702216437844681200,2.33068115234375,0.10319999605417252,0.2214999943971634,8.781399726867676
1702216437904681200,2.39068115234375,-0.28769999742507935,0.8255999684333801,8.508199691772461
1702216437964681200,2.45068115234375,-1.0053999423980713,-1.1190999746322632,8.800999641418457
1702216438024681200,2.51068115234375,0.21799999475479126,-4.871699810028076,7.671999931335449
1702216438084681200,2.57068115234375,-0.2581000030040741,-11.45259952545166,4.1728997230529785
1702216438144681200,2.63068115234375,-3.6273000240325928,-9.654600143432617,-3.5999999046325684
1702216438204681200,2.69068115234375,1.3367999792099,-4.526199817657471,-2.5160000324249268
1702216438264681200,2.75068115234375,0.0811999961733818,-1.4709999561309814,-0.257999986410141
1702216438324681200,2.81068115234375,-0.323199987411499,0.7426999807357788,-1.2950999736785889
1702216438384681200,2.87068115234375,0.7446999549865723,0.22179999947547913,-2.589900016784668
1702216438444681200,2.93068115234375,0.7684999704360962,-0.5719000101089478,-4.540999889373779
1702216438504681200,2.99068115234375,2.29259991645813,-1.0978999137878418,-6.289999961853027
1702216438564681200,3.05068115234375,3.3745999336242676,-2.0199999809265137,-7.765599727630615
1702216438624681200,3.11068115234375,0.821399986743927,-3.031599998474121,-11.716400146484375
1702216438684682800,3.170682861328125,1.9048999547958374,-3.6081998348236084,-7.6392998695373535
1702216438744681200,3.23068115234375,2.199399948120117,-4.550099849700928,-5.482100009918213
1702216438804681200,3.29068115234375,1.181999921798706,-6.4151997566223145,-3.3001999855041504
1702216438864681200,3.35068115234375,0.24849998950958252,-6.194499969482422,0.09779999405145645
1702216438924681200,3.41068115234375,1.250999927520752,-4.905299663543701,2.438999891281128
1702216438984681200,3.47068115234375,1.0936999320983887,-4.138400077819824,4.77839994430542
1702216439044681200,3.53068115234375,2.100399971008301,-2.8757998943328857,6.186500072479248
1702216439104681200,3.59068115234375,1.6669999361038208,-2.5556998252868652,7.08489990234375
1702216439164681200,3.65068115234375,1.121399998664856,-2.5005998611450195,8.432999610900879
1702216439224681200,3.71068115234375,0.3489999771118164,-3.0565998554229736,7.835799694061279
1702216439284681200,3.77068115234375,-1.0914000272750854,-5.3703999519348145,8.018799781799316
1702216439344681200,3.83068115234375,-1.1275999546051025,-6.945399761199951,5.215399742126465
1702216439404681200,3.89068115234375,-1.1647999286651611,-6.5453996658325195,1.7764999866485596
1702216439464681200,3.95068115234375,-0.30879998207092285,-2.678999900817871,0.2263999879360199
1702216439524681200,4.01068115234375,-0.43149998784065247,-1.5298999547958374,-2.000499963760376
1702216439584681200,4.07068115234375,-2.665299892425537,-1.0332000255584717,-5.214699745178223
1702216439644681200,4.13068115234375,0.1087999939918518,-1.683899998664856,-9.131599426269531
1702216439704681200,4.19068115234375,1.954800009727478,-2.5563998222351074,-10.335100173950195
1702216439764681200,4.25068115234375,-0.6013000011444092,-3.311800003051758,-11.059800148010254
1702216439824681200,4.31068115234375,-1.3878999948501587,-4.517199993133545,-10.163700103759766
1702216439884681200,4.37068115234375,0.32569998502731323,-5.209499835968018,-6.37969970703125
1702216439944681200,4.43068115234375,-0.125900000333786,-4.758999824523926,-3.9306998252868652
1702216440004681200,4.49068115234375,0.6086999773979187,-3.8447999954223633,-0.9758999943733215
1702216440064681200,4.55068115234375,1.9507999420166016,-4.1956000328063965,1.1725000143051147
1702216440124681200,4.61068115234375,2.4600000381469727,-4.724499702453613,2.1712000370025635
1702216440184681200,4.67068115234375,4.010900020599365,-4.584799766540527,2.3083999156951904
1702216440244681200,4.73068115234375,5.3927998542785645,-5.673199653625488,4.294699668884277
1702216440304681200,4.79068115234375,5.564199924468994,-4.90310001373291,6.360499858856201
1702216440364681200,4.85068115234375,6.3165998458862305,-6.319799900054932,9.722399711608887
1702216440424681200,4.91068115234375,-1.0923999547958374,-7.795599937438965,6.815499782562256
1702216440484681200,4.97068115234375,-3.308799982070923,-4.58929967880249,5.29509973526001
1702216440544681200,5.03068115234375,-1.465499997138977,-2.947700023651123,3.3382999897003174
1702216440604681200,5.09068115234375,-0.4262999892234802,-2.3471999168395996,1.1173999309539795
1702216440664681200,5.15068115234375,0.0038999998942017555,-2.132200002670288,-1.7919999361038208
1702216440724682800,5.210682861328125,0.17919999361038208,-1.9634000062942505,-3.1654999256134033
1702216440784681200,5.27068115234375,0.08219999819993973,-2.0662999153137207,-5.124599933624268
1702216440844681200,5.33068115234375,-0.3748999834060669,-3.3984999656677246,-10.10669994354248
1702216440904681200,5.39068115234375,1.1972999572753906,-2.210700035095215,-12.71869945526123
1702216440964681200,5.45068115234375,0.911899983882904,0.27639999985694885,-11.912300109863281
1702216441024681200,5.51068115234375,-2.1763999462127686,-1.7029999494552612,-8.92389965057373
1702216441084681200,5.57068115234375,-2.314499855041504,-5.414999961853027,-8.2746000289917
1702216441144681200,5.63068115234375,1.347000002861023,-4.62939977645874,-2.707399845123291
1702216441204681200,5.69068115234375,2.4935998916625977,-3.73829984664917,1.0598000288009644
1702216441264681200,5.75068115234375,1.6353999376296997,-3.9430999755859375,2.553999900817871
1702216441324681200,5.81068115234375,1.0478999614715576,-4.539799690246582,3.0872998237609863
1702216441384681200,5.87068115234375,3.008699893951416,-5.747799873352051,4.524099826812744
1702216441444681200,5.93068115234375,4.477799892425537,-3.640899896621704,9.238499641418457
1702216441504681200,5.99068115234375,4.365499973297119,-7.51230001449585,9.3056001663208
1702216441564681200,6.05068115234375,-1.1729999780654907,-8.961099624633789,5.966399669647217
1702216441624681200,6.11068115234375,-0.6444999575614929,-5.32349967956543,5.1489996910095215
1702216441684681200,6.17068115234375,0.3702999949455261,-2.214599847793579,4.308000087738037
1702216441744681200,6.23068115234375,-0.4412999749183655,-1.7908999919891357,-0.013199999928474426
1702216441804681200,6.29068115234375,0.4050000011920929,-0.9286999702453613,-0.6211000084877014
1702216441864681200,6.35068115234375,1.5448999404907227,-1.604599952697754,-3.917799949645996
1702216441924681200,6.41068115234375,0.6141999959945679,-0.9840999841690063,-7.5077996253967285
1702216441984681200,6.47068115234375,-0.29899999499320984,-0.7203999757766724,-8.04010009765625
1702216442044681200,6.53068115234375,-0.4892999827861786,0.006000000052154064,-9.990799903869629
1702216442104681200,6.59068115234375,-0.1859000027179718,0.22019998729228973,-9.543600082397461
1702216442164681200,6.65068115234375,-1.8029999732971191,-3.5705997943878174,-8.880399703979492
1702216442224681200,6.71068115234375,-1.681899905204773,-5.1168999671936035,-5.605599880218506
1702216442284681200,6.77068115234375,0.9221999645233154,-2.923499822616577,-1.107699990272522
1702216442344681200,6.83068115234375,1.5789999961853027,-2.1364998817443848,2.042099952697754
1702216442404681200,6.89068115234375,1.3046000003814697,-2.2126998901367188,3.7756998538970947
1702216442464681200,6.95068115234375,2.0708000659942627,-2.267400026321411,5.7490997314453125
1702216442524681200,7.01068115234375,2.4105000495910645,-3.1435999870300293,7.910299777984619
1702216442584681200,7.07068115234375,3.2844998836517334,-4.690000057220459,6.567699909210205
1702216442644681200,7.13068115234375,1.7381999492645264,-5.968599796295166,8.865300178527832
1702216442704681200,7.19068115234375,-2.866799831390381,-6.136699676513672,4.594299793243408
1702216442764681200,7.25068115234375,-0.9934999942779541,-4.589799880981445,3.615299940109253
1702216442824681200,7.31068115234375,-0.5651999711990356,-1.0504000186920166,3.9661998748779297
1702216442884681200,7.37068115234375,1.6466000080108643,-0.11939999461174011,1.7730998992919922
1702216442944681200,7.43068115234375,1.8356999158859253,-1.1868000030517578,-0.0867999941110611
1702216443004681200,7.49068115234375,1.625100016593933,-3.3459999561309814,-4.918499946594238
1702216443064681200,7.55068115234375,2.4113998413085938,-4.673299789428711,-10.235599517822266
1702216443124681200,7.61068115234375,2.82069993019104,-3.319000005722046,-9.637399673461914
1702216443184681200,7.67068115234375,1.0225999355316162,-3.7544000148773193,-8.741999626159668
1702216443244681200,7.73068115234375,0.8075000047683716,-1.737399935722351,-8.642399787902832
1702216443304681200,7.79068115234375,-1.1414999961853027,-5.0447998046875,-6.7475996017456055
1702216443364681200,7.85068115234375,-2.2226998805999756,-7.523299694061279,-4.287099838256836
1702216443424681200,7.91068115234375,0.21699999272823334,-4.181600093841553,0.3458999991416931
1702216443484681200,7.97068115234375,0.661899983882904,-2.914799928665161,3.170599937438965
1702216443544681200,8.03068115234375,0.5202000141143799,-2.575700044631958,6.12529993057251
1702216443604681200,8.09068115234375,0.10509999841451645,-2.8710999488830566,6.395899772644043
1702216443664681200,8.15068115234375,0.396699994802475,-3.419999837875366,8.016399383544922
1702216443724681200,8.21068115234375,0.24549999833106995,-2.588399887084961,9.593400001525879
1702216443784681200,8.27068115234375,-2.134899854660034,-5.165899753570557,8.64169979095459
1702216443844681200,8.33068115234375,-6.332799911499023,-5.6468000411987305,6.391200065612793
1702216443904681200,8.39068115234375,-3.079699993133545,-5.316999912261963,4.525300025939941
1702216443964681200,8.45068115234375,-0.11739999800920486,-3.6984000205993652,2.760699987411499
1702216444024681200,8.51068115234375,1.7409999370574951,-1.3753999471664429,-0.598800003528595
1702216444084681200,8.57068115234375,-2.6088998317718506,0.2784999907016754,-2.6033999919891357
1702216444144681200,8.63068115234375,0.9898999929428101,-1.3596999645233154,-2.825899839401245
1702216444204681200,8.69068115234375,2.069399833679199,-2.566499948501587,-5.3480000495910645
1702216444264681200,8.75068115234375,2.1908998489379883,-5.481199741363525,-8.291399955749512
1702216444324681200,8.81068115234375,0.4496999979019165,-5.734899997711182,-13.355400085449219
1702216444384681200,8.87068115234375,-1.7838999032974243,-2.261399984359741,-11.438699722290039
1702216444444681200,8.93068115234375,-2.4963998794555664,-4.542999744415283,-7.855499744415283
1702216444504681200,8.99068115234375,1.2724000215530396,-4.388299942016602,-2.4031999111175537
1702216444564709400,9.05070947265625,2.3203999996185303,-2.4707000255584717,0.9501000046730042
1702216444624682800,9.110682861328126,1.0978999137878418,-2.822399854660034,3.0349998474121094
1702216444684681200,9.17068115234375,0.3791999816894531,-4.496399879455566,2.7551000118255615
1702216444744681200,9.23068115234375,1.9779999256134033,-4.717299938201904,2.865000009536743
1702216444804681200,9.29068115234375,4.7281999588012695,-3.5199999809265137,9.566399574279785
1702216444864681200,9.35068115234375,3.749799966812134,-3.94569993019104,9.925299644470215
1702216444924681200,9.41068115234375,2.0699000358581543,-5.530699729919434,8.536799430847168
1702216444984681200,9.47068115234375,-2.7151999473571777,-7.621500015258789,5.638499736785889
1702216445044681200,9.53068115234375,-0.523099958896637,-5.7453999519348145,2.965099811553955
1702216445104681200,9.59068115234375,1.2847999334335327,-2.4933998584747314,3.570499897003174
1702216445164681200,9.65068115234375,0.5798999667167664,-1.8466999530792236,1.0422999858856201
1702216445224681200,9.71068115234375,0.26019999384880066,-2.7867000102996826,-1.9261999130249023
1702216445284681200,9.77068115234375,0.12119999527931213,-4.2704997062683105,-7.587499618530273
1702216445344681200,9.83068115234375,2.8962998390197754,-2.429299831390381,-10.364500045776367
1702216445404681200,9.89068115234375,2.096299886703491,-1.0310999155044556,-11.092100143432617
1702216445464681200,9.95068115234375,0.021299999207258224,-1.365299940109253,-9.662599563598633
1702216445524681200,10.01068115234375,2.3374998569488525,-1.3650000095367432,-8.542099952697754
1702216445584681200,10.07068115234375,1.9972999095916748,-2.0149998664855957,-7.155599594116211
1702216445644681200,10.13068115234375,-0.9723999500274658,-6.561699867248535,-5.775599956512451
1702216445704681200,10.19068115234375,-1.4704999923706055,-7.0447998046875,-3.8202998638153076
1702216445764681200,10.25068115234375,1.4564999341964722,-5.420499801635742,1.12309992313385
1702216445824681200,10.31068115234375,1.8776999711990356,-5.578399658203125,4.30620002746582
1702216445884681200,10.37068115234375,2.3775999546051025,-4.939899921417236,5.7079997062683105
1702216445944681200,10.43068115234375,2.055999994277954,-4.111599922180176,7.870599746704102
1702216446004681200,10.49068115234375,2.7000999450683594,-2.9940998554229736,11.402199745178223
1702216446064681200,10.55068115234375,-0.12119999527931213,-5.298099994659424,9.300999641418457
1702216446124681200,10.61068115234375,-0.5529999732971191,-6.165999889373779,8.21560001373291
1702216446184681200,10.67068115234375,-3.8241000175476074,-7.924499988555908,3.493299961090088
1702216446244681200,10.73068115234375,-2.0253000259399414,-5.852999687194824,2.169600009918213
1702216446304681200,10.79068115234375,1.4488999843597412,-2.550999879837036,1.561900019645691
1702216446364681200,10.85068115234375,0.7728999853134155,-1.3624999523162842,-0.13809999823570251
1702216446424681200,10.91068115234375,0.11989999562501907,-2.3138999938964844,-3.0764999389648438
1702216446484681200,10.97068115234375,1.4377999305725098,-2.4749999046325684,-7.1743998527526855
1702216446544681200,11.03068115234375,0.8634999990463257,-1.4710999727249146,-8.890199661254883
1702216446604681200,11.09068115234375,-0.49619999527931213,-0.16409999132156372,-7.736299991607666
1702216446664681200,11.15068115234375,-2.2130000591278076,-0.3190000057220459,-7.828099727630615
1702216446724681200,11.21068115234375,2.1742000579833984,-1.5614999532699585,-9.530599594116211
1702216446784681200,11.27068115234375,3.031899929046631,-5.824100017547607,-7.130300045013428
1702216446844681200,11.33068115234375,2.2024998664855957,-6.883399963378906,-3.2660999298095703
1702216446904681200,11.39068115234375,1.6613999605178833,-4.092299938201904,0.1671999990940094
1702216446964681200,11.45068115234375,0.5615000128746033,-3.0189998149871826,2.527600049972534
1702216447024681200,11.51068115234375,-0.31520000100135803,-3.7812998294830322,3.954899787902832
1702216447084681200,11.57068115234375,-0.7198999524116516,-3.7964999675750732,4.8130998611450195
1702216447144681200,11.63068115234375,-0.28839999437332153,-4.705399990081787,7.581399917602539
1702216447204681200,11.69068115234375,-0.6044999957084656,-4.296299934387207,7.868899822235107
1702216447264681200,11.75068115234375,-1.768799901008606,-5.7164998054504395,10.540999412536621
1702216447324681200,11.81068115234375,-2.0164999961853027,-8.014200210571289,8.393799781799316
1702216447384681200,11.87068115234375,-5.975499629974365,-4.413599967956543,2.0688998699188232
1702216447444681200,11.93068115234375,-2.222899913787842,-1.941999912261963,3.4606997966766357
1702216447504681200,11.99068115234375,1.6007999181747437,-2.57669997215271,1.0369999408721924
1702216447564681200,12.05068115234375,3.909099817276001,-3.0778000354766846,-2.7002999782562256
1702216447624681200,12.11068115234375,0.6876999735832214,-0.6942999958992004,-4.839699745178223
1702216447684681200,12.17068115234375,0.6918999552726746,2.488999843597412,-4.735799789428711
1702216447744681200,12.23068115234375,-0.6177999973297119,0.38989999890327454,-4.461299896240234
1702216447804681200,12.29068115234375,3.9275999069213867,-5.76639986038208,-10.9891996383667
1702216447864681200,12.35068115234375,10.106599807739258,-4.918999671936035,-6.081399917602539
1702216447924681200,12.41068115234375,2.0118000507354736,-4.351799964904785,-8.663999557495117
1702216447984681200,12.47068115234375,-2.6452999114990234,-8.525199890136719,-4.092099666595459
1702216448044681200,12.53068115234375,-0.07419999688863754,-8.00059986114502,-1.5077999830245972
1702216448104681200,12.59068115234375,1.246899962425232,-4.5488996505737305,2.8595998287200928
1702216448164681200,12.65068115234375,-0.4132999777793884,-3.8413000106811523,6.020400047302246
1702216448224681200,12.71068115234375,-1.6004999876022339,-3.604599952697754,7.569699764251709
1702216448284681200,12.77068115234375,-1.8978999853134155,-3.379699945449829,7.956999778747559
1702216448344681200,12.83068115234375,-0.5432999730110168,-3.8922998905181885,9.969399452209473
1702216448404681200,12.89068115234375,-2.4365999698638916,-4.296999931335449,8.644599914550781
1702216448464681200,12.95068115234375,-2.0212998390197754,-4.173599720001221,7.81719970703125
1702216448524681200,13.01068115234375,-3.491299867630005,-7.112299919128418,4.98390007019043
1702216448584681200,13.07068115234375,-2.0732998847961426,-5.454799652099609,3.082199811935425
1702216448644681200,13.13068115234375,0.01860000006854534,-3.2590999603271484,0.5989999771118164
1702216448704681200,13.19068115234375,-1.1894999742507935,-2.261899948120117,-1.4977999925613403
1702216448764681200,13.25068115234375,1.2645000219345093,-2.413800001144409,-3.383699893951416
1702216448824681200,13.31068115234375,3.8638999462127686,-2.5604000091552734,-4.3557000160217285
1702216448884681200,13.37068115234375,5.23199987411499,-0.6588000059127808,-5.554999828338623
1702216448944681200,13.43068115234375,2.9554998874664307,-3.208199977874756,-10.16249942779541
1702216449004681200,13.49068115234375,4.364699840545654,-3.3262999057769775,-8.247200012207031
1702216449064681200,13.55068115234375,3.054800033569336,-1.4160999059677124,-7.696300029754639
1702216449124681200,13.61068115234375,-0.4617999792098999,-6.060800075531006,-5.69249963760376
1702216449184681200,13.67068115234375,-1.5822999477386475,-8.121500015258789,-4.414299964904785
1702216449244681200,13.73068115234375,1.5655999183654785,-5.242000102996826,0.5600000023841858
1702216449304681200,13.79068115234375,1.1200000047683716,-3.6952998638153076,4.1875996589660645
1702216449364681200,13.85068115234375,0.409199982881546,-4.088099956512451,5.9430999755859375
1702216449424681200,13.91068115234375,0.7486000061035156,-3.7906999588012695,6.091599941253662
1702216449484681200,13.97068115234375,2.0516998767852783,-4.0391998291015625,6.996899604797363
1702216449544681200,14.03068115234375,2.098299980163574,-3.3446998596191406,8.769100189208984
1702216449604681200,14.09068115234375,0.40699997544288635,-5.185400009155273,8.578999519348145
1702216449664681200,14.15068115234375,-2.3638999462127686,-5.309599876403809,7.3541998863220215
1702216449724681200,14.21068115234375,-2.7381999492645264,-4.632699966430664,5.027699947357178
1702216449784681200,14.27068115234375,-0.4926999807357788,-5.023499965667725,3.645900011062622
1702216449844681200,14.33068115234375,-0.41439998149871826,-2.997999906539917,2.0902998447418213
1702216449904681200,14.39068115234375,-1.1014000177383423,-2.568699836730957,-1.034500002861023
1702216449964681200,14.45068115234375,0.5202999711036682,-4.049099922180176,-2.7460999488830566
1702216450024681200,14.51068115234375,4.448899745941162,-3.8668999671936035,-6.645199775695801
1702216450084681200,14.57068115234375,2.2816998958587646,-1.9954999685287476,-7.22689962387085
1702216450144681200,14.63068115234375,1.1793999671936035,-3.9957997798919678,-12.646899223327637
1702216450204681200,14.69068115234375,2.423499822616577,-2.077399969100952,-11.376999855041504
1702216450264681200,14.75068115234375,0.5655999779701233,-2.816999912261963,-7.901899814605713
1702216450324681200,14.81068115234375,-2.6312999725341797,-6.79509973526001,-5.837399959564209
1702216450384681200,14.87068115234375,-1.5234999656677246,-7.253299713134766,-2.8724000453948975
1702216450444681200,14.93068115234375,2.417799949645996,-5.870500087738037,0.24379999935626984
1702216450504681200,14.99068115234375,3.3529000282287598,-5.046000003814697,3.620699882507324
1702216450564681200,15.05068115234375,3.257499933242798,-5.904699802398682,4.548799991607666
1702216450624681200,15.11068115234375,3.2207000255584717,-6.677999973297119,5.743299961090088
1702216450684681200,15.17068115234375,4.985499858856201,-3.7829999923706055,11.253499984741211
1702216450744681200,15.23068115234375,1.1050000190734863,-4.974499702453613,13.39579963684082
1702216450804681200,15.29068115234375,-0.835099995136261,-6.746199607849121,10.033299446105957
1702216450864681200,15.35068115234375,-2.577699899673462,-6.839200019836426,3.9184999465942383
1702216450924681200,15.41068115234375,0.2004999965429306,-5.249199867248535,5.873600006103516
1702216450984681200,15.47068115234375,0.760699987411499,-4.769499778747559,3.1370999813079834
1702216451044681200,15.53068115234375,1.0372999906539917,-5.491099834442139,-1.1110999584197998
1702216451104681200,15.59068115234375,-1.0584999322891235,-4.19219970703125,-6.1352996826171875
1702216451164681200,15.65068115234375,-1.9305999279022217,-1.6341999769210815,-12.324799537658691
1702216451224681200,15.71068115234375,-0.9073999524116516,0.7046999931335449,-12.98129940032959
1702216451284681200,15.77068115234375,-1.2907999753952026,1.4436999559402466,-12.414499282836914
1702216451344681200,15.83068115234375,2.0706000328063965,-1.0378999710083008,-9.370200157165527
1702216451404681200,15.89068115234375,2.9022998809814453,-1.3859999179840088,-6.349899768829346
1702216451464681200,15.95068115234375,0.12999999523162842,-7.161799907684326,-5.897199630737305
1702216451524681200,16.01068115234375,-1.570599913597107,-9.316800117492676,-3.7583999633789062
1702216451584681200,16.07068115234375,1.8729000091552734,-6.096799850463867,1.5375999212265015
1702216451644681200,16.13068115234375,2.5162999629974365,-4.965799808502197,4.80649995803833
1702216451704681200,16.19068115234375,1.4671999216079712,-4.4527997970581055,6.546000003814697
1702216451764681200,16.25068115234375,1.5895999670028687,-3.2059998512268066,9.867599487304688
1702216451824681200,16.31068115234375,-0.17579999566078186,-5.087100028991699,10.010899543762207
1702216451884681200,16.37068115234375,-0.9372999668121338,-5.930299758911133,11.023499488830566
1702216451944681200,16.43068115234375,-1.942599892616272,-8.550899505615234,7.175999641418457
1702216452004681200,16.49068115234375,-2.5425000190734863,-8.495800018310547,2.6638998985290527
1702216452064681200,16.55068115234375,-1.3690999746322632,-5.761600017547607,1.9193999767303467
1702216452124681200,16.61068115234375,-0.07169999927282333,-3.861299991607666,0.2475999891757965
1702216452184681200,16.67068115234375,1.4433000087738037,-3.8640999794006348,-2.100299835205078
1702216452244681200,16.73068115234375,4.03249979019165,-3.724900007247925,-4.67579984664917
1702216452304681200,16.79068115234375,5.652400016784668,-1.1864999532699585,-5.485099792480469
1702216452364681200,16.85068115234375,1.892199993133545,0.4213999807834625,-6.797499656677246
1702216452424681200,16.91068115234375,-3.0767998695373535,0.37709999084472656,-9.541600227355957
1702216452484681200,16.97068115234375,2.9586000442504883,-1.136699914932251,-8.496699333190918
1702216452544681200,17.03068115234375,4.753999710083008,-1.9378999471664429,-9.432799339294434
1702216452604681200,17.09068115234375,0.4607999920845032,-8.205699920654297,-9.73169994354248
1702216452664681200,17.15068115234375,2.0578999519348145,-8.017000198364258,-3.6826000213623047
1702216452724681200,17.21068115234375,2.2029998302459717,-6.045199871063232,0.5579999685287476
1702216452784681200,17.27068115234375,1.3044999837875366,-5.849799633026123,3.230599880218506
1702216452844681200,17.33068115234375,0.32339999079704285,-5.6819000244140625,4.654999732971191
1702216452904681200,17.39068115234375,0.851099967956543,-5.603300094604492,6.620299816131592
1702216452964681200,17.45068115234375,2.0195999145507812,-4.509399890899658,9.380599975585938
1702216453024681200,17.51068115234375,1.5872999429702759,-5.467299938201904,8.291699409484863
1702216453084681200,17.57068115234375,0.8310999870300293,-5.735699653625488,9.744199752807617
1702216453144681200,17.63068115234375,-2.134000062942505,-6.969499588012695,6.422299861907959
1702216453204682800,17.690682861328124,-2.573899984359741,-4.848999977111816,5.368099689483643
1702216453264681200,17.75068115234375,-0.4276999831199646,-3.5032999515533447,4.411600112915039
1702216453324681200,17.81068115234375,1.0011999607086182,-4.739200115203857,2.3157999515533447
1702216453384681200,17.87068115234375,1.8636999130249023,-5.775399684906006,-3.163100004196167
1702216453444681200,17.93068115234375,2.705199956893921,-3.506899833679199,-8.093299865722656
1702216453504681200,17.99068115234375,4.1250996589660645,-1.3256999254226685,-7.9151997566223145
1702216453564681200,18.05068115234375,1.4500999450683594,-1.2055000066757202,-9.925600051879883
1702216453624681200,18.11068115234375,3.331699848175049,-2.6786999702453613,-9.734199523925781
1702216453684681200,18.17068115234375,3.4245998859405518,-1.0827000141143799,-8.807299613952637
1702216453744681200,18.23068115234375,0.2619999945163727,-4.893799781799316,-7.489799976348877
1702216453804681200,18.29068115234375,-1.416700005531311,-8.80739974975586,-6.207499980926514
1702216453864681200,18.35068115234375,1.1546000242233276,-6.8100996017456055,-0.3118000030517578
1702216453924681200,18.41068115234375,0.7963999509811401,-6.694499969482422,3.60479998588562
1702216453984681200,18.47068115234375,0.2515999972820282,-6.017099857330322,5.961099624633789
1702216454044681200,18.53068115234375,0.6478999853134155,-5.342099666595459,7.18779993057251
1702216454104681200,18.59068115234375,1.9884999990463257,-4.043299674987793,10.019100189208984
1702216454164681200,18.65068115234375,0.48639997839927673,-4.247299671173096,9.64169979095459
1702216454224681200,18.71068115234375,-0.7026000022888184,-6.273900032043457,9.038299560546875
1702216454284681200,18.77068115234375,-2.4173998832702637,-7.107100009918213,7.251099586486816
1702216454344681200,18.83068115234375,-1.2307000160217285,-6.703799724578857,6.892999649047852
1702216454404681200,18.89068115234375,-0.3869999945163727,-6.108099937438965,5.10260009765625
1702216454464681200,18.95068115234375,-0.12289999425411224,-7.6113996505737305,1.0277999639511108
1702216454524681200,19.01068115234375,-0.6850000023841858,-8.111299514770508,-7.245999813079834
1702216454584681200,19.07068115234375,5.186800003051758,-4.483299732208252,-6.551599979400635
1702216454644681200,19.13068115234375,5.3069000244140625,-0.45729997754096985,-6.774199962615967
1702216454704681200,19.19068115234375,2.1238999366760254,-1.892899990081787,-16.66950035095215
1702216454764681200,19.25068115234375,3.4916999340057373,-1.0921000242233276,-10.660200119018555
1702216454824681200,19.31068115234375,2.2520999908447266,-2.7933998107910156,-10.340499877929688
1702216454884681200,19.37068115234375,0.39579999446868896,-6.091899871826172,-6.346099853515625
1702216454944681200,19.43068115234375,-1.670199990272522,-10.6722993850708,-4.059899806976318
1702216455004681200,19.49068115234375,0.5108000040054321,-7.621899604797363,-0.8741999864578247
1702216455064681200,19.55068115234375,2.5214998722076416,-5.649199962615967,3.279399871826172
1702216455124681200,19.61068115234375,1.5296999216079712,-5.982500076293945,5.751999855041504
1702216455184681200,19.67068115234375,1.051900029182434,-5.955899715423584,6.525899887084961
1702216455244751400,19.73075146484375,2.795300006866455,-4.21429967880249,10.369500160217285
1702216455304681200,19.79068115234375,2.7024998664855957,-3.315199851989746,10.78909969329834
1702216455364681200,19.85068115234375,1.4961999654769897,-5.20829963684082,9.50529956817627
1702216455424681200,19.91068115234375,-2.915599822998047,-7.263000011444092,7.99869966506958
1702216455484681200,19.97068115234375,-2.762399911880493,-9.303999900817871,3.8720998764038086
1702216455544681200,20.03068115234375,-3.198899984359741,-7.086400032043457,3.7137999534606934
1702216455604681200,20.09068115234375,-0.6943999528884888,-5.75469970703125,2.3857998847961426
1702216455664681200,20.15068115234375,1.0592999458312988,-5.9452996253967285,-1.1953999996185303
1702216455724681200,20.21068115234375,2.051300048828125,-5.632199764251709,-6.239899635314941
1702216455784681200,20.27068115234375,3.4068000316619873,-2.488600015640259,-9.084099769592285
1702216455844681200,20.33068115234375,3.9296998977661133,-2.0981998443603516,-10.963500022888184
1702216455904681200,20.39068115234375,3.7795000076293945,-2.8687000274658203,-14.070599555969238
1702216455964681200,20.45068115234375,3.916099786758423,-2.852299928665161,-11.109600067138672
1702216456024681200,20.51068115234375,0.19529999792575836,-5.603300094604492,-9.575399398803711
1702216456084682800,20.570682861328127,-1.3966000080108643,-10.691999435424805,-6.1793999671936035
1702216456144681200,20.63068115234375,0.49129998683929443,-8.71619987487793,-1.3834999799728394
1702216456204681200,20.69068115234375,1.3561999797821045,-7.516299724578857,2.816499948501587
1702216456264681200,20.75068115234375,1.0525000095367432,-7.273699760437012,5.311500072479248
1702216456324681200,20.81068115234375,1.369499921798706,-6.543399810791016,5.649499893188477
1702216456384681200,20.87068115234375,3.2416000366210938,-4.977299690246582,9.502900123596191
1702216456444681200,20.93068115234375,2.2167999744415283,-2.6594998836517334,13.41189956665039
1702216456504681200,20.99068115234375,2.402400016784668,-6.250999927520752,10.512199401855469
1702216456564681200,21.05068115234375,-1.2635999917984009,-8.577699661254883,8.323999404907227
1702216456624681200,21.11068115234375,-3.7493999004364014,-8.87179946899414,5.130300045013428
1702216456684681200,21.17068115234375,-0.9319999814033508,-6.7963995933532715,3.978599786758423
1702216456744681200,21.23068115234375,0.6746000051498413,-5.4558000564575195,2.7928998470306396
1702216456804681200,21.29068115234375,-0.047599997371435165,-6.361799716949463,-1.6403999328613281
1702216456864681200,21.35068115234375,-0.3849000036716461,-6.320699691772461,-7.908599853515625
1702216456924681200,21.41068115234375,2.804999828338623,-2.8794000148773193,-7.802599906921387
1702216456984681200,21.47068115234375,2.9019999504089355,-0.6351000070571899,-10.112899780273438
1702216457044681200,21.53068115234375,-0.017099998891353607,-1.6507999897003174,-15.450399398803711
1702216457104681200,21.59068115234375,1.3837000131607056,-2.6504998207092285,-10.467399597167969
1702216457164681200,21.65068115234375,1.129599928855896,-2.6826000213623047,-8.546699523925781
1702216457224681200,21.71068115234375,-1.5241999626159668,-7.917699813842773,-6.301799774169922
1702216457284681200,21.77068115234375,-1.6058999300003052,-9.517899513244629,-2.3666999340057373
1702216457344681200,21.83068115234375,1.6861000061035156,-7.125999927520752,0.640999972820282
1702216457404681200,21.89068115234375,2.121000051498413,-6.062299728393555,3.484099864959717
1702216457464681200,21.95068115234375,1.7213000059127808,-6.192599773406982,5.22189998626709
1702216457524681200,22.01068115234375,1.8399999141693115,-5.463200092315674,6.938599586486816
1702216457584681200,22.07068115234375,3.665599822998047,-3.662099838256836,11.633699417114258
1702216457644681200,22.13068115234375,1.7883999347686768,-3.0075998306274414,10.584599494934082
1702216457704681200,22.19068115234375,0.9506999850273132,-5.755199909210205,9.227999687194824
1702216457764681200,22.25068115234375,-3.1414999961853027,-9.343999862670898,6.481199741363525
1702216457824681200,22.31068115234375,-3.1308000087738037,-8.208499908447266,3.0110998153686523
1702216457884681200,22.37068115234375,-0.044099997729063034,-4.941999912261963,3.3307998180389404
1702216457944681200,22.43068115234375,-0.07539999485015869,-3.176299810409546,1.309399962425232
1702216458004681200,22.49068115234375,0.0892999991774559,-3.6923999786376953,-1.5305999517440796
1702216458064681200,22.55068115234375,1.5367999076843262,-3.6181998252868652,-5.364799976348877
1702216458124681200,22.61068115234375,3.7035999298095703,-2.081699848175049,-6.70359992980957
1702216458184681200,22.67068115234375,2.444999933242798,-2.3180999755859375,-9.588199615478516
1702216458244681200,22.73068115234375,2.0309998989105225,-2.0973000526428223,-12.818399429321289
1702216458304681200,22.79068115234375,2.121500015258789,-2.304800033569336,-8.674200057983398
1702216458364681200,22.85068115234375,-0.7723000049591064,-4.3379998207092285,-9.1766996383667
1702216458424681200,22.91068115234375,-3.4652998447418213,-9.498000144958496,-5.974999904632568
1702216458484681200,22.97068115234375,-0.3068999946117401,-8.170100212097168,-1.806399941444397
1702216458544681200,23.03068115234375,2.659899950027466,-6.512599945068359,2.255699872970581
1702216458604681200,23.09068115234375,1.778499960899353,-6.912600040435791,5.732100009918213
1702216458664681200,23.15068115234375,1.6378999948501587,-6.368499755859375,6.527699947357178
1702216458724681200,23.21068115234375,3.384999990463257,-3.8173999786376953,7.795300006866455
1702216458784681200,23.27068115234375,3.871999979019165,-2.8618998527526855,12.250999450683594
1702216458844681200,23.33068115234375,1.8253999948501587,-2.572199821472168,11.312399864196777
1702216458904681200,23.39068115234375,-1.199199914932251,-7.86929988861084,8.287799835205078
1702216458964681200,23.45068115234375,-1.6380000114440918,-8.492199897766113,5.620100021362305
1702216459024681200,23.51068115234375,-2.218600034713745,-10.13539981842041,1.9842000007629395
1702216459084681200,23.57068115234375,-0.8651999831199646,-6.796099662780762,-1.430899977684021
1702216459144681200,23.63068115234375,0.5232999920845032,-3.209699869155884,-2.411799907684326
1702216459204681200,23.69068115234375,0.44859999418258667,-2.302299976348877,-2.8306000232696533
1702216459264681200,23.75068115234375,0.9670999646186829,-1.3482999801635742,-5.560199737548828
1702216459324681200,23.81068115234375,1.9585999250411987,0.25849997997283936,-8.841699600219727
1702216459384681200,23.87068115234375,0.8359000086784363,-2.199899911880493,-11.906999588012695
1702216459444681200,23.93068115234375,0.7673999667167664,-3.7903997898101807,-12.455499649047852
1702216459504681200,23.99068115234375,0.9639999866485596,-3.0364999771118164,-8.054699897766113
1702216459564709400,24.05070947265625,-0.46699997782707214,-5.6875996589660645,-5.113100051879883
1702216459624681200,24.11068115234375,-2.3553998470306396,-6.6975998878479,-2.9182000160217285
1702216459684681200,24.17068115234375,1.0450999736785889,-5.7089996337890625,-0.5525999665260315
1702216459744681200,24.23068115234375,2.879199981689453,-5.3403000831604,2.5256998538970947
1702216459804681200,24.29068115234375,3.0569000244140625,-5.768099784851074,4.187999725341797
1702216459864681200,24.35068115234375,3.5598998069763184,-5.897199630737305,4.701900005340576
1702216459924681200,24.41068115234375,5.110599994659424,-5.378200054168701,7.675299644470215
1702216459984681200,24.47068115234375,4.629799842834473,-4.479599952697754,9.10669994354248
1702216460044681200,24.53068115234375,5.2729997634887695,-5.46560001373291,9.53439998626709
1702216460104681200,24.59068115234375,-2.3933000564575195,-7.660399913787842,5.6554999351501465
1702216460164681200,24.65068115234375,-1.3703999519348145,-5.979499816894531,5.722799777984619
1702216460224681200,24.71068115234375,1.281000018119812,-4.701999664306641,4.213299751281738
1702216460284681200,24.77068115234375,1.5896999835968018,-3.352299928665161,1.9157999753952026
1702216460344681200,24.83068115234375,-0.9729999899864197,-3.1675000190734863,-1.1461999416351318
1702216460404681200,24.89068115234375,-1.4532999992370605,-3.7458999156951904,-5.221399784088135
1702216460464681200,24.95068115234375,0.06700000166893005,-3.4707000255584717,-9.154099464416504
1702216460524681200,25.01068115234375,-0.32249999046325684,-2.524899959564209,-9.69119930267334
1702216460584681200,25.07068115234375,-1.3969999551773071,-2.5244998931884766,-11.4621000289917
1702216460644681200,25.13068115234375,-0.05869999900460243,-1.5638999938964844,-8.815899848937988
1702216460704681200,25.19068115234375,-0.6442999839782715,-1.4110000133514404,-6.751299858093262
1702216460764681200,25.25068115234375,-2.8050999641418457,-5.134699821472168,-4.375400066375732
1702216460824681200,25.31068115234375,-1.6861000061035156,-6.4197998046875,-2.2363998889923096
1702216460884681200,25.37068115234375,2.498199939727783,-5.162199974060059,1.2247999906539917
1702216460944681200,25.43068115234375,3.3585000038146973,-4.673699855804443,3.8787999153137207
1702216461004681200,25.49068115234375,2.8062000274658203,-4.475899696350098,5.283999919891357
1702216461064681200,25.55068115234375,3.3685998916625977,-3.537400007247925,6.439599990844727
1702216461124681200,25.61068115234375,2.995800018310547,-3.8568999767303467,8.393899917602539
1702216461184681200,25.67068115234375,2.5643999576568604,-5.021500110626221,10.150199890136719
1702216461244681200,25.73068115234375,2.047800064086914,-6.269899845123291,6.980799674987793
1702216461304681200,25.79068115234375,-0.8978999853134155,-7.039999961853027,4.452399730682373
1702216461364681200,25.85068115234375,1.0259000062942505,-5.154699802398682,4.644899845123291
1702216461424681200,25.91068115234375,1.6538000106811523,-3.587399959564209,2.6893999576568604
1702216461484681200,25.97068115234375,-0.1673000007867813,-3.500999927520752,0.17989999055862427
1702216461544681200,26.03068115234375,-1.2415999174118042,-3.997799873352051,-4.01200008392334
1702216461604681200,26.09068115234375,-0.4368000030517578,-3.3515000343322754,-8.918499946594238
1702216461664681200,26.15068115234375,-0.4544999897480011,-2.994999885559082,-11.20099925994873
1702216461724681200,26.21068115234375,-2.8862998485565186,-3.3773000240325928,-13.692599296569824
1702216461784681200,26.27068115234375,-0.8937999606132507,-2.0209999084472656,-10.196700096130371
1702216461844681200,26.33068115234375,-1.8952999114990234,-6.305500030517578,-7.628199577331543
1702216461904681200,26.39068115234375,-3.987499952316284,-11.089099884033203,-6.327099800109863
1702216461964681200,26.45068115234375,1.7569999694824219,-8.018799781799316,-1.548699975013733
1702216462024681200,26.51068115234375,2.9403998851776123,-5.423999786376953,2.0743000507354736
1702216462084681200,26.57068115234375,2.5483999252319336,-5.57450008392334,4.492300033569336
1702216462144681200,26.63068115234375,2.4075000286102295,-5.8308000564575195,4.5868000984191895
1702216462204681200,26.69068115234375,4.017300128936768,-5.71019983291626,5.11359977722168
1702216462264681200,26.75068115234375,4.862499713897705,-3.9457998275756836,10.555299758911133
1702216462324681200,26.81068115234375,4.5366997718811035,-4.723199844360352,11.485300064086914
1702216462384681200,26.87068115234375,2.7970998287200928,-8.535900115966797,7.270400047302246
1702216462444681200,26.93068115234375,-2.302299976348877,-7.746299743652344,5.470900058746338
1702216462504681200,26.99068115234375,-4.542699813842773,-5.193999767303467,5.300600051879883
1702216462564681200,27.05068115234375,-2.0253000259399414,-3.045799970626831,4.242300033569336
1702216462624681200,27.11068115234375,-0.5715999603271484,-5.1103997230529785,0.7014999985694885
1702216462684681200,27.17068115234375,0.2467999905347824,-6.034499645233154,-5.046199798583984
1702216462744681200,27.23068115234375,1.8119999170303345,-3.2985999584198,-8.101300239562988
1702216462804681200,27.29068115234375,1.4864999055862427,-2.020699977874756,-5.966399669647217
1702216462864681200,27.35068115234375,-1.163100004196167,-3.4614999294281006,-9.874199867248535
1702216462924681200,27.41068115234375,-0.5223000049591064,-4.111799716949463,-12.743499755859375
1702216462984681200,27.47068115234375,-0.17880000174045563,-2.1606998443603516,-8.751500129699707
1702216463044681200,27.53068115234375,-1.6210999488830566,-4.2845001220703125,-5.4853997230529785
1702216463104681200,27.59068115234375,-1.8991999626159668,-7.0829997062683105,-3.8341000080108643
1702216463164681200,27.65068115234375,0.20069999992847443,-6.3227996826171875,-0.6933000087738037
1702216463224681200,27.71068115234375,1.8734999895095825,-5.054800033569336,3.5794999599456787
1702216463284681200,27.77068115234375,2.646899938583374,-4.520699977874756,4.595399856567383
1702216463344681200,27.83068115234375,3.2363998889923096,-4.5441999435424805,5.037600040435791
1702216463404681200,27.89068115234375,4.189300060272217,-5.197299957275391,6.214200019836426
1702216463464681200,27.95068115234375,5.3526997566223145,-3.469599962234497,7.7378997802734375
1702216463524681200,28.01068115234375,2.3529999256134033,-5.667999744415283,8.628499984741211
1702216463584681200,28.07068115234375,1.7181999683380127,-6.109600067138672,7.581199645996094
1702216463644681200,28.13068115234375,0.6182000041007996,-6.184299945831299,4.222799777984619
1702216463704681200,28.19068115234375,-0.14959999918937683,-4.330100059509277,3.8516998291015625
1702216463764681200,28.25068115234375,-0.5291999578475952,-3.139899969100952,0.23420000076293945
1702216463824681200,28.31068115234375,-0.2621999979019165,-3.7664999961853027,-3.6857998371124268
1702216463884681200,28.37068115234375,-0.5494999885559082,-2.6575000286102295,-7.22629976272583
1702216463944681200,28.43068115234375,-1.4042999744415283,-0.6811000108718872,-7.225299835205078
1702216464004681200,28.49068115234375,-3.8001999855041504,-0.8947999477386475,-9.934999465942383
1702216464064681200,28.55068115234375,-2.633999824523926,-3.3248000144958496,-8.573399543762207
1702216464124681200,28.61068115234375,0.257999986410141,-2.3188998699188232,-7.761499881744385
1702216464184681200,28.67068115234375,0.13339999318122864,-3.5750999450683594,-4.966300010681152
1702216464244681200,28.73068115234375,-2.9514999389648438,-5.440199851989746,-2.4052999019622803
1702216464304681200,28.79068115234375,-0.14429999887943268,-4.686699867248535,-1.4713999032974243
1702216464364681200,28.85068115234375,3.0277998447418213,-4.379799842834473,1.5008999109268188
1702216464424681200,28.91068115234375,4.102099895477295,-3.9766998291015625,3.602299928665161
1702216464484681200,28.97068115234375,3.803999900817871,-3.6297998428344727,4.284299850463867
1702216464544681200,29.03068115234375,4.822299957275391,-3.3835999965667725,7.1967997550964355
1702216464604681200,29.09068115234375,5.196300029754639,-3.432499885559082,8.920999526977539
1702216464664682800,29.150682861328125,2.8387999534606934,-6.620699882507324,7.7652997970581055
1702216464724681200,29.21068115234375,1.7907999753952026,-7.496399879455566,5.512599945068359
1702216464784681200,29.27068115234375,-1.1334999799728394,-7.061899662017822,2.6238999366760254
1702216464844681200,29.33068115234375,0.4696999788284302,-3.304299831390381,2.406899929046631
1702216464904681200,29.39068115234375,1.0017999410629272,-1.6596999168395996,0.7597000002861023
1702216464964681200,29.45068115234375,-0.24210000038146973,-2.1160998344421387,-1.643899917602539
1702216465024681200,29.51068115234375,-0.9182999730110168,-3.207199811935425,-4.949599742889404
1702216465084681200,29.57068115234375,-0.15049999952316284,-2.520699977874756,-9.257100105285645
1702216465144681200,29.63068115234375,-0.7003999948501587,-1.5965999364852905,-10.47029972076416
1702216465204681200,29.69068115234375,-2.9144999980926514,-2.011699914932251,-10.133099555969238
1702216465264681200,29.75068115234375,-0.21379999816417694,-0.8341000080108643,-7.822000026702881
1702216465324681200,29.81068115234375,-1.462899923324585,-4.581900119781494,-5.843100070953369
1702216465384681200,29.87068115234375,-4.4028000831604,-8.570099830627441,-5.291299819946289
1702216465444681200,29.93068115234375,1.0377999544143677,-5.841599941253662,-1.3766999244689941
1702216465504681200,29.99068115234375,4.054199695587158,-4.3989996910095215,2.0140998363494873
1702216465564681200,30.05068115234375,3.9557998180389404,-4.530200004577637,4.181600093841553
1702216465624681200,30.11068115234375,3.4941999912261963,-5.106400012969971,4.663700103759766
1702216465684681200,30.17068115234375,5.316299915313721,-4.445199966430664,5.491099834442139
1702216465744681200,30.23068115234375,5.80019998550415,-4.0569000244140625,7.974599838256836
1702216465804681200,30.29068115234375,4.246200084686279,-5.815199851989746,10.143400192260742
1702216465864681200,30.35068115234375,0.9554999470710754,-7.640899658203125,5.828199863433838
1702216465924681200,30.41068115234375,0.9576999545097351,-7.381199836730957,3.681999921798706
1702216465984681200,30.47068115234375,1.5925999879837036,-4.6992998123168945,3.2669999599456787
1702216466044681200,30.53068115234375,1.2913999557495117,-3.7888998985290527,1.0988999605178833
1702216466104681200,30.59068115234375,-0.0139999995008111,-3.944399833679199,-1.8252999782562256
1702216466164681200,30.65068115234375,-1.0225999355316162,-4.4091997146606445,-7.663599967956543
1702216466224681200,30.71068115234375,-1.3041999340057373,-3.19599986076355,-11.527099609375
1702216466284681200,30.77068115234375,-3.572999954223633,-2.131199836730957,-12.347000122070312
1702216466344681200,30.83068115234375,-4.309299945831299,-2.4505999088287354,-10.706099510192871
1702216466404681200,30.89068115234375,-2.2891998291015625,-2.1942999362945557,-8.8996000289917
1702216466464681200,30.95068115234375,-2.714900016784668,-6.956699848175049,-6.612400054931641
1702216466524681200,31.01068115234375,-2.2544000148773193,-9.568399429321289,-3.6101999282836914
1702216466584681200,31.07068115234375,1.5769000053405762,-7.588500022888184,0.14829999208450317
1702216466644681200,31.13068115234375,3.0913000106811523,-6.480099678039551,3.485100030899048
1702216466704681200,31.19068115234375,2.5745999813079834,-5.985499858856201,5.530900001525879
1702216466764681200,31.25068115234375,3.895699977874756,-4.251299858093262,7.830499649047852
1702216466824681200,31.31068115234375,4.337699890136719,-4.1651997566223145,10.483200073242188
1702216466884681200,31.37068115234375,3.66129994392395,-5.0329999923706055,8.173399925231934
1702216466944681200,31.43068115234375,-0.36559998989105225,-5.968699932098389,7.911999702453613
1702216467004681200,31.49068115234375,-1.6559998989105225,-5.480799674987793,9.064299583435059
1702216467064682800,31.550682861328124,-1.3411999940872192,-7.787499904632568,6.344299793243408
1702216467124681200,31.61068115234375,0.5493000149726868,-8.219900131225586,3.6596999168395996
1702216467184681200,31.67068115234375,1.1338999271392822,-8.173699378967285,0.17059999704360962
1702216467244681200,31.73068115234375,-0.5712000131607056,-7.2851996421813965,-6.168799877166748
1702216467304681200,31.79068115234375,1.2863999605178833,-3.747799873352051,-9.584799766540527
1702216467364681200,31.85068115234375,1.7843999862670898,-0.7393999695777893,-7.053499698638916
1702216467424681200,31.91068115234375,-1.273800015449524,-2.592099905014038,-12.383699417114258
1702216467484681200,31.97068115234375,-1.792699933052063,-3.8088998794555664,-16.141599655151367
1702216467544681200,32.03068115234375,-1.3644999265670776,-3.4801998138427734,-8.305500030517578
1702216467604681200,32.09068115234375,-4.301700115203857,-5.563600063323975,-7.268899917602539
1702216467664681200,32.15068115234375,-5.5106000900268555,-13.67140007019043,-4.957599639892578
1702216467724681200,32.21068115234375,1.0123000144958496,-10.167699813842773,-0.7186999917030334
1702216467784681200,32.27068115234375,3.4438998699188232,-8.246600151062012,3.14139986038208
1702216467844681200,32.33068115234375,3.1225998401641846,-7.737299919128418,5.919399738311768
1702216467904681200,32.39068115234375,3.4375998973846436,-7.252199649810791,6.069599628448486
1702216467964681200,32.45068115234375,4.2388997077941895,-5.209099769592285,6.606400012969971
1702216468024681200,32.51068115234375,7.472399711608887,-3.1292998790740967,14.036399841308594
1702216468084681200,32.57068115234375,4.400199890136719,-6.33459997177124,11.787699699401855
1702216468144681200,32.63068115234375,1.9763998985290527,-10.965499877929688,7.1579999923706055
1702216468204681200,32.69068115234375,-1.5429999828338623,-11.719599723815918,3.8732998371124268
1702216468264681200,32.75068115234375,-1.7532999515533447,-8.64330005645752,2.7070999145507812
1702216468324681200,32.81068115234375,-1.2000999450683594,-5.980299949645996,1.206399917602539
1702216468384681200,32.87068115234375,-1.8641999959945679,-5.222300052642822,-0.6920999884605408
1702216468444681200,32.93068115234375,1.8087999820709229,-6.503900051116943,-5.357100009918213
1702216468504681200,32.99068115234375,4.279799938201904,-3.892899990081787,-9.45479965209961
1702216468564681200,33.05068115234375,4.826099872589111,-1.499400019645691,-13.010699272155762
1702216468624681200,33.11068115234375,4.317699909210205,-1.1589999198913574,-13.529099464416504
1702216468684681200,33.17068115234375,3.7395999431610107,-4.033999919891357,-10.968599319458008
1702216468744681200,33.23068115234375,2.2179999351501465,-3.449399948120117,-9.84280014038086
1702216468804681200,33.29068115234375,-1.4704999923706055,-9.488299369812012,-6.303400039672852
1702216468864682800,33.350682861328124,-2.33270001411438,-10.892600059509277,-3.216899871826172
1702216468924682800,33.41068286132813,1.1223000288009644,-8.636099815368652,1.0727999210357666
1702216468984681200,33.47068115234375,2.5434000492095947,-7.416100025177002,4.298099994659424
1702216469044681200,33.53068115234375,3.2405998706817627,-6.814199924468994,5.496699810028076
1702216469104681200,33.59068115234375,4.220699787139893,-5.2195000648498535,8.152999877929688
1702216469164681200,33.65068115234375,5.392899990081787,-4.2044997215271,10.95479965209961
1702216469224681200,33.71068115234375,4.463500022888184,-6.549599647521973,9.325799942016602
1702216469284681200,33.77068115234375,1.4711999893188477,-9.224800109863281,7.554100036621094
1702216469344681200,33.83068115234375,-1.684000015258789,-9.287799835205078,5.778500080108643
1702216469404681200,33.89068115234375,-2.5393998622894287,-7.046199798583984,3.8104000091552734
1702216469464681200,33.95068115234375,0.9884999990463257,-4.296199798583984,3.2640998363494873
1702216469524681200,34.01068115234375,2.2360000610351562,-5.25600004196167,0.9120000004768372
1702216469584681200,34.07068115234375,-1.1725999116897583,-6.4191999435424805,-2.784099817276001
1702216469644681200,34.13068115234375,-3.329200029373169,-4.758800029754639,-9.680099487304688
1702216469704681200,34.19068115234375,1.9430999755859375,-3.125999927520752,-9.910699844360352
1702216469764681200,34.25068115234375,-0.7612999677658081,-0.8405999541282654,-10.862799644470215
1702216469824681200,34.31068115234375,-0.14010000228881836,-1.4672999382019043,-13.967199325561523
1702216469884681200,34.37068115234375,-0.8219999670982361,-4.5192999839782715,-10.487199783325195
1702216469944681200,34.43068115234375,-3.858299970626831,-9.886499404907227,-8.589699745178223
1702216470004681200,34.49068115234375,-1.4995999336242676,-8.704699516296387,-3.5797998905181885
1702216470064681200,34.55068115234375,0.45249998569488525,-6.678400039672852,0.6955999732017517
1702216470124681200,34.61068115234375,1.9698998928070068,-7.261999607086182,4.646599769592285
1702216470184681200,34.67068115234375,0.44669997692108154,-6.860799789428711,6.541299819946289
1702216470244681200,34.73068115234375,1.9122999906539917,-5.16349983215332,9.723999977111816
1702216470304681200,34.79068115234375,3.1847000122070312,-4.12939977645874,11.448199272155762
1702216470364681200,34.85068115234375,2.6159000396728516,-3.5453999042510986,12.539799690246582
1702216470424681200,34.91068115234375,-0.6990000009536743,-7.585700035095215,7.164000034332275
1702216470484681200,34.97068115234375,-4.679299831390381,-8.408900260925293,4.967499732971191
1702216470544681200,35.03068115234375,-1.8614999055862427,-6.987099647521973,4.605599880218506
1702216470604681200,35.09068115234375,-0.25110000371932983,-3.9729998111724854,3.5254998207092285
1702216470664681200,35.15068115234375,-0.13669998943805695,-2.9458999633789062,0.946399986743927
1702216470724681200,35.21068115234375,0.6334999799728394,-3.8676998615264893,-0.9937999844551086
1702216470784681200,35.27068115234375,0.9875999689102173,-4.883500099182129,-5.3531999588012695
1702216470844681200,35.33068115234375,0.04169999808073044,-4.962399959564209,-8.44909954071045
1702216470904681200,35.39068115234375,1.9656999111175537,-4.4888997077941895,-10.833999633789062
1702216470964681200,35.45068115234375,2.571699857711792,-2.545599937438965,-9.424599647521973
1702216471024681200,35.51068115234375,1.2531999349594116,-1.1337000131607056,-8.884200096130371
1702216471084681200,35.57068115234375,-4.486799716949463,-6.085799694061279,-9.215799331665039
1702216471144681200,35.63068115234375,-1.726199984550476,-8.552899360656738,-5.564499855041504
1702216471204681200,35.69068115234375,2.449199914932251,-5.623600006103516,-0.03629999980330467
1702216471264681200,35.75068115234375,2.241499900817871,-4.5177998542785645,3.623999834060669
1702216471324681200,35.81068115234375,2.07069993019104,-4.329699993133545,5.498199939727783
1702216471384681200,35.87068115234375,2.432800054550171,-4.869699954986572,5.1975998878479
1702216471444682800,35.93068286132812,4.773399829864502,-3.7194998264312744,7.669999599456787
1702216471504681200,35.99068115234375,5.0696001052856445,-4.553400039672852,10.347799301147461
1702216471564681200,36.05068115234375,0.7754999995231628,-5.848599910736084,10.625299453735352
1702216471624681200,36.11068115234375,-2.0999999046325684,-5.505300045013428,8.41189956665039
1702216471684681200,36.17068115234375,0.41689997911453247,-4.758399963378906,7.070399761199951
1702216471744681200,36.23068115234375,1.4816999435424805,-3.4154000282287598,4.384900093078613
1702216471804681200,36.29068115234375,0.6876999735832214,-3.5010998249053955,1.5120999813079834
1702216471864681200,36.35068115234375,0.006300000008195639,-3.996799945831299,-2.4679999351501465
1702216471924681200,36.41068115234375,0.45889997482299805,-5.026000022888184,-6.833799839019775
1702216471984681200,36.47068115234375,1.4226999282836914,-4.553999900817871,-8.409799575805664
1702216472044681200,36.53068115234375,0.8263999819755554,-4.395599842071533,-12.47909927368164
1702216472104681200,36.59068115234375,-0.06929999589920044,-3.2028000354766846,-11.643799781799316
1702216472164681200,36.65068115234375,-0.37770000100135803,-2.270599842071533,-8.887399673461914
1702216472224681200,36.71068115234375,-1.986799955368042,-7.174099922180176,-5.4653000831604
1702216472284681200,36.77068115234375,-0.034299999475479126,-6.888199806213379,-2.0005998611450195
1702216472344682800,36.83068286132813,2.0606000423431396,-5.302700042724609,1.6837999820709229
1702216472404682800,36.89068286132812,1.7733999490737915,-4.456500053405762,4.945699691772461
1702216472464682800,36.950682861328126,1.489799976348877,-3.8369998931884766,5.917699813842773
1702216472524682800,37.01068286132813,1.6303999423980713,-3.1225998401641846,7.81149959564209
1702216472584682800,37.07068286132812,1.7969999313354492,-2.701900005340576,9.808699607849121
1702216472644682800,37.130682861328125,1.3265999555587769,-4.029299736022949,10.595499992370605
1702216472704682800,37.19068286132813,0.5112000107765198,-5.3643999099731445,9.63759994506836
1702216472764682800,37.25068286132812,-1.699299931526184,-8.25220012664795,5.954099655151367
1702216472824682800,37.310682861328125,-0.901199996471405,-6.189300060272217,3.9993999004364014
1702216472884682800,37.37068286132813,0.8308999538421631,-2.7316999435424805,2.415599822998047
1702216472944682800,37.43068286132812,-0.1559000015258789,-2.241499900817871,0.031700000166893005
1702216473004681200,37.49068115234375,1.132200002670288,-2.890699863433838,-2.3206000328063965
1702216473064681200,37.55068115234375,2.8710999488830566,-4.2829999923706055,-7.330099582672119
1702216473124681200,37.61068115234375,2.001999855041504,-4.1915998458862305,-13.977299690246582
1702216473184681200,37.67068115234375,1.8588999509811401,-1.8752999305725098,-11.173799514770508
1702216473244681200,37.73068115234375,0.9332999587059021,-2.565199851989746,-8.896900177001953
1702216473304681200,37.79068115234375,-0.35359999537467957,-6.4054999351501465,-7.521999835968018
1702216473364682800,37.850682861328124,-1.3012999296188354,-10.643699645996094,-5.147900104522705
1702216473424682800,37.91068286132813,2.8880999088287354,-6.025099754333496,-0.0876999944448471
1702216473484682800,37.97068286132812,2.349599838256836,-4.965699672698975,3.9743998050689697
1702216473544682800,38.030682861328124,1.0382999181747437,-5.339999675750732,6.939499855041504
1702216473604681200,38.09068115234375,1.0927000045776367,-3.6305999755859375,6.140699863433838
1702216473664681200,38.15068115234375,3.412599802017212,-3.231599807739258,7.291299819946289
1702216473724681200,38.21068115234375,2.977799892425537,-4.355199813842773,9.740300178527832
1702216473784681200,38.27068115234375,1.569700002670288,-6.698999881744385,11.68529987335205
1702216473844681200,38.33068115234375,-0.48089998960494995,-7.8557000160217285,6.786799907684326
1702216473904681200,38.39068115234375,-1.9453999996185303,-6.996299743652344,4.601999759674072
1702216473964681200,38.45068115234375,-0.3294999897480011,-5.0548996925354,2.7194998264312744
1702216474024681200,38.51068115234375,-1.0145999193191528,-2.639899969100952,-0.6044999957084656
1702216474084681200,38.57068115234375,-0.29589998722076416,-1.4846999645233154,-2.190999984741211
1702216474144681200,38.63068115234375,0.6097999811172485,-2.4759998321533203,-4.361099720001221
1702216474204681200,38.69068115234375,2.130699872970581,-2.033099889755249,-6.621899604797363
1702216474264681200,38.75068115234375,1.5017999410629272,0.5867999792098999,-9.282999992370605
1702216474324681200,38.81068115234375,-0.3617999851703644,-1.742900013923645,-8.395400047302246
1702216474384681200,38.87068115234375,0.7057999968528748,-4.555599689483643,-10.649700164794922
1702216474444681200,38.93068115234375,1.8331999778747559,-4.566699981689453,-4.116600036621094
1702216474504681200,38.99068115234375,-2.656100034713745,-4.185699939727783,-3.245699882507324
1702216474564709400,39.05070947265625,0.5401999950408936,-3.8078999519348145,-1.3997999429702759
1702216474624681200,39.11068115234375,2.616299867630005,-2.2249999046325684,2.4893999099731445
1702216474684681200,39.17068115234375,2.086899995803833,-4.670199871063232,2.6554999351501465
1702216474744681200,39.23068115234375,1.7524999380111694,-4.8069000244140625,3.929799795150757
1702216474804681200,39.29068115234375,3.0941998958587646,-4.155600070953369,9.243399620056152
1702216474864681200,39.35068115234375,0.5622999668121338,-2.8004000186920166,12.419099807739258
1702216474924681200,39.41068115234375,-2.6133999824523926,-4.851500034332275,9.881999969482422
1702216474984681200,39.47068115234375,-1.4228999614715576,-7.0055999755859375,7.450899600982666
1702216475044681200,39.53068115234375,0.5354999899864197,-7.14109992980957,4.363999843597412
1702216475104681200,39.59068115234375,1.216499924659729,-4.537899971008301,3.817999839782715
1702216475164681200,39.65068115234375,-0.017099998891353607,-2.799999952316284,0.8226000070571899
1702216475224711000,39.7107109375,0.11669999361038208,-3.4255998134613037,-2.2585999965667725
1702216475284681200,39.77068115234375,1.6837999820709229,-4.437099933624268,-7.609099864959717
1702216475344681200,39.83068115234375,5.075500011444092,-2.4960999488830566,-12.133199691772461
1702216475404682800,39.89068286132812,2.240799903869629,-1.5406999588012695,-10.325399398803711
1702216475464682800,39.950682861328126,1.4062999486923218,-0.20009998977184296,-9.325399398803711
1702216475524681200,40.01068115234375,-0.06399999558925629,-5.193999767303467,-9.219399452209473
1702216475584681200,40.07068115234375,-2.867499828338623,-13.613899230957031,-7.398599624633789
1702216475644681200,40.13068115234375,0.7103999853134155,-8.952300071716309,-0.598800003528595
1702216475704681200,40.19068115234375,2.3095998764038086,-6.016200065612793,2.9203999042510986
1702216475764681200,40.25068115234375,1.314099907875061,-4.774399757385254,6.463099956512451
1702216475824681200,40.31068115234375,0.7404999732971191,-3.9467999935150146,8.173500061035156
1702216475884681200,40.37068115234375,1.2720999717712402,-3.3043999671936035,8.996399879455566
1702216475944681200,40.43068115234375,3.086099863052368,-2.70169997215271,9.759699821472168
1702216476004681200,40.49068115234375,1.27839994430542,-6.672599792480469,9.99269962310791
1702216476064681200,40.55068115234375,1.3960999250411987,-6.361499786376953,7.919399738311768
1702216476124681200,40.61068115234375,-4.540299892425537,-5.720699787139893,3.311800003051758
1702216476184681200,40.67068115234375,-1.61489999294281,-7.957899570465088,4.826299667358398
1702216476244681200,40.73068115234375,1.169600009918213,-7.215099811553955,2.854300022125244
1702216476304681200,40.79068115234375,3.1427998542785645,-5.616999626159668,-0.5625
1702216476364681200,40.85068115234375,1.155900001525879,-3.216899871826172,-2.960399866104126
1702216476424681200,40.91068115234375,-0.45649999380111694,-2.542099952697754,-5.787999629974365
1702216476484681200,40.97068115234375,2.4505999088287354,-1.601699948310852,-7.065399646759033
1702216476544681200,41.03068115234375,4.058599948883057,0.3188999891281128,-6.85290002822876
1702216476604681200,41.09068115234375,2.5707998275756836,-1.1065000295639038,-7.674299716949463
1702216476664681200,41.15068115234375,0.6656999588012695,-5.14109992980957,-9.68239974975586
1702216476724681200,41.21068115234375,0.12449999898672104,-2.7702999114990234,-10.680399894714355
1702216476784681200,41.27068115234375,-1.1679999828338623,-7.019000053405762,-3.622799873352051
1702216476844681200,41.33068115234375,-2.4433000087738037,-7.576900005340576,-2.8257999420166016
1702216476904681200,41.39068115234375,1.1079000234603882,-6.053400039672852,0.13019999861717224
1702216476964681200,41.45068115234375,2.050999879837036,-3.9017999172210693,3.9532999992370605
1702216477024681200,41.51068115234375,2.436499834060669,-3.7632999420166016,5.9066996574401855
1702216477084681200,41.57068115234375,2.2391998767852783,-3.504999876022339,6.642699718475342
1702216477144681200,41.63068115234375,4.22160005569458,-3.293599843978882,8.634900093078613
1702216477204681200,41.69068115234375,3.748199939727783,-4.708499908447266,9.944299697875977
1702216477264681200,41.75068115234375,2.6756999492645264,-6.752199649810791,9.821700096130371
1702216477324681200,41.81068115234375,-2.4208998680114746,-10.07699966430664,5.092799663543701
1702216477384681200,41.87068115234375,-1.3562999963760376,-7.532199859619141,3.849599838256836
1702216477444681200,41.93068115234375,1.1510000228881836,-3.327699899673462,2.624199867248535
1702216477504681200,41.99068115234375,0.7461000084877014,-1.639299988746643,0.3978999853134155
1702216477564681200,42.05068115234375,-0.26659998297691345,-2.5384998321533203,-1.6785999536514282
1702216477624681200,42.11068115234375,0.9528999924659729,-4.2778000831604,-6.31220006942749
1702216477684681200,42.17068115234375,2.7433998584747314,-3.4870998859405518,-11.772799491882324
1702216477744681200,42.23068115234375,0.6864999532699585,-2.6208999156951904,-11.369099617004395
1702216477804681200,42.29068115234375,2.2211999893188477,0.09229999780654907,-7.85699987411499
1702216477864681200,42.35068115234375,0.4696999788284302,-4.320099830627441,-8.23960018157959
1702216477924681200,42.41068115234375,-3.1806998252868652,-8.808899879455566,-11.701699256896973
1702216477984681200,42.47068115234375,-0.0632999986410141,-9.528599739074707,-2.095099925994873
1702216478044681200,42.53068115234375,1.7286999225616455,-6.6651997566223145,1.952299952507019
1702216478104681200,42.59068115234375,1.029099941253662,-4.93179988861084,4.7841997146606445
1702216478164681200,42.65068115234375,0.4777999818325043,-4.495100021362305,5.585099697113037
1702216478224681200,42.71068115234375,1.917099952697754,-4.8919997215271,6.184700012207031
1702216478284681200,42.77068115234375,4.621500015258789,-4.440299987792969,11.083399772644043
1702216478344681200,42.83068115234375,2.8641998767852783,-4.221099853515625,11.040800094604492
1702216478404681200,42.89068115234375,0.007899999618530273,-5.561800003051758,10.23799991607666
1702216478464681200,42.95068115234375,-0.9912999868392944,-9.43340015411377,7.040999889373779
1702216478524681200,43.01068115234375,1.496500015258789,-9.83799934387207,4.988499641418457
1702216478584681200,43.07068115234375,0.5916000008583069,-6.554800033569336,2.302500009536743
1702216478644681200,43.13068115234375,-1.1888999938964844,-3.8352999687194824,-0.47849997878074646
1702216478704681200,43.19068115234375,0.5004000067710876,-5.383800029754639,-2.6947999000549316
1702216478764681200,43.25068115234375,2.035399913787842,-5.8852996826171875,-6.1479997634887695
1702216478824681200,43.31068115234375,3.097100019454956,-4.487400054931641,-9.813699722290039
1702216478884681200,43.37068115234375,2.6187000274658203,-2.754999876022339,-11.9753999710083
1702216478944681200,43.43068115234375,2.4480998516082764,-3.7042999267578125,-10.208499908447266
1702216479004681200,43.49068115234375,3.533799886703491,-0.7328000068664551,-8.95259952545166
1702216479064681200,43.55068115234375,-0.58160001039505,-4.777400016784668,-5.684599876403809
1702216479124681200,43.61068115234375,-4.454599857330322,-8.414999961853027,-4.700999736785889
1702216479184681200,43.67068115234375,0.1712999939918518,-6.957799911499023,-0.9580000042915344
1702216479244681200,43.73068115234375,2.321499824523926,-4.999399662017822,2.5667998790740967
1702216479304681200,43.79068115234375,2.4198999404907227,-4.489599704742432,4.4045000076293945
1702216479364681200,43.85068115234375,2.4370999336242676,-5.037300109863281,5.533499717712402
1702216479424681200,43.91068115234375,3.3402998447418213,-5.277499675750732,6.467700004577637
1702216479484681200,43.97068115234375,3.2437000274658203,-5.99429988861084,10.456299781799316
1702216479544681200,44.03068115234375,5.144799709320068,-5.553099632263184,12.689099311828613
1702216479604681200,44.09068115234375,-0.553600013256073,-6.576299667358398,6.1763997077941895
1702216479664681200,44.15068115234375,0.34199997782707214,-6.948099613189697,7.302999973297119
1702216479724681200,44.21068115234375,0.8309999704360962,-7.464900016784668,3.211699962615967
1702216479784681200,44.27068115234375,-0.4495999813079834,-5.405200004577637,-0.4396999776363373
1702216479844681200,44.33068115234375,-0.2590000033378601,-4.226399898529053,-4.682699680328369
1702216479904681200,44.39068115234375,-0.9416999816894531,-2.2249999046325684,-7.006700038909912
1702216479964681200,44.45068115234375,0.8631999492645264,-1.9855999946594238,-10.798500061035156
1702216480024681200,44.51068115234375,-4.3013997077941895,-1.4460999965667725,-13.807799339294434
1702216480084681200,44.57068115234375,-2.1126999855041504,-1.9031999111175537,-11.247300148010254
1702216480144681200,44.63068115234375,0.5888999700546265,-1.6151999235153198,-8.37399959564209
1702216480204681200,44.69068115234375,0.32889997959136963,-3.674499988555908,-4.685100078582764
1702216480264681200,44.75068115234375,-2.1562998294830322,-7.810199737548828,-3.5750999450683594
1702216480324681200,44.81068115234375,1.4393999576568604,-6.672299861907959,-1.7760999202728271
1702216480384681200,44.87068115234375,4.3013997077941895,-5.081999778747559,1.8768999576568604
1702216480444681200,44.93068115234375,3.7582998275756836,-5.263799667358398,3.958899974822998
1702216480504681200,44.99068115234375,3.4687998294830322,-5.6691999435424805,5.201699733734131
1702216480564681200,45.05068115234375,5.256700038909912,-4.486499786376953,9.95199966430664
1702216480624681200,45.11068115234375,1.8776999711990356,-6.422699928283691,11.687699317932129
1702216480684681200,45.17068115234375,2.6087000370025635,-8.116499900817871,9.861700057983398
1702216480744681200,45.23068115234375,-2.3452999591827393,-8.429900169372559,3.738600015640259
1702216480804681200,45.29068115234375,-2.3513998985290527,-4.9328999519348145,5.482100009918213
1702216480864681200,45.35068115234375,-0.4275999963283539,-3.6577999591827393,3.1803998947143555
1702216480924681200,45.41068115234375,1.2207000255584717,-4.911099910736084,0.8307999968528748
1702216480984681200,45.47068115234375,1.4422999620437622,-5.444999694824219,-5.5341997146606445
1702216481044681200,45.53068115234375,1.125999927520752,-2.0355000495910645,-8.811800003051758
1702216481104681200,45.59068115234375,0.6280999779701233,-0.429999977350235,-9.471099853515625
1702216481164681200,45.65068115234375,-1.1705999374389648,2.0434999465942383,-10.297399520874023
1702216481224681200,45.71068115234375,-1.615299940109253,-1.6739000082015991,-11.432299613952637
1702216481284681200,45.77068115234375,-4.692500114440918,-6.393199920654297,-12.358599662780762
1702216481344681200,45.83068115234375,-2.9544999599456787,-13.323800086975098,-6.539599895477295
1702216481404681200,45.89068115234375,2.8080999851226807,-9.129899978637695,-0.6740999817848206
1702216481464681200,45.95068115234375,2.738600015640259,-5.969299793243408,3.2681000232696533
1702216481524681200,46.01068115234375,1.77839994430542,-4.716300010681152,6.128699779510498
1702216481584681200,46.07068115234375,1.3295999765396118,-4.157199859619141,6.929999828338623
1702216481644681200,46.13068115234375,3.290599822998047,-3.8805999755859375,8.607099533081055
1702216481704681200,46.19068115234375,4.298199653625488,-5.787099838256836,11.051199913024902
1702216481764681200,46.25068115234375,4.282899856567383,-6.919399738311768,12.380599975585938
1702216481824681200,46.31068115234375,2.0500998497009277,-9.09429931640625,7.108099937438965
1702216481884681200,46.37068115234375,-1.8253999948501587,-9.286799430847168,2.5107998847961426
1702216481944681200,46.43068115234375,-0.6417999863624573,-6.387099742889404,2.4296000003814697
1702216482004681200,46.49068115234375,1.3603999614715576,-3.831199884414673,-0.0738999992609024
1702216482064681200,46.55068115234375,1.4448999166488647,-3.896699905395508,-2.0119998455047607
1702216482124681200,46.61068115234375,-0.3878999948501587,-4.341700077056885,-4.72599983215332
1702216482184681200,46.67068115234375,0.8378999829292297,0.43539997935295105,-8.820499420166016
1702216482244681200,46.73068115234375,-0.07440000027418137,-0.8784999847412109,-9.453100204467773
1702216482304681200,46.79068115234375,-3.194399833679199,-2.9756999015808105,-14.255099296569824
1702216482364681200,46.85068115234375,-0.8815000057220459,-3.853299856185913,-10.468799591064453
1702216482424681200,46.91068115234375,0.11270000040531158,-4.620500087738037,-4.415299892425537
1702216482484681200,46.97068115234375,-2.887699842453003,-7.734899997711182,-3.484099864959717
1702216482544681200,47.03068115234375,-2.6556999683380127,-5.607199668884277,-1.1167999505996704
1702216482604681200,47.09068115234375,0.4268999993801117,-4.943900108337402,3.099799871444702
1702216482664681200,47.15068115234375,0.7605999708175659,-4.697400093078613,6.419099807739258
1702216482724681200,47.21068115234375,0.5774999856948853,-4.286200046539307,8.198200225830078
1702216482784681200,47.27068115234375,2.782599925994873,-1.595099925994873,12.387700080871582
1702216482844681200,47.33068115234375,1.1612999439239502,-3.416299819946289,11.31309986114502
1702216482904681200,47.39068115234375,-0.8543999791145325,-7.054999828338623,7.990799903869629
1702216482964681200,47.45068115234375,-1.7627999782562256,-6.408599853515625,4.950699806213379
1702216483024681200,47.51068115234375,-2.2605998516082764,-8.348599433898926,3.0541999340057373
1702216483084681200,47.57068115234375,-0.3123999834060669,-6.129199981689453,1.0394999980926514
1702216483144681200,47.63068115234375,1.313599944114685,-3.275599956512451,-1.111799955368042
1702216483204681200,47.69068115234375,1.462499976158142,-1.7666999101638794,-1.9048999547958374
1702216483264681200,47.75068115234375,2.0408999919891357,-1.6078999042510986,-3.8651998043060303
1702216483324681200,47.81068115234375,2.6424999237060547,-0.7671999931335449,-5.940999984741211
1702216483384681200,47.87068115234375,2.895599842071533,-1.5411999225616455,-8.686399459838867
1702216483444681200,47.93068115234375,1.3614000082015991,-1.1155999898910522,-10.514999389648438
1702216483504681200,47.99068115234375,0.7087000012397766,-2.5618999004364014,-8.439800262451172
1702216483564681200,48.05068115234375,-2.44599986076355,-2.2784998416900635,-9.590099334716797
1702216483624681200,48.11068115234375,-2.9154000282287598,-6.940899848937988,-4.9567999839782715
1702216483684681200,48.17068115234375,-0.8684999942779541,-6.958199977874756,-1.212899923324585
1702216483744681200,48.23068115234375,0.833299994468689,-5.342799663543701,1.7075999975204468
1702216483804681200,48.29068115234375,0.9797999858856201,-4.981400012969971,4.054100036621094
1702216483864681200,48.35068115234375,1.914599895477295,-5.0453996658325195,5.560199737548828
1702216483924681200,48.41068115234375,2.855299949645996,-5.5731000900268555,9.673199653625488
1702216483984681200,48.47068115234375,1.6274999380111694,-4.495199680328369,12.232999801635742
1702216484044681200,48.53068115234375,1.8959999084472656,-6.587199687957764,9.97439956665039
1702216484104681200,48.59068115234375,0.8995999693870544,-7.121799945831299,6.113999843597412
1702216484164681200,48.65068115234375,-2.0167999267578125,-6.767699718475342,4.691699981689453
1702216484224681200,48.71068115234375,-0.008899999782443047,-5.969299793243408,4.10290002822876
1702216484284682800,48.770682861328126,1.5920000076293945,-5.348999977111816,0.8823999762535095
1702216484344682800,48.83068286132813,0.9418999552726746,-5.477799892425537,-3.0419998168945312
1702216484404682800,48.89068286132812,0.019700000062584877,-3.274099826812744,-8.597399711608887
1702216484464681200,48.95068115234375,2.526700019836426,-0.031300000846385956,-7.774999618530273
1702216484524681200,49.01068115234375,0.5813999772071838,-1.1434999704360962,-9.565499305725098
1702216484584681200,49.07068115234375,1.021299958229065,-1.0120999813079834,-13.47719955444336
1702216484644681200,49.13068115234375,-1.374899983406067,-5.064499855041504,-11.796799659729004
1702216484704681200,49.19068115234375,-4.4893999099731445,-3.751199960708618,-10.314099311828613
1702216484764681200,49.25068115234375,-1.8806999921798706,-8.717100143432617,-2.9914000034332275
1702216484824681200,49.31068115234375,0.8199999928474426,-7.922099590301514,-1.767699956893921
1702216484884681200,49.37068115234375,1.5505999326705933,-7.415899753570557,1.6094999313354492
1702216484944682800,49.43068286132812,1.9153999090194702,-8.6274995803833,3.538100004196167
1702216485004682800,49.490682861328125,2.763200044631958,-7.816699981689453,5.8308000564575195
1702216485064682800,49.55068286132813,5.354000091552734,-2.922999858856201,11.626699447631836
1702216485124682800,49.61068286132812,2.5297999382019043,-3.3232998847961426,11.18589973449707
1702216485184682800,49.670682861328125,1.135599970817566,-6.541999816894531,8.493000030517578
1702216485244682800,49.73068286132813,-0.36739999055862427,-7.949899673461914,7.798299789428711
1702216485304682800,49.79068286132812,-3.296299934387207,-7.370499610900879,8.249899864196777
1702216485364682800,49.850682861328124,-2.7533998489379883,-9.167900085449219,7.587899684906006
1702216485424682800,49.91068286132813,-0.2507999837398529,-13.41469955444336,4.691299915313721
1702216485484682800,49.97068286132812,2.2338998317718506,-15.713699340820312,-5.885799884796143
1702216485544682800,50.030682861328124,5.139400005340576,-7.122699737548828,-14.83229923248291
1702216485604681200,50.09068115234375,-0.3075999915599823,2.918299913406372,-6.796499729156494
1702216485664682800,50.15068286132812,-4.050099849700928,3.5590999126434326,-11.797699928283691
1702216485724682800,50.210682861328124,-5.018799781799316,0.040300000458955765,-15.101999282836914
1702216485784682800,50.270682861328126,-1.1675999164581299,-1.0392999649047852,-11.388599395751953
1702216485844682800,50.33068286132813,-2.230299949645996,-4.955199718475342,-9.243599891662598
1702216485904682800,50.39068286132812,-3.7375998497009277,-6.7338995933532715,-9.602999687194824
1702216485964682800,50.450682861328126,-0.4145999848842621,-11.914899826049805,-2.4423999786376953
1702216486024682800,50.51068286132813,1.4984999895095825,-11.591099739074707,-0.42800000309944153
1702216486084682800,50.57068286132812,3.3860998153686523,-9.203299522399902,1.5022999048233032
1702216486144681200,50.63068115234375,4.115699768066406,-8.679200172424316,3.9714999198913574
1702216486204682800,50.69068286132813,5.991299629211426,-6.338899612426758,9.865699768066406
1702216486264681200,50.75068115234375,5.697199821472168,-3.765899896621704,9.576299667358398
1702216486324681200,50.81068115234375,4.924699783325195,-3.871999979019165,10.74959945678711
1702216486384681200,50.87068115234375,2.6419999599456787,-4.650599956512451,9.504899978637695
1702216486444681200,50.93068115234375,0.07180000096559525,-8.678799629211426,7.146399974822998
1702216486504681200,50.99068115234375,-1.08079993724823,-10.545499801635742,5.00029993057251
1702216486564682800,51.05068286132813,-3.1308000087738037,-9.683899879455566,0.29749998450279236
1702216486624682800,51.11068286132812,-2.87749981880188,-7.223599910736084,-0.02070000022649765
1702216486684682800,51.170682861328125,-0.7190999984741211,-4.764699935913086,-2.9993999004364014
1702216486744682800,51.23068286132813,0.9746999740600586,-3.0969998836517334,-5.326099872589111
1702216486804682800,51.29068286132812,0.9355999827384949,-1.381600022315979,-7.88539981842041
1702216486864681200,51.35068115234375,1.9125999212265015,0.8568999767303467,-8.843400001525879
1702216486924682800,51.41068286132813,1.118299961090088,0.7584999799728394,-9.380000114440918
1702216486984682800,51.47068286132812,-1.4262999296188354,-1.2719999551773071,-10.541999816894531
1702216487044682800,51.530682861328124,-0.19409999251365662,-0.35040000081062317,-6.734999656677246
1702216487104682800,51.590682861328126,0.44859999418258667,-2.1582000255584717,-3.543099880218506
1702216487164682800,51.65068286132812,-2.9056999683380127,-4.283400058746338,-8.316699981689453
1702216487224681200,51.71068115234375,-3.2532999515533447,-7.4375996589660645,-4.272900104522705
1702216487284681200,51.77068115234375,0.5496999621391296,-7.842299938201904,0.7694999575614929
1702216487344682800,51.83068286132813,2.8317999839782715,-6.768699645996094,2.8738999366760254
1702216487404682800,51.89068286132812,3.199199914932251,-6.217599868774414,5.089900016784668
1702216487464682800,51.950682861328126,2.912600040435791,-5.36299991607666,7.172599792480469
1702216487524682800,52.01068286132813,3.7479000091552734,-2.8866000175476074,10.940499305725098
1702216487584682800,52.07068286132812,1.411199927330017,-3.1447999477386475,10.559000015258789
1702216487644682800,52.130682861328125,0.3130999803543091,-3.5053999423980713,8.634300231933594
1702216487704682800,52.19068286132813,-0.32199999690055847,-5.878200054168701,7.062299728393555
1702216487764682800,52.25068286132812,-3.9923999309539795,-8.369599342346191,3.1213998794555664
1702216487824682800,52.310682861328125,-0.652899980545044,-8.25790023803711,2.8367998600006104
1702216487884682800,52.37068286132813,2.4700000286102295,-5.728799819946289,0.6233999729156494
1702216487944682800,52.43068286132812,1.2699999809265137,-3.8078999519348145,-1.747399926185608
1702216488004682800,52.490682861328125,0.5346999764442444,-2.4535999298095703,-4.982800006866455
1702216488064682800,52.55068286132813,2.9164998531341553,-1.0041999816894531,-7.271399974822998
1702216488124682800,52.61068286132812,2.3454999923706055,-1.4751999378204346,-10.950599670410156
1702216488184682800,52.670682861328125,1.7675999402999878,-3.102099895477295,-15.023799896240234
1702216488244682800,52.73068286132813,0.9369999766349792,-4.360899925231934,-10.888199806213379
1702216488304682800,52.79068286132812,1.1962999105453491,-1.8525999784469604,-5.999199867248535
1702216488364682800,52.850682861328124,-1.5896999835968018,-5.7322998046875,-3.134999990463257
1702216488424682800,52.91068286132813,-2.6094000339508057,-7.649099826812744,-3.079200029373169
1702216488484682800,52.97068286132812,1.1110999584197998,-7.183199882507324,0.4697999954223633
1702216488544682800,53.030682861328124,2.4783999919891357,-6.154699802398682,3.504199981689453
1702216488604682800,53.090682861328126,2.6892998218536377,-5.916599750518799,5.337500095367432
1702216488664682800,53.15068286132812,3.921599864959717,-4.74459981918335,8.071499824523926
1702216488724682800,53.210682861328124,3.381899833679199,-3.6445999145507812,8.607199668884277
1702216488784682800,53.270682861328126,2.784600019454956,-4.286200046539307,7.6678996086120605
1702216488844682800,53.33068286132813,-1.0205999612808228,-4.611799716949463,9.437299728393555
1702216488904682800,53.39068286132812,-1.737399935722351,-5.868000030517578,6.1828999519348145
1702216488964682800,53.450682861328126,-1.7971999645233154,-6.291199684143066,4.672699928283691
1702216489024682800,53.51068286132813,0.3698999881744385,-5.688799858093262,5.4029998779296875
1702216489084682800,53.57068286132812,1.0787999629974365,-5.655799865722656,2.419299840927124
1702216489144682800,53.630682861328125,0.7129999995231628,-6.263099670410156,-2.319499969482422
1702216489204682800,53.69068286132813,0.36739999055862427,-4.062099933624268,-7.05649995803833
1702216489264681200,53.75068115234375,1.0745999813079834,-2.3543999195098877,-6.402299880981445
1702216489324682800,53.810682861328125,0.8939999938011169,-2.3580000400543213,-10.30359935760498
1702216489384682800,53.87068286132813,2.9208998680114746,-3.585099935531616,-13.199199676513672
1702216489444682800,53.93068286132812,3.052799940109253,-0.5870000123977661,-10.695399284362793
1702216489504682800,53.990682861328125,-0.4802999794483185,-3.9627997875213623,-7.452099800109863
1702216489564709400,54.05070947265625,-2.6054999828338623,-7.627299785614014,-6.436500072479248
1702216489624682800,54.11068286132812,-0.6150999665260315,-6.147899627685547,-2.2916998863220215
1702216489684681200,54.17068115234375,2.0961999893188477,-6.6178998947143555,1.1755999326705933
1702216489744682800,54.23068286132813,1.5746999979019165,-7.600599765777588,3.8185999393463135
1702216489804682800,54.29068286132812,1.2324999570846558,-7.920799732208252,6.353999614715576
1702216489864682800,54.350682861328124,2.878700017929077,-4.830899715423584,11.710999488830566
1702216489924682800,54.41068286132813,2.2783000469207764,-2.8169000148773193,12.63379955291748
1702216489984682800,54.47068286132812,1.5749999284744263,-4.4477996826171875,10.551799774169922
1702216490044682800,54.530682861328124,-2.0927000045776367,-7.126299858093262,6.03939962387085
1702216490104682800,54.590682861328126,-3.731099843978882,-6.548099994659424,4.3815999031066895
1702216490164682800,54.65068286132812,-0.37359997630119324,-5.835599899291992,2.5874998569488525
1702216490224681200,54.71068115234375,0.6656999588012695,-4.918399810791016,-0.6365000009536743
1702216490284681200,54.77068115234375,-0.4456000030040741,-2.8280999660491943,-4.754899978637695
1702216490344681200,54.83068115234375,-0.050200000405311584,-0.8398999571800232,-6.826499938964844
1702216490404681200,54.89068115234375,-1.198699951171875,-0.35349997878074646,-7.249599933624268
1702216490464682800,54.950682861328126,-1.0353000164031982,-1.0379999876022339,-10.443699836730957
1702216490524681200,55.01068115234375,-1.2694000005722046,-3.776899814605713,-11.89069938659668
1702216490584681200,55.07068115234375,0.12610000371932983,-1.6755999326705933,-8.265999794006348
1702216490644681200,55.13068115234375,-1.0611000061035156,-4.401700019836426,-4.989099979400635
1702216490704681200,55.19068115234375,-0.7795999646186829,-5.851999759674072,-3.912599802017212
1702216490764681200,55.25068115234375,2.525399923324585,-5.697199821472168,-1.118399977684021
1702216490824681200,55.31068115234375,3.947499990463257,-5.720699787139893,1.6568999290466309
1702216490884681200,55.37068115234375,4.0416998863220215,-6.093999862670898,3.1072998046875
1702216490944681200,55.43068115234375,5.105199813842773,-5.742099761962891,4.1554999351501465
1702216491004681200,55.49068115234375,4.492300033569336,-5.370500087738037,6.195099830627441
1702216491064681200,55.55068115234375,4.286799907684326,-4.02810001373291,10.078800201416016
1702216491124681200,55.61068115234375,1.2272999286651611,-5.045499801635742,10.50979995727539
1702216491184682800,55.670682861328125,-1.7871999740600586,-7.02679967880249,4.953700065612793
1702216491244681200,55.73068115234375,-1.2925999164581299,-5.604700088500977,2.8023998737335205
1702216491304681200,55.79068115234375,0.7005000114440918,-3.3344998359680176,3.829899787902832
1702216491364681200,55.85068115234375,0.6592999696731567,-2.5033998489379883,1.125
1702216491424681200,55.91068115234375,-0.5403000116348267,-3.04229998588562,-1.8097000122070312
1702216491484681200,55.97068115234375,-2.33270001411438,-3.4756999015808105,-7.9390997886657715
1702216491544681200,56.03068115234375,-2.970899820327759,-1.1657999753952026,-12.341899871826172
1702216491604681200,56.09068115234375,-4.070399761199951,0.53329998254776,-9.524499893188477
1702216491664681200,56.15068115234375,-2.8543999195098877,-1.4911999702453613,-9.366000175476074
1702216491724681200,56.21068115234375,-0.43719998002052307,-5.164599895477295,-8.933799743652344
1702216491784681200,56.27068115234375,0.9002999663352966,-4.523099899291992,-7.103600025177002
1702216491844681200,56.33068115234375,0.4737999737262726,-8.001299858093262,-1.9819999933242798
1702216491904681200,56.39068115234375,1.5051000118255615,-6.507099628448486,-0.4991999864578247
1702216491964681200,56.45068115234375,4.280699729919434,-5.443699836730957,1.1366000175476074
1702216492024681200,56.51068115234375,4.509399890899658,-5.274199962615967,3.2453999519348145
1702216492084681200,56.57068115234375,4.374899864196777,-4.881700038909912,4.389999866485596
1702216492144681200,56.63068115234375,4.9721999168396,-3.6504998207092285,5.612599849700928
1702216492204681200,56.69068115234375,3.3062000274658203,-3.827199935913086,7.840199947357178
1702216492264681200,56.75068115234375,1.7044999599456787,-3.3817999362945557,8.946399688720703
1702216492324681200,56.81068115234375,1.1477999687194824,-4.142499923706055,7.7044997215271
1702216492384681200,56.87068115234375,-1.9276999235153198,-5.232999801635742,4.235300064086914
1702216492444681200,56.93068115234375,-1.5266000032424927,-6.602599620819092,3.4738998413085938
1702216492504681200,56.99068115234375,0.49709999561309814,-5.857500076293945,2.0737998485565186
1702216492564681200,57.05068115234375,1.2079999446868896,-4.38730001449585,-1.4160999059677124
1702216492624681200,57.11068115234375,-0.7454999685287476,-2.690699815750122,-4.299099922180176
1702216492684681200,57.17068115234375,-0.5758999586105347,-2.293599843978882,-6.887099742889404
1702216492744681200,57.23068115234375,1.2172999382019043,-0.9307000041007996,-7.896999835968018
1702216492804681200,57.29068115234375,0.6229999661445618,-0.25360000133514404,-8.318399429321289
1702216492864681200,57.35068115234375,-1.9643999338150024,-0.8941999673843384,-9.801199913024902
1702216492924681200,57.41068115234375,-0.44919997453689575,-5.19980001449585,-8.418700218200684
1702216492984681200,57.47068115234375,-0.8069999814033508,-4.075999736785889,-8.388799667358398
1702216493044681200,57.53068115234375,-0.911300003528595,-8.243800163269043,-2.3000998497009277
1702216493104681200,57.59068115234375,0.9453999996185303,-5.167799949645996,0.1842999905347824
1702216493164681200,57.65068115234375,2.537899971008301,-3.649099826812744,2.8314998149871826
1702216493224681200,57.71068115234375,1.6942999362945557,-2.9384000301361084,5.608799934387207
1702216493284681200,57.77068115234375,1.569700002670288,-2.334699869155884,6.227799892425537
1702216493344681200,57.83068115234375,1.7750999927520752,-3.324699878692627,6.792399883270264
1702216493404681200,57.89068115234375,1.691100001335144,-3.906599998474121,7.8028998374938965
1702216493464681200,57.95068115234375,2.352099895477295,-4.363100051879883,7.984799861907959
1702216493524681200,58.01068115234375,1.9032999277114868,-6.163099765777588,6.332399845123291
1702216493584681200,58.07068115234375,-0.21369999647140503,-7.111499786376953,3.216399908065796
1702216493644681200,58.13068115234375,-0.07530000060796738,-3.691200017929077,2.3457999229431152
1702216493704681200,58.19068115234375,0.7038999795913696,-1.5997999906539917,0.28769999742507935
1702216493764681200,58.25068115234375,0.8533999919891357,-2.2021000385284424,-1.9430999755859375
1702216493824681200,58.31068115234375,0.22769999504089355,-2.9484000205993652,-6.2881999015808105
1702216493884681200,58.37068115234375,0.5916000008583069,-1.5058000087738037,-10.568299293518066
1702216493944681200,58.43068115234375,0.5748000144958496,-0.49390000104904175,-8.655599594116211
1702216494004681200,58.49068115234375,-1.2894999980926514,-0.5728999972343445,-10.315299987792969
1702216494064681200,58.55068115234375,-0.09869999438524246,-2.7040998935699463,-9.911199569702148
1702216494124681200,58.61068115234375,-1.0410000085830688,-5.431600093841553,-8.578299522399902
1702216494184681200,58.67068115234375,-2.1693999767303467,-10.126599311828613,-4.570399761199951
1702216494244681200,58.73068115234375,1.6552000045776367,-7.100299835205078,-0.686199963092804
1702216494304681200,58.79068115234375,3.056999921798706,-5.849899768829346,2.5892999172210693
1702216494364681200,58.85068115234375,2.1512999534606934,-5.647599697113037,5.200999736785889
1702216494424681200,58.91068115234375,1.7848999500274658,-5.115299701690674,6.323699951171875
1702216494484681200,58.97068115234375,3.565500020980835,-3.5260000228881836,9.216300010681152
1702216494544681200,59.03068115234375,2.4457998275756836,-3.2525999546051025,10.182299613952637
1702216494604682800,59.090682861328126,2.0516998767852783,-4.7281999588012695,9.699799537658691
1702216494664682800,59.15068286132812,-1.6584999561309814,-8.013400077819824,7.0279998779296875
1702216494724682800,59.210682861328124,-2.9306998252868652,-8.620200157165527,4.648900032043457
1702216494784681200,59.27068115234375,0.7148000001907349,-6.182699680328369,3.8474998474121094
1702216494844681200,59.33068115234375,1.3953999280929565,-4.3404998779296875,2.033099889755249
1702216494904681200,59.39068115234375,-1.1055999994277954,-3.542099952697754,-1.3945999145507812
1702216494964681200,59.45068115234375,-0.12289999425411224,-3.463599920272827,-5.890899658203125
1702216495024681200,59.51068115234375,2.2856998443603516,-3.0551998615264893,-7.991999626159668
1702216495084681200,59.57068115234375,2.218600034713745,-2.8780999183654785,-9.610099792480469
1702216495144681200,59.63068115234375,1.5374999046325684,-4.557600021362305,-14.683899879455566
1702216495204681200,59.69068115234375,1.7330999374389648,-4.309999942779541,-9.191100120544434
1702216495264681200,59.75068115234375,0.9049999713897705,-3.3314998149871826,-6.423099994659424
1702216495324682800,59.810682861328125,-2.3329999446868896,-6.429999828338623,-3.4944000244140625
1702216495384682800,59.87068286132813,-0.7901999950408936,-7.275300025939941,-1.8519999980926514
1702216495444681200,59.93068115234375,0.6887999773025513,-5.652899742126465,2.150899887084961
1702216495504681200,59.99068115234375,1.0291999578475952,-4.262199878692627,5.471799850463867
1702216495564681200,60.05068115234375,0.49949997663497925,-4.077600002288818,6.2581000328063965
1702216495624681200,60.11068115234375,0.7044999599456787,-3.490999937057495,7.562699794769287
1702216495684681200,60.17068115234375,2.1492998600006104,-2.6526999473571777,11.716300010681152
1702216495744681200,60.23068115234375,0.2946999967098236,-6.0316996574401855,9.520599365234375
1702216495804681200,60.29068115234375,-0.3901999890804291,-4.566100120544434,7.665899753570557
1702216495864681200,60.35068115234375,-4.406199932098389,-8.535599708557129,3.66159987449646
1702216495924681200,60.41068115234375,-3.1868999004364014,-7.094399929046631,2.61299991607666
1702216495984681200,60.47068115234375,-0.33980000019073486,-3.7719998359680176,0.07360000163316727
1702216496044681200,60.53068115234375,0.5708000063896179,-1.6999999284744263,-1.7030999660491943
1702216496104681200,60.59068115234375,1.64329993724823,-1.4893999099731445,-1.9591999053955078
1702216496164681200,60.65068115234375,2.788599967956543,-1.882599949836731,-3.2651000022888184
1702216496224681200,60.71068115234375,3.5964999198913574,-2.097599983215332,-6.008299827575684
1702216496284681200,60.77068115234375,3.724299907684326,-3.797299861907959,-11.667999267578125
1702216496344681200,60.83068115234375,4.279699802398682,-3.506999969482422,-8.417900085449219
1702216496404681200,60.89068115234375,0.7523999810218811,-2.2014000415802,-8.49739933013916
1702216496464681200,60.95068115234375,-1.8671000003814697,-6.319999694824219,-7.4253997802734375
1702216496524681200,61.01068115234375,-0.6105999946594238,-7.714599609375,-3.357499837875366
1702216496584681200,61.07068115234375,0.6911999583244324,-5.099599838256836,0.3343999981880188
1702216496644681200,61.13068115234375,-0.48979997634887695,-4.704099655151367,3.9998998641967773
1702216496704682800,61.19068286132813,-0.7739999890327454,-4.102999687194824,6.460299968719482
1702216496764682800,61.25068286132812,0.5295999646186829,-2.8792998790740967,6.933300018310547
1702216496824681200,61.31068115234375,2.2444000244140625,-2.984499931335449,11.232199668884277
1702216496884681200,61.37068115234375,-0.43059998750686646,-4.9365997314453125,9.097799301147461
1702216496944681200,61.43068115234375,-2.0757999420166016,-5.637099742889404,7.172099590301514
1702216497004681200,61.49068115234375,-1.9061999320983887,-7.70829963684082,5.522500038146973
1702216497064681200,61.55068115234375,-0.5238999724388123,-6.385799884796143,3.7936999797821045
1702216497124681200,61.61068115234375,0.2092999964952469,-3.1243999004364014,2.5257999897003174
1702216497184682800,61.670682861328125,0.18859998881816864,-2.305999994277954,0.7109000086784363
1702216497244682800,61.73068286132813,0.8905999660491943,-3.341099977493286,-0.9066999554634094
1702216497304681200,61.79068115234375,1.5239999294281006,-3.3676998615264893,-4.736799716949463
1702216497364682800,61.850682861328124,2.0678999423980713,-4.4868998527526855,-9.806900024414062
1702216497424681200,61.91068115234375,3.799799919128418,-2.8980000019073486,-12.314099311828613
1702216497484681200,61.97068115234375,2.4303998947143555,-3.375200033187866,-8.898799896240234
1702216497544681200,62.03068115234375,-0.9332000017166138,-2.9903998374938965,-11.68970012664795
1702216497604681200,62.09068115234375,-0.4958999752998352,-6.86299991607666,-5.598099708557129
1702216497664681200,62.15068115234375,-0.2590000033378601,-6.82480001449585,-2.1236000061035156
1702216497724681200,62.21068115234375,0.630899965763092,-5.361000061035156,0.3999999761581421
1702216497784681200,62.27068115234375,0.4194999933242798,-6.26039981842041,3.601599931716919
1702216497844682800,62.33068286132813,0.9264999628067017,-6.6697998046875,5.43720006942749
1702216497904681200,62.39068115234375,2.623800039291382,-4.988699913024902,7.640199661254883
1702216497964681200,62.45068115234375,3.631899833679199,-2.706399917602539,12.610099792480469
1702216498024682800,62.51068286132813,1.677299976348877,-2.561499834060669,10.489699363708496
1702216498084682800,62.57068286132812,-1.3658000230789185,-6.822000026702881,9.021900177001953
1702216498144682800,62.630682861328125,-1.2888000011444092,-8.173600196838379,5.703399658203125
1702216498204682800,62.69068286132813,-1.3056999444961548,-8.000499725341797,3.116999864578247
1702216498264682800,62.75068286132812,-0.9699999690055847,-5.299499988555908,2.784600019454956
1702216498324681200,62.81068115234375,-0.3757999837398529,-4.5727996826171875,0.1251000016927719
1702216498384681200,62.87068115234375,0.40309998393058777,-4.8404998779296875,-2.7911999225616455
1702216498444681200,62.93068115234375,2.2314000129699707,-3.4001998901367188,-5.983299732208252
1702216498504681200,62.99068115234375,1.698099970817566,-1.4180999994277954,-7.096499919891357
1702216498564682800,63.05068286132813,1.9701999425888062,-2.420799970626831,-10.70300006866455
1702216498624681200,63.11068115234375,3.7923998832702637,-2.6838998794555664,-14.073899269104004
1702216498684681200,63.17068115234375,1.6836999654769897,-3.2816998958587646,-10.739299774169922
1702216498744681200,63.23068115234375,-2.0119998455047607,-6.0488996505737305,-10.156399726867676
1702216498804681200,63.29068115234375,-2.08270001411438,-11.479199409484863,-5.4375
1702216498864681200,63.35068115234375,0.18199999630451202,-8.682999610900879,-0.8733999729156494
1702216498924681200,63.41068115234375,1.7803999185562134,-6.555699825286865,2.5135998725891113
1702216498984682800,63.47068286132812,2.426800012588501,-6.5839996337890625,4.87369966506958
1702216499044681200,63.53068115234375,2.8452999591827393,-6.511099815368652,5.219599723815918
1702216499104681200,63.59068115234375,5.114299774169922,-5.360599994659424,7.566299915313721
1702216499164682800,63.65068286132812,6.873199939727783,-3.6928999423980713,10.567500114440918
1702216499224682800,63.710682861328124,4.803100109100342,-5.286599636077881,9.635000228881836
1702216499284681200,63.77068115234375,-0.9702000021934509,-7.049699783325195,8.259200096130371
1702216499344681200,63.83068115234375,-1.0276999473571777,-7.591799736022949,5.302399635314941
1702216499404681200,63.89068115234375,0.15429998934268951,-7.341399669647217,3.6041998863220215
1702216499464681200,63.95068115234375,0.6900999546051025,-4.8294997215271,2.5555999279022217
1702216499524681200,64.01068115234375,-0.3155999779701233,-5.320499897003174,-1.0167999267578125
1702216499584681200,64.07068115234375,-2.0190000534057617,-4.538399696350098,-5.7617998123168945
1702216499644681200,64.13068115234375,-1.424799919128418,-2.13919997215271,-9.084400177001953
1702216499704681200,64.19068115234376,-1.6308000087738037,-2.7326998710632324,-12.197199821472168
1702216499764681200,64.25068115234374,-3.9823999404907227,-0.7657999992370605,-14.29789924621582
1702216499824682800,64.31068286132812,-0.8109999895095825,-1.0339000225067139,-8.092199325561523
1702216499884682800,64.37068286132812,-1.7330999374389648,-3.0393998622894287,-9.58739948272705
1702216499944682800,64.43068286132812,-2.841599941253662,-9.720499992370605,-6.192999839782715
1702216500004682800,64.49068286132812,-0.1995999962091446,-9.232699394226074,-2.1606998443603516
1702216500064681200,64.55068115234376,3.5485999584198,-6.4207000732421875,1.6146999597549438
1702216500124682800,64.61068286132813,3.5546998977661133,-5.6956000328063965,4.381899833679199
1702216500184682800,64.67068286132813,3.3033998012542725,-5.703199863433838,5.564499855041504
1702216500244682800,64.73068286132812,4.633599758148193,-4.419099807739258,7.675099849700928
1702216500304681200,64.79068115234375,5.094799995422363,-3.483299970626831,11.594599723815918
1702216500364681200,64.85068115234375,4.815700054168701,-4.753399848937988,10.2214994430542
1702216500424681200,64.91068115234376,1.195199966430664,-8.482600212097168,6.526399612426758
1702216500484681200,64.97068115234374,-1.9298999309539795,-8.433499336242676,3.2263998985290527
1702216500544681200,65.03068115234375,0.00009999999747378752,-6.572999954223633,2.016200065612793
1702216500604681200,65.09068115234375,0.20829999446868896,-3.365799903869629,-0.597000002861023
1702216500664681200,65.15068115234375,-0.9656999707221985,-2.1045000553131104,-2.4062998294830322
1702216500724681200,65.21068115234375,-1.0576000213623047,-2.3135998249053955,-4.720999717712402
1702216500784682800,65.27068286132813,-0.6539999842643738,-0.34709998965263367,-7.892499923706055
1702216500844682800,65.33068286132813,-2.574399948120117,-1.5902999639511108,-12.036799430847168
1702216500904682800,65.39068286132813,-4.961299896240234,-2.5393998622894287,-12.1072998046875
1702216500964682800,65.45068286132812,-2.656599998474121,-3.4689998626708984,-10.032400131225586
1702216501024681200,65.51068115234375,-0.4712999761104584,-4.253399848937988,-5.248199939727783
1702216501084681200,65.57068115234375,0.47110000252723694,-6.104099750518799,-1.64739990234375
1702216501144681200,65.63068115234375,0.5016999840736389,-5.37470006942749,-0.6710000038146973
1702216501204681200,65.69068115234376,1.3787999153137207,-6.0904998779296875,1.5257999897003174
1702216501264681200,65.75068115234374,3.73009991645813,-5.043900012969971,2.109999895095825
1702216501324681200,65.81068115234375,5.236499786376953,-4.373300075531006,3.999199867248535
1702216501384681200,65.87068115234375,6.042900085449219,-3.7243998050689697,7.336799621582031
1702216501444681200,65.93068115234375,4.218199729919434,-3.395699977874756,10.113800048828125
1702216501504681200,65.99068115234375,2.034899950027466,-5.224999904632568,9.522699356079102
1702216501564681200,66.05068115234376,1.67739999294281,-7.763000011444092,6.757400035858154
1702216501624681200,66.11068115234374,-2.1826000213623047,-6.712899684906006,1.803299903869629
1702216501684681200,66.17068115234375,-0.24409998953342438,-5.349099636077881,2.744499921798706
1702216501744681200,66.23068115234375,-0.11129999905824661,-3.6962997913360596,0.5123999714851379
1702216501804681200,66.29068115234375,0.00989999994635582,-3.0483999252319336,-3.1009998321533203
1702216501864681200,66.35068115234375,0.76419997215271,-2.0383999347686768,-6.132400035858154
1702216501924681200,66.41068115234376,1.442099928855896,0.6990000009536743,-5.512099742889404
1702216501984681200,66.47068115234374,0.9751999974250793,-1.2524999380111694,-7.757099628448486
1702216502044681200,66.53068115234375,-1.4660999774932861,-4.36359977722168,-15.501899719238281
1702216502104681200,66.59068115234375,-0.7538999915122986,-4.419300079345703,-10.054999351501465
1702216502164682800,66.65068286132812,-1.594499945640564,-3.2231998443603516,-6.4390997886657715
1702216502224681200,66.71068115234375,-1.9948999881744385,-6.3927998542785645,-2.8355000019073486
1702216502284681200,66.77068115234376,0.050599999725818634,-5.395299911499023,-2.6171998977661133
1702216502344681200,66.83068115234374,2.61080002784729,-5.325200080871582,0.5038999915122986
1702216502404681200,66.89068115234375,3.565199851989746,-5.6296000480651855,2.9916999340057373
1702216502464681200,66.95068115234375,3.8200998306274414,-5.853999614715576,3.4575998783111572
1702216502524681200,67.01068115234375,5.431099891662598,-4.584099769592285,4.766900062561035
1702216502584681200,67.07068115234375,6.6041998863220215,-4.349100112915039,8.732999801635742
1702216502644681200,67.13068115234375,4.083799839019775,-5.851799964904785,8.949399948120117
1702216502704682800,67.19068286132813,2.474900007247925,-7.60099983215332,6.407899856567383
1702216502764681200,67.25068115234374,-1.0135999917984009,-6.885200023651123,4.809599876403809
1702216502824682800,67.31068286132812,0.4461999833583832,-3.9694998264312744,4.003499984741211
1702216502884681200,67.37068115234375,0.0471000000834465,-2.4361000061035156,1.7360999584197998
1702216502944682800,67.43068286132812,-0.4124999940395355,-3.2961997985839844,-1.1347999572753906
1702216503004681200,67.49068115234375,-2.13919997215271,-3.799999952316284,-6.7241997718811035
1702216503064681200,67.55068115234376,-3.461599826812744,-2.914599895477295,-10.738100051879883
1702216503124682800,67.61068286132813,-3.165299892425537,0.35679998993873596,-9.595999717712402
1702216503184681200,67.67068115234375,-3.0920000076293945,-2.3708999156951904,-7.982699871063232
1702216503244681200,67.73068115234375,-0.8395999670028687,-3.272599935531616,-9.150099754333496
1702216503304682800,67.79068286132812,1.7594000101089478,-2.7908999919891357,-4.927499771118164
1702216503364681200,67.85068115234375,-1.348699927330017,-4.945899963378906,-2.2825000286102295
1702216503424681200,67.91068115234376,-0.08609999716281891,-3.9300999641418457,-1.9678999185562134
1702216503484681200,67.97068115234374,2.838899850845337,-3.7451999187469482,0.8413999676704407
1702216503544681200,68.03068115234375,3.667099952697754,-4.031399726867676,2.9946999549865723
1702216503604681200,68.09068115234375,4.047299861907959,-4.144000053405762,3.991799831390381
1702216503664681200,68.15068115234375,4.838200092315674,-3.0713000297546387,5.550299644470215
1702216503724681200,68.21068115234375,3.8603999614715576,-3.9326999187469482,8.059999465942383
1702216503784681200,68.27068115234376,1.8174999952316284,-4.729399681091309,8.099299430847168
1702216503844681200,68.33068115234374,1.733699917793274,-6.105499744415283,6.194699764251709
1702216503904681200,68.39068115234375,0.6545000076293945,-6.607100009918213,3.05679988861084
1702216503964681200,68.45068115234375,-0.3872999846935272,-3.885999917984009,1.3464000225067139
1702216504024681200,68.51068115234375,-0.17629998922348022,-1.396399974822998,-0.11409999430179596
1702216504084681200,68.57068115234375,-1.09089994430542,-0.6793000102043152,-1.6567000150680542
1702216504144682800,68.63068286132813,-0.15539999306201935,-1.3902000188827515,-3.929299831390381
1702216504204682800,68.69068286132813,-0.15449999272823334,-0.8768999576568604,-6.498600006103516
1702216504264682800,68.75068286132813,-1.048200011253357,-1.1050000190734863,-6.900099754333496
1702216504324681200,68.81068115234375,-2.338899850845337,-1.59499990940094,-8.660900115966797
1702216504384681200,68.87068115234375,-0.6640999913215637,-2.253499984741211,-7.8867998123168945
1702216504444681200,68.93068115234375,-0.09969999641180038,-1.7069000005722046,-6.835899829864502
1702216504504681200,68.99068115234375,-1.889699935913086,-2.8053998947143555,-4.456099987030029
1702216504564709400,69.05070947265625,-1.584999918937683,-3.852799892425537,-2.779399871826172
1702216504624681200,69.11068115234374,1.844099998474121,-3.8514997959136963,-0.8930000066757202
1702216504684681200,69.17068115234375,3.4147000312805176,-4.092099666595459,1.2824000120162964
1702216504744681200,69.23068115234375,3.562299966812134,-4.467499732971191,2.5154998302459717
1702216504804681200,69.29068115234375,3.746500015258789,-4.220799922943115,3.25
1702216504864681200,69.35068115234375,4.252200126647949,-4.093999862670898,5.9567999839782715
1702216504924681200,69.41068115234376,3.366499900817871,-3.8992998600006104,9.529899597167969
1702216504984681200,69.47068115234374,2.257999897003174,-5.503499984741211,8.787300109863281
1702216505044681200,69.53068115234375,0.4885999858379364,-6.780799865722656,5.1738996505737305
1702216505104681200,69.59068115234375,0.7525999546051025,-5.184700012207031,3.7623000144958496
1702216505164681200,69.65068115234375,1.5482999086380005,-2.3039000034332275,2.626699924468994
1702216505224681200,69.71068115234375,0.5065000057220459,-1.5489000082015991,0.26989999413490295
1702216505284681200,69.77068115234376,-0.48959997296333313,-2.5142998695373535,-2.1469998359680176
1702216505344681200,69.83068115234374,0.041099999099969864,-3.3025999069213867,-5.819699764251709
1702216505404682800,69.89068286132813,1.2071999311447144,-2.6654999256134033,-8.420000076293945
1702216505464682800,69.95068286132812,-0.8732999563217163,-1.888700008392334,-9.173799514770508
1702216505524681200,70.01068115234375,-1.1301000118255615,-2.433199882507324,-9.34060001373291
1702216505584681200,70.07068115234375,-1.216599941253662,-0.22010000050067902,-10.40999984741211
1702216505644681200,70.13068115234375,-3.763399839401245,-4.565799713134766,-6.306299686431885
1702216505704681200,70.19068115234376,-2.8488998413085938,-6.282399654388428,-3.513000011444092
1702216505764681200,70.25068115234374,-0.13459999859333038,-5.763400077819824,-0.20829999446868896
1702216505824681200,70.31068115234375,1.142300009727478,-4.424299716949463,2.773099899291992
1702216505884681200,70.37068115234375,1.2616000175476074,-4.517600059509277,4.737499713897705
1702216505944681200,70.43068115234375,1.4055999517440796,-3.8763999938964844,6.634799957275391
1702216506004681200,70.49068115234375,2.296799898147583,-2.9893999099731445,9.895599365234375
1702216506064681200,70.55068115234376,-0.0949999988079071,-3.0038998126983643,9.072099685668945
1702216506124681200,70.61068115234374,-0.4675999879837036,-6.078000068664551,9.958199501037598
1702216506184681200,70.67068115234375,-2.0311999320983887,-6.774699687957764,6.69379997253418
1702216506244681200,70.73068115234375,-1.5561999082565308,-6.620800018310547,3.68149995803833
1702216506304681200,70.79068115234375,0.03779999911785126,-4.794399738311768,2.460599899291992
1702216506364681200,70.85068115234375,0.10869999974966049,-1.9077999591827393,0.5322999954223633
1702216506424681200,70.91068115234376,0.6438999772071838,-1.4808999300003052,-0.7562999725341797
1702216506484681200,70.97068115234374,2.282599925994873,-2.643399953842163,-2.2283999919891357
1702216506544681200,71.03068115234375,3.4345998764038086,-2.256899833679199,-5.082099914550781
1702216506604681200,71.09068115234375,2.0790998935699463,-2.6320998668670654,-9.03689956665039
1702216506664681200,71.15068115234375,-0.5683000087738037,-2.3422999382019043,-9.863100051879883
1702216506724681200,71.21068115234375,0.677899956703186,-2.798799991607666,-8.978699684143066
1702216506784681200,71.27068115234376,-0.8571999669075012,-0.751800000667572,-10.527599334716797
1702216506844681200,71.33068115234374,-1.174899935722351,-3.513199806213379,-4.103699684143066
1702216506904681200,71.39068115234375,-1.6334999799728394,-5.718400001525879,-2.4758999347686768
1702216506964681200,71.45068115234375,0.16359999775886536,-5.564699649810791,-0.1639000028371811
1702216507024681200,71.51068115234375,1.3105000257492065,-4.621200084686279,2.6073999404907227
1702216507084681200,71.57068115234375,1.7447999715805054,-3.851300001144409,4.793399810791016
1702216507144681200,71.63068115234375,1.9869999885559082,-3.1470999717712402,6.592899799346924
1702216507204681200,71.69068115234376,1.5238999128341675,-3.3737998008728027,9.327799797058105
1702216507264681200,71.75068115234374,-0.8671000003814697,-3.0284998416900635,8.885099411010742
1702216507324681200,71.81068115234375,-0.34929999709129333,-5.646999835968018,10.201199531555176
1702216507384681200,71.87068115234375,-0.6092999577522278,-7.678400039672852,6.083499908447266
1702216507444681200,71.93068115234375,-0.9985999464988708,-5.747499942779541,2.4149999618530273
1702216507504681200,71.99068115234375,0.5891000032424927,-4.343699932098389,2.671299934387207
1702216507564681200,72.05068115234376,0.6043999791145325,-3.451200008392334,-0.6089999675750732
1702216507624681200,72.11068115234374,1.0611000061035156,-3.447399854660034,-4.673099994659424
1702216507684681200,72.17068115234375,3.136899948120117,-2.2101998329162598,-7.39709997177124
1702216507744681200,72.23068115234375,3.8737998008728027,0.699999988079071,-4.745500087738037
1702216507804681200,72.29068115234375,-0.41589999198913574,-0.7221999764442444,-7.809799671173096
1702216507864681200,72.35068115234375,-0.9133999943733215,-2.6517999172210693,-10.542200088500977
1702216507924681200,72.41068115234376,0.626800000667572,-3.9166998863220215,-10.499799728393555
1702216507984681200,72.47068115234374,-0.4398999810218811,-3.3973000049591064,-7.477599620819092
1702216508044681200,72.53068115234375,-1.316499948501587,-5.001899719238281,-3.4851999282836914
1702216508104681200,72.59068115234375,-0.15689998865127563,-4.612800121307373,-2.118499994277954
1702216508164681200,72.65068115234375,0.6556000113487244,-5.059499740600586,0.8556999564170837
1702216508224681200,72.71068115234375,1.1165000200271606,-5.416399955749512,2.957899808883667
1702216508284681200,72.77068115234376,1.9819999933242798,-4.851399898529053,5.076600074768066
1702216508344681200,72.83068115234374,3.393699884414673,-3.4814000129699707,8.837800025939941
1702216508404681200,72.89068115234375,1.8808000087738037,-3.418099880218506,10.829699516296387
1702216508464681200,72.95068115234375,1.2681999206542969,-3.338599920272827,9.943699836730957
1702216508524681200,73.01068115234375,-0.6166999936103821,-6.843099594116211,6.688799858093262
1702216508584681200,73.07068115234375,-0.5153999924659729,-7.286299705505371,5.125
1702216508644681200,73.13068115234375,1.795199990272522,-5.8090996742248535,2.992499828338623
1702216508704681200,73.19068115234376,-0.6830999851226807,-4.251399993896484,-0.8197000026702881
1702216508764681200,73.25068115234374,-0.8030999898910522,-2.1888999938964844,-4.436800003051758
1702216508824681200,73.31068115234375,0.35189998149871826,-0.4521999955177307,-6.324999809265137
1702216508884681200,73.37068115234375,-1.4000999927520752,-1.487299919128418,-6.931999683380127
1702216508944681200,73.43068115234375,-2.8474998474121094,-3.961899995803833,-14.939499855041504
1702216509004681200,73.49068115234375,0.013700000010430813,-1.4945999383926392,-10.213500022888184
1702216509064681200,73.55068115234376,-2.853299856185913,-1.702299952507019,-9.258299827575684
1702216509124681200,73.61068115234374,-3.909299850463867,-6.154099941253662,-6.783799648284912
1702216509184681200,73.67068115234375,-0.3513000011444092,-7.985799789428711,-3.7578999996185303
1702216509244681200,73.73068115234375,3.3173999786376953,-6.662199974060059,0.06369999796152115
1702216509304681200,73.79068115234375,3.1480000019073486,-6.165899753570557,3.6140999794006348
1702216509364681200,73.85068115234375,4.031899929046631,-4.1774001121521,7.228299617767334
1702216509424681200,73.91068115234376,3.620299816131592,-3.4161999225616455,8.065999984741211
1702216509484681200,73.97068115234374,4.276599884033203,-3.745800018310547,9.712499618530273
1702216509544681200,74.03068115234375,3.811199903488159,-4.341599941253662,9.541199684143066
1702216509604681200,74.09068115234375,2.518699884414673,-7.552700042724609,6.929100036621094
1702216509664681200,74.15068115234375,0.539900004863739,-7.610499858856201,2.8001999855041504
1702216509724681200,74.21068115234375,0.2321999967098236,-4.7515997886657715,2.373499870300293
1702216509784681200,74.27068115234376,-0.36949998140335083,-2.120499849319458,0.30410000681877136
1702216509844681200,74.33068115234374,-1.5341999530792236,-0.6590999960899353,-1.920300006866455
1702216509904681200,74.39068115234375,-0.6990999579429626,-0.3188999891281128,-4.812399864196777
1702216509964681200,74.45068115234375,-1.4155999422073364,-2.4238998889923096,-8.607500076293945
1702216510024681200,74.51068115234375,-0.1078999936580658,-3.7545998096466064,-14.159499168395996
1702216510084681200,74.57068115234375,1.3193999528884888,-3.6507999897003174,-11.278200149536133
1702216510144681200,74.63068115234375,-1.5266000032424927,-2.8703999519348145,-11.802000045776367
1702216510204681200,74.69068115234376,-1.9993000030517578,-5.160699844360352,-5.750899791717529
1702216510264681200,74.75068115234374,-0.9369999766349792,-5.730400085449219,-3.13349986076355
1702216510324681200,74.81068115234375,1.1937999725341797,-5.917200088500977,-0.5482999682426453
1702216510384681200,74.87068115234375,1.8996999263763428,-6.559399604797363,2.230599880218506
1702216510444681200,74.93068115234375,2.290099859237671,-6.679699897766113,4.5005998611450195
1702216510504681200,74.99068115234375,4.030999660491943,-4.7195000648498535,8.558300018310547
1702216510564681200,75.05068115234376,3.1270999908447266,-5.26639986038208,9.69729995727539
1702216510624681200,75.11068115234374,0.013299999758601189,-6.033899784088135,11.262899398803711
1702216510684681200,75.17068115234375,0.34769999980926514,-6.832900047302246,11.32129955291748
1702216510744681200,75.23068115234375,-1.1686999797821045,-9.450699806213379,5.5578999519348145
1702216510804681200,75.29068115234375,-0.8946999907493591,-6.237099647521973,4.333199977874756
1702216510864681200,75.35068115234375,0.5137999653816223,-5.245100021362305,2.4177000522613525
1702216510924681200,75.41068115234376,-0.33980000019073486,-5.854099750518799,-2.4226999282836914
1702216510984681200,75.47068115234374,-1.479099988937378,-5.106899738311768,-8.541099548339844
1702216511044681200,75.53068115234375,-0.03909999877214432,-3.09060001373291,-8.963500022888184
1702216511104681200,75.59068115234375,-1.2615000009536743,-2.2189998626708984,-12.184499740600586
