time,seconds_elapsed,z,y,x
1702217454224692000,0.03769189453125,-0.45989999175071716,-0.11229999363422394,0.1119999960064888
1702217454284682800,0.097682861328125,-0.07639999687671661,-1.1829999685287476,0.13589999079704285
1702217454344682800,0.157682861328125,-1.3154000043869019,-1.1124999523162842,0.3780999779701233
1702217454404682800,0.217682861328125,-1.9816999435424805,-0.036399997770786285,-0.07180000096559525
1702217454464682800,0.277682861328125,0.5478999614715576,-0.6024999618530273,-0.5917999744415283
1702217454524682800,0.337682861328125,-1.8177999258041382,-0.09399999678134918,-1.4994999170303345
1702217454584682800,0.397682861328125,1.2518999576568604,0.06769999861717224,0.3111000061035156
1702217454644682800,0.457682861328125,0.6604999899864197,-1.0755000114440918,-0.011299999430775642
1702217454704682800,0.517682861328125,-0.5511999726295471,-2.345599889755249,0.11669999361038208
1702217454764682800,0.577682861328125,-3.335399866104126,-3.0569000244140625,-0.23809999227523804
1702217454824682800,0.637682861328125,-2.9833998680114746,-5.402899742126465,-3.9677999019622803
1702217454884682800,0.697682861328125,-3.7772998809814453,-5.244499683380127,-2.1963999271392822
1702217454944682800,0.757682861328125,4.517399787902832,-3.2802000045776367,-6.013400077819824
1702217455004682800,0.817682861328125,-0.49069997668266296,-1.2878999710083008,-7.276700019836426
1702217455064682800,0.877682861328125,1.4198999404907227,-0.14219999313354492,-9.40530014038086
1702217455124682800,0.937682861328125,4.706999778747559,2.219899892807007,-8.969599723815918
1702217455184682800,0.997682861328125,7.490099906921387,3.023900032043457,-4.571599960327148
1702217455244682800,1.057682861328125,6.223199844360352,2.115799903869629,-1.948699951171875
1702217455304682800,1.117682861328125,2.6843998432159424,0.4465000033378601,0.3150999844074249
1702217455364682800,1.177682861328125,0.21490000188350677,0.25849997997283936,0.9350999593734741
1702217455424682800,1.237682861328125,-1.2032999992370605,0.743399977684021,-0.3450999855995178
1702217455484682800,1.297682861328125,1.5252999067306519,0.9939000010490417,-0.9726999998092651
1702217455544682800,1.357682861328125,4.763999938964844,1.1750999689102173,-2.6970999240875244
1702217455604682800,1.417682861328125,4.017600059509277,1.7619999647140503,-3.731099843978882
1702217455664682800,1.477682861328125,-0.4039999842643738,1.6978999376296997,-2.8415000438690186
1702217455724682800,1.537682861328125,0.37289997935295105,1.3883999586105347,-2.708400011062622
1702217455784682800,1.597682861328125,-0.847599983215332,-0.5934000015258789,4.586599826812744
1702217455844682800,1.657682861328125,0.21169999241828918,-2.906100034713745,-3.706399917602539
1702217455904682800,1.717682861328125,-4.410399913787842,-3.3157999515533447,3.6868999004364014
1702217455964682800,1.777682861328125,1.8295999765396118,-1.909999966621399,1.396399974822998
1702217456024682800,1.837682861328125,2.772899866104126,-4.211599826812744,-7.206699848175049
1702217456084682800,1.897682861328125,-6.568299770355225,2.238800048828125,6.987299919128418
1702217456144682800,1.957682861328125,-8.2701997756958,1.4120999574661255,4.8684000968933105
1702217456204682800,2.017682861328125,17.927200317382812,4.30109977722168,-4.667399883270264
1702217456264682800,2.077682861328125,1.369499921798706,0.7501999735832214,2.6355998516082764
1702217456324682800,2.137682861328125,-7.4452996253967285,-3.902400016784668,3.1178998947143555
1702217456384682800,2.197682861328125,3.944999933242798,-3.6603000164031982,2.662400007247925
1702217456444682800,2.257682861328125,5.854399681091309,-1.3169000148773193,0.5694000124931335
1702217456504682800,2.317682861328125,-4.26800012588501,-2.5362000465393066,-2.993499994277954
1702217456564682800,2.377682861328125,-0.2766000032424927,-8.56190013885498,-0.6543999910354614
1702217456624682800,2.437682861328125,0.3999999761581421,0.5460999608039856,1.232699990272522
1702217456684682800,2.497682861328125,1.5576999187469482,-0.8502999544143677,-0.977899968624115
1702217456744682800,2.557682861328125,-0.21779999136924744,0.8572999835014343,0.9869999885559082
1702217456804682800,2.617682861328125,-4.276700019836426,0.699999988079071,-0.39809998869895935
1702217456864682800,2.677682861328125,0.3878999948501587,1.8362998962402344,1.0282999277114868
1702217456924682800,2.737682861328125,-0.8384000062942505,-2.9679999351501465,1.9091999530792236
1702217456984682800,2.797682861328125,0.4869000017642975,-0.9656999707221985,1.3062999248504639
1702217457044682800,2.857682861328125,0.7040999531745911,-0.6680999994277954,-2.6232998371124268
1702217457104682800,2.917682861328125,-0.029199998825788498,-0.851099967956543,-2.448899984359741
1702217457164682800,2.977682861328125,-2.474799871444702,0.30480000376701355,-1.9855999946594238
1702217457224682800,3.037682861328125,-0.8364999890327454,0.4406999945640564,-0.48959997296333313
1702217457284682800,3.097682861328125,0.09459999948740005,-0.33059999346733093,1.1323999166488647
1702217457344682800,3.157682861328125,0.05159999802708626,-0.5798999667167664,1.6358000040054321
1702217457404682800,3.217682861328125,1.0123000144958496,-0.2110999971628189,0.5525999665260315
1702217457464682800,3.277682861328125,-0.9257999658584595,-0.6204000115394592,-0.9369999766349792
1702217457524682800,3.337682861328125,-0.09470000118017197,0.5321999788284302,-1.5061999559402466
1702217457584682800,3.397682861328125,0.5216999650001526,0.003000000026077032,-0.7912999987602234
1702217457644682800,3.457682861328125,-0.28839999437332153,0.2506999969482422,-0.413100004196167
1702217457704682800,3.517682861328125,-0.7446999549865723,0.01269999984651804,0.4757999777793884
1702217457764682800,3.577682861328125,0.6245999932289124,-0.13279999792575836,1.1856999397277832
1702217457824682800,3.637682861328125,0.3114999830722809,-0.2184000015258789,-0.621399998664856
1702217457884682800,3.697682861328125,-1.1574000120162964,-1.6274999380111694,-2.264899969100952
1702217457944682800,3.757682861328125,-1.7994999885559082,0.20649999380111694,-1.3931999206542969
1702217458004682800,3.817682861328125,8.250999450683594,-0.7597999572753906,1.3580999374389648
1702217458064682800,3.877682861328125,0.7482999563217163,-1.5973999500274658,-2.952699899673462
1702217458124682800,3.937682861328125,-2.9203999042510986,-3.1751999855041504,-2.873499870300293
1702217458184682800,3.997682861328125,-2.726799964904785,-4.859699726104736,1.1970999240875244
1702217458244682800,4.057682861328125,1.118399977684021,-0.047599997371435165,4.343100070953369
1702217458304682800,4.117682861328125,-1.771799921989441,-0.4640999734401703,1.5762999057769775
1702217458364682800,4.177682861328125,-3.3967998027801514,1.3969999551773071,2.3711998462677
1702217458424682800,4.237682861328125,-4.012499809265137,3.166599988937378,4.301799774169922
1702217458484682800,4.297682861328125,-1.2070999145507812,2.278599977493286,-2.171099901199341
1702217458544682800,4.357682861328125,14.197400093078613,-3.1835999488830566,-4.481499671936035
1702217458604682800,4.417682861328125,-4.732500076293945,-3.5533998012542725,0.6539999842643738
1702217458664682800,4.477682861328125,-2.0815999507904053,4.791599750518799,6.2027997970581055
1702217458724682800,4.537682861328125,-2.7093000411987305,-8.646499633789062,-0.8331999778747559
1702217458784682800,4.597682861328125,-2.4589998722076416,0.3425000011920929,0.25130000710487366
1702217458844682800,4.657682861328125,-1.6541999578475952,-2.6793999671936035,0.010599999688565731
1702217458904682800,4.717682861328125,-0.6190999746322632,-2.5374999046325684,2.335700035095215
1702217458964682800,4.777682861328125,-0.23330000042915344,-0.1565999984741211,2.942499876022339
1702217459024682800,4.837682861328125,-0.7049999833106995,0.39629998803138733,-0.6200000047683716
1702217459084682800,4.897682861328125,0.020499998703598976,0.5105999708175659,-1.6103999614715576
1702217459144682800,4.957682861328125,0.24899999797344208,0.31450000405311584,-0.16009999811649323
1702217459204682800,5.017682861328125,0.9921999573707581,0.22129999101161957,-0.4424999952316284
1702217459264682800,5.077682861328125,2.1914000511169434,0.4673999845981598,-0.47079998254776
1702217459324682800,5.137682861328125,1.6476999521255493,-0.43869999051094055,0.4745999872684479
1702217459384682800,5.197682861328125,-1.8472999334335327,-2.330899953842163,-2.8874998092651367
1702217459444682800,5.257682861328125,2.0058000087738037,-2.322999954223633,0.13660000264644623
1702217459504682800,5.317682861328125,0.3141999840736389,-2.9084999561309814,1.4082999229431152
1702217459564709400,5.37770947265625,-0.2863999903202057,-1.8323999643325806,2.1678998470306396
1702217459624682800,5.437682861328125,-0.6333999633789062,-2.563499927520752,4.400899887084961
1702217459684682800,5.497682861328125,-1.539099931716919,0.44339999556541443,0.38749998807907104
1702217459744682800,5.557682861328125,-3.0436999797821045,0.9848999977111816,-0.4700999855995178
1702217459804682800,5.617682861328125,-2.672600030899048,3.083699941635132,3.44599986076355
1702217459864682800,5.677682861328125,-1.6283999681472778,2.451900005340576,1.052799940109253
1702217459924682800,5.737682861328125,3.5652999877929688,-0.13729999959468842,-4.887599945068359
1702217459984682800,5.797682861328125,1.247399926185608,1.820199966430664,-3.6176998615264893
1702217460044682800,5.857682861328125,1.7827999591827393,-0.06129999831318855,1.2204999923706055
1702217460104682800,5.917682861328125,2.580199956893921,-8.035599708557129,-1.1900999546051025
1702217460164682800,5.977682861328125,-5.192399978637695,2.7883999347686768,6.336599826812744
1702217460224682800,6.037682861328125,-5.384200096130371,-2.565199851989746,3.1503000259399414
1702217460284682800,6.097682861328125,-1.4984999895095825,-1.7333999872207642,-0.11209999769926071
1702217460344682800,6.157682861328125,-2.6950998306274414,-0.31520000100135803,-0.36820000410079956
1702217460404682800,6.217682861328125,1.1790999174118042,-0.09950000047683716,-0.08169999718666077
1702217460464682800,6.277682861328125,0.15349999070167542,0.653499960899353,0.573199987411499
1702217460524682800,6.337682861328125,0.752299964427948,0.23429998755455017,-1.3128999471664429
1702217460584682800,6.397682861328125,3.1610000133514404,1.3931000232696533,-1.2360999584197998
1702217460644682800,6.457682861328125,2.615499973297119,0.1459999978542328,-2.2964999675750732
1702217460704682800,6.517682861328125,0.7378999590873718,-2.33870005607605,0.9950999617576599
1702217460764682800,6.577682861328125,2.03659987449646,-3.231299877166748,-0.1818999946117401
1702217460824682800,6.637682861328125,15.02609920501709,-1.268399953842163,1.093500018119812
1702217460884682800,6.697682861328125,-7.790099620819092,-3.007699966430664,0.021699998527765274
1702217460944682800,6.757682861328125,4.269400119781494,-4.9903998374938965,-3.910599946975708
1702217461004682800,6.817682861328125,-0.4659999907016754,-0.4733999967575073,2.8357999324798584
1702217461064682800,6.877682861328125,-4.394000053405762,2.0297999382019043,3.0339999198913574
1702217461124682800,6.937682861328125,-4.025199890136719,3.2653000354766846,3.0418999195098877
1702217461184682800,6.997682861328125,-2.4064998626708984,4.37529993057251,4.152400016784668
1702217461244682800,7.057682861328125,7.418399810791016,-2.0566999912261963,-6.280600070953369
1702217461304682800,7.117682861328125,1.9768999814987183,0.8942999839782715,-2.312299966812134
1702217461364682800,7.177682861328125,2.680299997329712,-0.8580999970436096,1.83079993724823
1702217461424682800,7.237682861328125,-5.624599933624268,-4.427000045776367,2.221099853515625
1702217461484682800,7.297682861328125,-7.690699577331543,-0.2500999867916107,0.5133999586105347
1702217461544682800,7.357682861328125,-0.7735999822616577,-3.743699789047241,-3.2746999263763428
1702217461604682800,7.417682861328125,-0.12099999934434891,1.3701999187469482,2.668099880218506
1702217461664682800,7.477682861328125,-0.7229999899864197,0.8066999912261963,-0.47529998421669006
1702217461724682800,7.537682861328125,-1.5257999897003174,1.3905999660491943,-2.727599859237671
1702217461784682800,7.597682861328125,0.762499988079071,0.9686999917030334,-1.9617999792099
1702217461844682800,7.657682861328125,8.317500114440918,-3.074899911880493,0.9860000014305115
1702217461904682800,7.717682861328125,-0.8941999673843384,-1.4467999935150146,-0.6152999997138977
1702217461964682800,7.777682861328125,4.673299789428711,-2.8838000297546387,-4.826900005340576
1702217462024682800,7.837682861328125,1.434399962425232,-0.4431999921798706,-2.8167998790740967
1702217462084682800,7.897682861328125,-3.830399990081787,-6.136399745941162,-0.5557000041007996
1702217462144682800,7.957682861328125,-2.2044999599456787,-2.2423999309539795,-0.2915000021457672
1702217462204682800,8.017682861328124,-3.210099935531616,1.5865999460220337,0.9150999784469604
1702217462264682800,8.077682861328125,-4.84060001373291,2.501499891281128,1.855299949645996
1702217462324682800,8.137682861328125,-3.5971999168395996,2.7948999404907227,4.049799919128418
1702217462384682800,8.197682861328126,0.6424999833106995,3.221400022506714,5.658400058746338
1702217462444682800,8.257682861328124,6.10129976272583,-3.384699821472168,-9.546899795532227
1702217462504682800,8.317682861328125,1.0424000024795532,2.7909998893737793,-2.7956998348236084
1702217462564682800,8.377682861328125,-8.650300025939941,-5.78279972076416,2.9271998405456543
1702217462624682800,8.437682861328126,-5.4903998374938965,-2.729599952697754,9.904500007629395
1702217462684682800,8.497682861328125,-2.741499900817871,-4.947499752044678,-0.7446999549865723
1702217462744682800,8.557682861328125,-2.1850998401641846,0.6764999628067017,-0.48019999265670776
1702217462804682800,8.617682861328126,0.12269999831914902,1.8102999925613403,-1.3712999820709229
1702217462864682800,8.677682861328124,0.032499998807907104,0.5601999759674072,-0.7572999596595764
1702217462924682800,8.737682861328125,-0.11800000071525574,0.1013999953866005,-2.734099864959717
1702217462984682800,8.797682861328125,2.505199909210205,-0.36149999499320984,-3.4211997985839844
1702217463044682800,8.857682861328126,3.4656999111175537,-0.5001000165939331,-0.28139999508857727
1702217463104682800,8.917682861328124,1.5822999477386475,-1.8569999933242798,-0.4940999746322632
1702217463164682800,8.977682861328125,1.673699975013733,-3.20169997215271,-1.1209999322891235
1702217463224682800,9.037682861328125,1.2990999221801758,-3.5114998817443848,0.250900000333786
1702217463284682800,9.097682861328124,-3.8827998638153076,-3.0535998344421387,-3.1995999813079834
1702217463344682800,9.157682861328125,-0.9210000038146973,-3.264400005340576,1.8125
1702217463404682800,9.217682861328125,-2.3071999549865723,1.5225999355316162,4.258500099182129
1702217463464682800,9.277682861328126,-3.4062998294830322,2.236999988555908,1.5535999536514282
1702217463524682800,9.337682861328124,-4.0640997886657715,3.528599977493286,3.6327998638153076
1702217463584682800,9.397682861328125,-1.1933000087738037,2.5220999717712402,0.9871999621391296
1702217463644682800,9.457682861328125,5.525300025939941,-3.688499927520752,-10.031700134277344
1702217463704682800,9.517682861328124,-0.3813000023365021,4.0904998779296875,0.828499972820282
1702217463764682800,9.577682861328125,0.01679999940097332,-9.037300109863281,1.9589999914169312
1702217463824751400,9.63775146484375,-2.9711999893188477,-0.4016000032424927,2.6887998580932617
1702217463884682800,9.697682861328126,-4.358699798583984,-0.7831999659538269,1.0163999795913696
1702217463944682800,9.757682861328124,-3.5448999404907227,-1.7187999486923218,0.13599999248981476
1702217464004682800,9.817682861328125,3.9522998332977295,1.409600019454956,4.891900062561035
1702217464064682800,9.877682861328125,-0.9630999565124512,0.16619999706745148,-1.6703999042510986
1702217464124682800,9.937682861328126,-0.008799999952316284,2.054499864578247,-1.6890000104904175
1702217464184682800,9.997682861328125,3.638000011444092,-0.8805999755859375,-2.7854998111724854
1702217464244682800,10.057682861328125,2.007200002670288,-2.1189000606536865,-1.073799967765808
1702217464304682800,10.117682861328126,0.7584999799728394,-1.4453999996185303,-1.2591999769210815
1702217464364682800,10.177682861328124,9.710399627685547,-1.7673999071121216,-2.7826998233795166
1702217464424682800,10.237682861328125,-6.084099769592285,-2.008699893951416,-4.28380012512207
1702217464484682800,10.297682861328125,0.8252999782562256,-4.650300025939941,-2.996699810028076
1702217464544682800,10.357682861328126,-0.7404999732971191,-1.279099941253662,2.6947999000549316
1702217464604682800,10.417682861328124,-3.666100025177002,1.8940999507904053,1.9749000072479248
1702217464664682800,10.477682861328125,-2.911900043487549,0.616599977016449,0.0032999999821186066
1702217464724682800,10.537682861328125,-3.186800003051758,2.719099998474121,4.643399715423584
1702217464784682800,10.597682861328124,0.08410000056028366,2.707399845123291,3.7495999336242676
1702217464844682800,10.657682861328125,4.383599758148193,-1.396399974822998,-9.872099876403809
1702217464904682800,10.717682861328125,-1.0866999626159668,2.305299997329712,-1.2777999639511108
1702217464964682800,10.777682861328126,-2.0634000301361084,-13.846699714660645,0.025499999523162842
1702217465024682800,10.837682861328124,-5.216399669647217,4.025300025939941,3.815999984741211
1702217465084682800,10.897682861328125,-1.9856998920440674,-3.8631999492645264,-1.6447999477386475
1702217465144682800,10.957682861328125,-0.09229999780654907,0.8003999590873718,1.0267999172210693
1702217465204681200,11.01768115234375,0.06849999725818634,0.27789998054504395,3.497999906539917
1702217465264681200,11.07768115234375,-0.15230000019073486,0.42329999804496765,-2.1327998638153076
1702217465324681200,11.13768115234375,0.10349999368190765,1.6506999731063843,-2.5444998741149902
1702217465384682800,11.197682861328126,1.984299898147583,0.6298999786376953,-2.234099864959717
1702217465444682800,11.257682861328124,4.059999942779541,-2.4883999824523926,-1.0806000232696533
1702217465504682800,11.317682861328125,2.3934998512268066,-1.8845999240875244,-0.6753999590873718
1702217465564681200,11.37768115234375,3.4679999351501465,-3.6449999809265137,-6.443399906158447
1702217465624681200,11.43768115234375,-3.0871999263763428,-0.5641999840736389,-0.5728999972343445
1702217465684682800,11.497682861328125,-0.8585999608039856,-6.417299747467041,0.02279999852180481
1702217465744682800,11.557682861328125,-1.7073999643325806,-0.15399999916553497,3.064199924468994
1702217465804682800,11.617682861328126,-3.233599901199341,2.2776999473571777,2.2582998275756836
1702217465864682800,11.677682861328124,-3.6786999702453613,1.7404999732971191,1.3966000080108643
1702217465924682800,11.737682861328125,-2.457200050354004,3.77459979057312,3.9261999130249023
1702217465984682800,11.797682861328125,2.1166999340057373,0.38670000433921814,-3.12719988822937
1702217466044682800,11.857682861328126,-0.0810999944806099,0.5640999674797058,-3.362299919128418
1702217466104682800,11.917682861328124,3.369999885559082,-3.9835000038146973,-0.4056999981403351
1702217466164682800,11.977682861328125,-1.135599970817566,-1.1375999450683594,3.881199836730957
1702217466224682800,12.037682861328125,-5.214900016784668,-1.6960999965667725,4.1666998863220215
1702217466284682800,12.097682861328124,-1.0741000175476074,-2.660799980163574,-3.345099925994873
1702217466344682800,12.157682861328125,-0.16269999742507935,2.551300048828125,-0.03839999809861183
1702217466404682800,12.217682861328125,0.9178999662399292,0.16279999911785126,-0.7216999530792236
1702217466464682800,12.277682861328126,0.689300000667572,0.37299999594688416,-0.765500009059906
1702217466524682800,12.337682861328124,0.11180000007152557,0.8407999873161316,-0.8624999523162842
1702217466584682800,12.397682861328125,3.268899917602539,0.3203999996185303,-0.8919999599456787
1702217466644682800,12.457682861328125,2.3355000019073486,-3.733799934387207,-2.0952000617980957
1702217466704682800,12.517682861328124,0.6345999836921692,-4.5264997482299805,-2.3950998783111572
1702217466764682800,12.577682861328125,5.913300037384033,-0.3376999795436859,-0.34849998354911804
1702217466824682800,12.637682861328125,-5.504199981689453,-2.068199872970581,-1.1826000213623047
1702217466884682800,12.697682861328126,-1.1511999368667603,-2.573199987411499,-0.5453999638557434
1702217466944682800,12.757682861328124,0.044199999421834946,0.3434999883174896,1.7625999450683594
1702217467004682800,12.817682861328125,-4.216899871826172,2.0566999912261963,2.6031999588012695
1702217467064682800,12.877682861328125,-2.676300048828125,2.7623000144958496,2.634999990463257
1702217467124682800,12.937682861328126,-2.097899913787842,3.8538999557495117,4.156300067901611
1702217467184682800,12.997682861328125,6.858599662780762,-2.000200033187866,-10.952199935913086
1702217467244682800,13.057682861328125,-2.4795000553131104,3.403899908065796,-2.4672000408172607
1702217467304682800,13.117682861328126,-5.394499778747559,-10.674300193786621,4.495299816131592
1702217467364682800,13.177682861328124,-7.12369966506958,1.2307000160217285,5.583499908447266
1702217467424682800,13.237682861328125,-2.137699842453003,-4.261899948120117,-1.296199917793274
1702217467484682800,13.297682861328125,0.16259999573230743,1.4210000038146973,1.111899971961975
1702217467544682800,13.357682861328126,-0.45159998536109924,-0.0722000002861023,-0.039799999445676804
1702217467604682800,13.417682861328124,-0.6505999565124512,0.9370999932289124,-3.302999973297119
1702217467664682800,13.477682861328125,0.29350000619888306,1.2339999675750732,-1.485700011253357
1702217467724682800,13.537682861328125,1.3504999876022339,-0.7465999722480774,-0.21649999916553497
1702217467784682800,13.597682861328124,7.442999839782715,-1.6930999755859375,-0.4221999943256378
1702217467844682800,13.657682861328125,-3.1977999210357666,-2.676499843597412,-3.7074999809265137
1702217467904682800,13.717682861328125,-0.7760999798774719,-3.850399971008301,-4.13599967956543
1702217467964682800,13.777682861328126,13.56470012664795,-2.509999990463257,0.7175999879837036
1702217468024682800,13.837682861328124,-7.417999744415283,-1.7948999404907227,-1.8609999418258667
1702217468084682800,13.897682861328125,-1.1765999794006348,-2.0964999198913574,-1.1265000104904175
1702217468144682800,13.957682861328125,-0.42339998483657837,-1.4507999420166016,0.6029999852180481
1702217468204682800,14.017682861328124,-3.4235999584198,1.2996000051498413,2.815199851989746
1702217468264682800,14.077682861328125,-2.8244998455047607,1.5333999395370483,1.636199951171875
1702217468324682800,14.137682861328125,-2.632200002670288,4.5243000984191895,5.314599990844727
1702217468384682800,14.197682861328126,1.792099952697754,1.2117999792099,-2.1805999279022217
1702217468444682800,14.257682861328124,1.7623000144958496,0.05169999971985817,-5.156099796295166
1702217468504682800,14.317682861328125,-5.6128997802734375,-10.213799476623535,-2.0234999656677246
1702217468564682800,14.377682861328125,-6.554299831390381,0.3626999855041504,9.628399848937988
1702217468624682800,14.437682861328126,4.241199970245361,-3.7970998287200928,0.6602999567985535
1702217468684682800,14.497682861328125,-4.401099681854248,0.5697999596595764,-1.465399980545044
1702217468744682800,14.557682861328125,-1.305400013923645,0.8132999539375305,-1.9035999774932861
1702217468804682800,14.617682861328126,0.085999995470047,0.3929999768733978,0.5773999691009521
1702217468864682800,14.677682861328124,0.48639997839927673,0.3937999904155731,-0.439300000667572
1702217468924682800,14.737682861328125,0.8033999800682068,0.6996999979019165,-0.7035999894142151
1702217468984682800,14.797682861328125,2.5676000118255615,1.5648999214172363,0.6746000051498413
1702217469044682800,14.857682861328126,0.5990999937057495,-1.3686000108718872,-1.9368000030517578
1702217469104682800,14.917682861328124,-1.1268999576568604,-2.7086000442504883,-3.103299856185913
1702217469164682800,14.977682861328125,1.1026999950408936,-4.057799816131592,-0.9487999677658081
1702217469224682800,15.037682861328125,9.074299812316895,-0.1680999994277954,-1.9860999584197998
1702217469284682800,15.097682861328124,-4.8028998374938965,-0.7411999702453613,-2.6552999019622803
1702217469344682800,15.157682861328125,-0.7447999715805054,-2.4363999366760254,-0.35659998655319214
1702217469404682800,15.217682861328125,-1.3811999559402466,1.2860000133514404,-0.8684999942779541
1702217469464682800,15.277682861328126,-3.211400032043457,1.1095999479293823,0.5026999711990356
1702217469524682800,15.337682861328124,-1.3020999431610107,2.1394999027252197,3.6857998371124268
1702217469584682800,15.397682861328125,0.7831999659538269,2.6745998859405518,4.523799896240234
1702217469644682800,15.457682861328125,1.6404999494552612,1.3033000230789185,-2.8336000442504883
1702217469704682800,15.517682861328124,1.083799958229065,2.16729998588562,-3.075399875640869
1702217469764682800,15.577682861328125,-0.8878999948501587,-4.5320000648498535,-2.5683000087738037
1702217469824682800,15.637682861328125,-7.799699783325195,-1.8421999216079712,9.57759952545166
1702217469884681200,15.69768115234375,-3.9263999462127686,1.003000020980835,2.8222999572753906
1702217469944682800,15.757682861328124,-4.6290998458862305,-6.8638997077941895,-2.3294999599456787
1702217470004682800,15.817682861328125,3.4502999782562256,2.7059998512268066,-0.2890999913215637
1702217470064682800,15.877682861328125,-0.11169999837875366,1.146899938583374,0.9108999967575073
1702217470124682800,15.937682861328126,0.7522000074386597,0.3893999755382538,-2.2493999004364014
1702217470184682800,15.997682861328125,0.6229000091552734,1.273800015449524,-2.738600015640259
1702217470244682800,16.057682861328125,6.029799938201904,0.3549000024795532,-0.40539997816085815
1702217470304682800,16.117682861328124,1.2421000003814697,-1.999899983406067,-1.4951999187469482
1702217470364682800,16.177682861328126,-0.1453000009059906,-3.444700002670288,-3.1768999099731445
1702217470424682800,16.237682861328125,12.093400001525879,-1.3468999862670898,-2.870999813079834
1702217470484682800,16.297682861328123,-6.196300029754639,-0.08259999752044678,-0.9574999809265137
1702217470544682800,16.357682861328126,0.8758999705314636,-4.141499996185303,-0.2158999890089035
1702217470604682800,16.417682861328124,-2.7291998863220215,0.5446000099182129,0.3610000014305115
1702217470664682800,16.477682861328127,-3.467099905014038,1.4840999841690063,0.29330000281333923
1702217470724682800,16.537682861328125,-4.122799873352051,1.1399999856948853,1.493399977684021
1702217470784682800,16.597682861328124,-2.072999954223633,3.3011999130249023,5.094099998474121
1702217470844682800,16.657682861328126,5.139999866485596,-1.1998000144958496,-1.1801999807357788
1702217470904682800,16.717682861328125,1.3880000114440918,2.763000011444092,-3.698899984359741
1702217470964682800,16.777682861328124,-2.4728000164031982,1.5734999179840088,-2.450199842453003
1702217471024682800,16.837682861328126,10.923600196838379,-6.779599666595459,6.9096999168396
1702217471084682800,16.897682861328125,-5.580399990081787,2.1250998973846436,3.4477999210357666
1702217471144682800,16.957682861328124,-3.8494999408721924,-3.1991000175476074,-0.6387999653816223
1702217471204682800,17.017682861328126,3.442499876022339,1.5189999341964722,-0.12159999459981918
1702217471264682800,17.077682861328125,-1.0484999418258667,0.6373999714851379,0.6765999794006348
1702217471324682800,17.137682861328123,1.3969999551773071,0.18410000205039978,-1.8708999156951904
1702217471384682800,17.197682861328126,0.11379999667406082,0.7827999591827393,-2.2439000606536865
1702217471444682800,17.257682861328124,1.2027000188827515,-0.16040000319480896,-2.3345999717712402
1702217471504682800,17.317682861328127,4.156499862670898,-3.2249999046325684,-2.2303998470306396
1702217471564682800,17.377682861328125,2.161099910736084,-4.1890997886657715,-1.1801999807357788
1702217471624682800,17.437682861328124,10.239699363708496,-3.372799873352051,-2.6198999881744385
1702217471684682800,17.497682861328126,-7.103999614715576,-3.134999990463257,-1.0169999599456787
1702217471744682800,17.557682861328125,1.2802000045776367,-4.167299747467041,-0.5730000138282776
1702217471804682800,17.617682861328124,-1.3460999727249146,1.3802999258041382,1.164699912071228
1702217471864682800,17.677682861328126,-4.645599842071533,2.863799810409546,2.609099864959717
1702217471924682800,17.737682861328125,-4.536299705505371,2.206399917602539,2.4716999530792236
1702217471984682800,17.797682861328123,-1.7346999645233154,3.0044000148773193,4.076999664306641
1702217472044682800,17.857682861328126,9.361899375915527,-2.720899820327759,-9.02810001373291
1702217472104682800,17.917682861328124,-0.4652999937534332,4.556699752807617,-2.0009000301361084
1702217472164682800,17.977682861328127,1.0200999975204468,-6.2154998779296875,-0.49570000171661377
1702217472224682800,18.037682861328125,-3.470899820327759,-0.4948999881744385,4.506999969482422
1702217472284682800,18.097682861328124,-4.21019983291626,-0.3276999890804291,2.0232999324798584
1702217472344682800,18.157682861328126,-2.9860999584198,-3.2538998126983643,-3.118499994277954
1702217472404682800,18.217682861328125,2.8690998554229736,2.5035998821258545,1.1848000288009644
1702217472464682800,18.277682861328124,0.423799991607666,-0.6258000135421753,-1.2106000185012817
1702217472524682800,18.337682861328126,0.16839998960494995,2.07669997215271,-0.7279999852180481
1702217472584682800,18.397682861328125,1.9443999528884888,-0.7173999547958374,-2.246000051498413
1702217472644682800,18.457682861328124,4.831299781799316,-2.5809998512268066,-0.8849999904632568
1702217472704682800,18.517682861328126,0.6816999912261963,-3.565699815750122,-3.198499917984009
1702217472764682800,18.577682861328125,7.029699802398682,-1.2516000270843506,-4.570300102233887
1702217472824682800,18.637682861328123,-6.296299934387207,-2.24399995803833,-0.9472000002861023
1702217472884682800,18.697682861328126,2.190500020980835,-4.876899719238281,1.779599905014038
1702217472944682800,18.757682861328124,-2.3334999084472656,1.4289000034332275,0.7091000080108643
1702217473004682800,18.817682861328127,-3.587399959564209,1.3223999738693237,0.04010000079870224
1702217473064682800,18.877682861328125,-3.4273998737335205,1.663699984550476,2.6160998344421387
1702217473124682800,18.937682861328124,-1.4053000211715698,3.1073999404907227,4.1616997718811035
1702217473184682800,18.997682861328126,5.645299911499023,-0.18389999866485596,-5.792200088500977
1702217473244682800,19.057682861328125,2.0058000087738037,0.8323000073432922,-4.094099998474121
1702217473304682800,19.117682861328124,-4.27679967880249,-3.9419000148773193,1.8832999467849731
1702217473364682800,19.177682861328126,-8.76550006866455,-0.4763000011444092,5.711699962615967
1702217473424682800,19.237682861328125,-0.9607999920845032,-4.921599864959717,-2.2592999935150146
1702217473484682800,19.297682861328123,-3.725299835205078,0.40860000252723694,-1.3104000091552734
1702217473544682800,19.357682861328126,0.16899999976158142,1.1309999227523804,-0.750499963760376
1702217473604682800,19.417682861328124,0.20559999346733093,1.1036999225616455,0.021199999377131462
1702217473664682800,19.477682861328127,0.6344999670982361,0.7390999794006348,-1.959399938583374
1702217473724682800,19.537682861328125,1.0784999132156372,-0.13849999010562897,-1.706399917602539
1702217473784682800,19.597682861328124,5.35759973526001,-2.3748998641967773,-0.9677000045776367
1702217473844682800,19.657682861328126,-0.19699999690055847,-1.1827999353408813,-2.370499849319458
1702217473904682800,19.717682861328125,8.260099411010742,-2.9387998580932617,-2.8402998447418213
1702217473964682800,19.777682861328124,-4.905399799346924,-0.8948999643325806,0.029899999499320984
1702217474024682800,19.837682861328126,1.7386999130249023,-4.97760009765625,-2.596299886703491
1702217474084682800,19.897682861328125,-1.0881999731063843,-1.8625999689102173,3.669299840927124
1702217474144682800,19.957682861328124,-4.095099925994873,2.1196999549865723,1.51419997215271
1702217474204682800,20.017682861328126,-3.5124998092651367,2.633699893951416,0.09629999846220016
1702217474264682800,20.077682861328125,-3.953399896621704,4.197099685668945,4.264499664306641
1702217474324682800,20.137682861328123,3.4355998039245605,1.692199945449829,-0.6448999643325806
1702217474384682800,20.197682861328126,0.21229998767375946,-0.19949999451637268,-5.581599712371826
1702217474444682800,20.257682861328124,6.405200004577637,-5.497799873352051,1.1313999891281128
1702217474504682800,20.317682861328127,-6.390699863433838,0.17520000040531158,4.100800037384033
1702217474564709400,20.37770947265625,-6.523399829864502,-1.951200008392334,-2.0137999057769775
1702217474624682800,20.437682861328124,-3.3723998069763184,-1.1822999715805054,-3.698899984359741
1702217474684682800,20.497682861328126,3.5727999210357666,1.944700002670288,4.104899883270264
1702217474744682800,20.557682861328125,0.22619999945163727,0.18219999969005585,0.1882999986410141
1702217474804682800,20.617682861328124,-0.19869999587535858,1.993899941444397,-1.3557000160217285
1702217474864682800,20.677682861328126,2.0085999965667725,-0.9389999508857727,-2.083899974822998
1702217474924682800,20.737682861328125,5.088799953460693,-1.657099962234497,0.27799999713897705
1702217474984682800,20.797682861328123,0.6168999671936035,-1.8528000116348267,-4.568299770355225
1702217475044682800,20.857682861328126,7.428899765014648,-2.5764000415802,-5.3090996742248535
1702217475104682800,20.917682861328124,-3.982499837875366,-1.3982999324798584,-0.8619999885559082
1702217475164682800,20.977682861328127,2.1733999252319336,-6.816299915313721,-0.275299996137619
1702217475224682800,21.037682861328125,-3.8142998218536377,0.3669999837875366,2.0920000076293945
1702217475284682800,21.097682861328124,-4.3048996925354,1.5672999620437622,1.448699951171875
1702217475344682800,21.157682861328126,-4.434499740600586,2.859999895095825,4.402100086212158
1702217475404682800,21.217682861328125,-1.6787999868392944,3.960899829864502,5.159599781036377
1702217475464682800,21.277682861328124,9.336899757385254,-3.6101999282836914,-5.377500057220459
1702217475524682800,21.337682861328126,-0.2304999977350235,2.6183998584747314,-3.999699831008911
1702217475584682800,21.397682861328125,0.3057999908924103,-3.075899839401245,-1.5780999660491943
1702217475644682800,21.457682861328124,-1.2549999952316284,-3.020699977874756,2.6380999088287354
1702217475704682800,21.517682861328126,-5.351900100708008,-0.6265000104904175,3.762699842453003
1702217475764682800,21.577682861328125,-3.3030998706817627,-3.57669997215271,-3.518199920654297
1702217475824682800,21.637682861328123,2.8402998447418213,3.040299892425537,0.7815999984741211
1702217475884682800,21.697682861328126,-0.16689999401569366,0.09359999746084213,0.3775999844074249
1702217475944682800,21.757682861328124,0.3928000032901764,1.2409999370574951,-1.3916999101638794
1702217476004682800,21.817682861328127,2.358799934387207,-0.9878999590873718,-2.688199996948242
1702217476064682800,21.877682861328125,4.168900012969971,-1.2359999418258667,0.13660000264644623
1702217476124682800,21.937682861328124,1.4537999629974365,-0.06639999896287918,-3.5744998455047607
1702217476184682800,21.997682861328126,7.067899703979492,-1.677899956703186,-4.515100002288818
1702217476244682800,22.057682861328125,-5.201499938964844,-2.5406999588012695,-2.6770999431610107
1702217476304682800,22.117682861328124,1.7929999828338623,-4.5092997550964355,1.4503999948501587
1702217476364682800,22.177682861328126,-2.5815000534057617,-1.2872999906539917,1.5041999816894531
1702217476424682800,22.237682861328125,-4.916999816894531,2.3267998695373535,0.30629998445510864
1702217476484682800,22.297682861328123,-4.495599746704102,2.213099956512451,3.3812999725341797
1702217476544682800,22.357682861328126,-2.302999973297119,3.0913000106811523,5.090799808502197
1702217476604682800,22.417682861328124,5.10699987411499,-1.7339999675750732,-0.37199997901916504
1702217476664682800,22.477682861328127,2.4027998447418213,1.178399920463562,-4.406099796295166
1702217476724682800,22.537682861328125,4.067899703979492,0.3227999806404114,0.41929998993873596
1702217476784682800,22.597682861328124,-4.967099666595459,-0.7008000016212463,6.341799736022949
1702217476844682800,22.657682861328126,-8.031299591064453,-1.4881999492645264,-0.897599995136261
1702217476904682800,22.717682861328125,-3.8564000129699707,-3.1155998706817627,-2.0297999382019043
1702217476964682800,22.777682861328124,-2.2651000022888184,0.44519999623298645,-1.4477999210357666
1702217477024682800,22.837682861328126,0.37469998002052307,0.3418000042438507,3.2784998416900635
1702217477084682800,22.897682861328125,0.6096000075340271,1.9350999593734741,1.3657000064849854
1702217477144682800,22.957682861328124,-1.2969999313354492,2.2172999382019043,-1.5674999952316284
1702217477204682800,23.017682861328126,2.419299840927124,-1.1476999521255493,-4.641200065612793
1702217477264682800,23.077682861328125,2.6956000328063965,-1.76010000705719,-2.987299919128418
1702217477324682800,23.137682861328123,1.5846999883651733,-1.4609999656677246,-2.004999876022339
1702217477384682800,23.197682861328126,8.029600143432617,-3.258699893951416,-3.436999797821045
1702217477444682800,23.257682861328124,-7.6240997314453125,0.20799998939037323,0.24059998989105225
1702217477504682800,23.317682861328127,2.6720998287200928,-4.936899662017822,-3.607599973678589
1702217477564682800,23.377682861328125,-4.4116997718811035,-0.8919999599456787,1.4537999629974365
1702217477624682800,23.437682861328124,-4.907599925994873,2.990299940109253,2.0620999336242676
1702217477684682800,23.497682861328126,-3.7616000175476074,1.285099983215332,3.316999912261963
1702217477744682800,23.557682861328125,-0.5730999708175659,2.5879998207092285,4.530399799346924
1702217477804682800,23.617682861328124,4.024600028991699,-1.9571999311447144,-3.9509999752044678
1702217477864682800,23.677682861328126,0.043800000101327896,4.0005998611450195,-3.6713998317718506
1702217477924682800,23.737682861328125,0.11889999359846115,1.0667999982833862,0.02199999988079071
1702217477984682800,23.797682861328123,-7.122299671173096,-6.492499828338623,-2.009999990463257
1702217478044682800,23.857682861328126,-6.013299942016602,-0.11429999768733978,3.3371999263763428
1702217478104682800,23.917682861328124,-2.579399824142456,-2.5327999591827393,-0.23169998824596405
1702217478164682800,23.977682861328127,-0.23420000076293945,1.2182999849319458,-1.9698998928070068
1702217478224682800,24.037682861328125,1.1238999366760254,0.4724999964237213,2.1975998878479004
1702217478284682800,24.097682861328124,1.0067999362945557,0.6520999670028687,-1.3671000003814697
1702217478344682800,24.157682861328126,-0.691100001335144,1.4296000003814697,-2.631700038909912
1702217478404682800,24.217682861328125,1.0983999967575073,-0.9180999994277954,-3.001499891281128
1702217478464682800,24.277682861328124,6.91379976272583,-1.7621999979019165,-0.23439998924732208
1702217478524682800,24.337682861328126,-0.04270000010728836,-1.7530999183654785,-3.8026998043060303
1702217478584682800,24.397682861328125,10.028900146484375,-0.9529999494552612,-2.9143998622894287
1702217478644682800,24.457682861328124,-6.021599769592285,-2.984999895095825,-2.9296998977661133
1702217478704682800,24.517682861328126,2.824699878692627,-5.058599948883057,-0.8476999998092651
1702217478764682800,24.577682861328125,-2.9214999675750732,-0.36239999532699585,2.9398999214172363
1702217478824682800,24.637682861328123,-4.13100004196167,1.9709999561309814,1.0083999633789062
1702217478884682800,24.697682861328126,-3.8411998748779297,2.2726998329162598,2.4467999935150146
1702217478944682800,24.757682861328124,-0.42489999532699585,3.158399820327759,4.834099769592285
1702217479004682800,24.817682861328127,5.318399906158447,-1.545300006866455,-4.5
1702217479064682800,24.877682861328125,-0.5446000099182129,3.217399835586548,-3.68999981880188
1702217479124682800,24.937682861328124,1.9507999420166016,-0.3513999879360199,0.6195999979972839
1702217479184682800,24.997682861328126,-5.204799652099609,-4.660799980163574,1.223599910736084
1702217479244682800,25.057682861328125,-6.648399829864502,0.43449997901916504,2.2851998805999756
1702217479304682800,25.117682861328124,-1.9509999752044678,-3.4661998748779297,-2.8554999828338623
1702217479364682800,25.177682861328126,0.4221999943256378,3.129499912261963,0.20649999380111694
1702217479424682800,25.237682861328125,0.09200000017881393,-0.4528999924659729,-0.07939999550580978
1702217479484682800,25.297682861328123,0.11729999631643295,0.9750999808311462,-1.242900013923645
1702217479544682800,25.357682861328126,0.6830999851226807,-0.5525999665260315,-2.5083999633789062
1702217479604682800,25.417682861328124,4.546299934387207,-0.8057999610900879,-2.344399929046631
1702217479664682800,25.477682861328127,1.7654999494552612,-1.8918999433517456,-1.1878999471664429
1702217479724682800,25.537682861328125,0.6425999999046326,-4.411900043487549,-4.665800094604492
1702217479784682800,25.597682861328124,3.3715999126434326,-0.3294000029563904,-0.4643999934196472
1702217479844682800,25.657682861328126,-3.978599786758423,-3.079399824142456,-1.3624999523162842
1702217479904682800,25.717682861328125,-3.061300039291382,-1.4776999950408936,1.8361999988555908
1702217479964682800,25.777682861328124,-2.769699811935425,1.8602999448776245,0.9359999895095825
1702217480024682800,25.837682861328126,-3.4845998287200928,0.6304000020027161,0.21889999508857727
1702217480084682800,25.897682861328125,-2.132499933242798,2.5316998958587646,3.5790998935699463
1702217480144682800,25.957682861328124,3.015199899673462,3.3123998641967773,2.0806000232696533
1702217480204682800,26.017682861328126,2.412899971008301,-0.8025999665260315,-6.731199741363525
1702217480264682800,26.077682861328125,-6.350399971008301,-0.07979999482631683,-1.3562999963760376
1702217480324682800,26.137682861328123,-2.055000066757202,-4.0868000984191895,4.300699710845947
1702217480384682800,26.197682861328126,-4.4654998779296875,-1.8835999965667725,2.4064998626708984
1702217480444682800,26.257682861328124,-2.828199863433838,-1.5829999446868896,-1.674899935722351
1702217480504682800,26.317682861328127,-2.189199924468994,0.8026999831199646,-4.080699920654297
1702217480564682800,26.377682861328125,0.644599974155426,1.9290999174118042,0.16200000047683716
1702217480624682800,26.437682861328124,0.6060000061988831,0.3840000033378601,-0.1573999971151352
1702217480684682800,26.497682861328126,0.9081999659538269,0.9784999489784241,-0.6750999689102173
1702217480744682800,26.557682861328125,0.7805999517440796,-0.2425999939441681,-2.6405999660491943
1702217480804682800,26.617682861328124,3.6761999130249023,-1.5666999816894531,-1.3451999425888062
1702217480864682800,26.677682861328126,0.49309998750686646,-3.003000020980835,-3.1875998973846436
1702217480924682800,26.737682861328125,9.689099311828613,0.32349997758865356,-1.6445999145507812
1702217480984682800,26.797682861328123,-4.541899681091309,-2.5127999782562256,-4.902400016784668
1702217481044682800,26.857682861328126,0.8126999735832214,-3.1546998023986816,1.9893999099731445
1702217481104682800,26.917682861328124,-1.792699933052063,-1.270799994468689,1.1216999292373657
1702217481164682800,26.977682861328127,-3.7906999588012695,1.6746000051498413,1.3839999437332153
1702217481224682800,27.037682861328125,-3.3392999172210693,2.2585999965667725,1.1417999267578125
1702217481284682800,27.097682861328124,-1.5770999193191528,3.9096999168395996,5.60189962387085
1702217481344682800,27.157682861328126,5.023799896240234,-3.468899965286255,-9.54949951171875
1702217481404682800,27.217682861328125,2.37719988822937,3.579399824142456,1.2281999588012695
1702217481464682800,27.277682861328124,-2.5743000507354736,-4.570899963378906,-0.3513000011444092
1702217481524682800,27.337682861328126,2.8516998291015625,-1.442199945449829,-1.5060999393463135
1702217481584682800,27.397682861328125,-4.575900077819824,-2.0678999423980713,2.782399892807007
1702217481644682800,27.457682861328124,-3.7112998962402344,-1.2721999883651733,-1.796199917793274
1702217481704682800,27.517682861328126,0.47599998116493225,1.110700011253357,-0.396699994802475
1702217481764682800,27.577682861328125,3.2338998317718506,-0.8949999809265137,1.15339994430542
1702217481824682800,27.637682861328123,-0.6786999702453613,2.0588998794555664,-1.1678999662399292
1702217481884682800,27.697682861328126,-0.8700000047683716,0.9651999473571777,-2.9208998680114746
1702217481944682800,27.757682861328124,5.82889986038208,-0.9182999730110168,-3.7590999603271484
1702217482004682800,27.817682861328127,2.8432998657226562,-1.8341000080108643,-0.5521000027656555
1702217482064682800,27.877682861328125,6.82859992980957,-1.2773000001907349,-4.428999900817871
1702217482124682800,27.937682861328124,-8.380199432373047,-2.0629000663757324,-5.206599712371826
1702217482184682800,27.997682861328126,3.0491998195648193,-5.451399803161621,-1.385599970817566
1702217482244682800,28.057682861328125,-3.0508999824523926,0.140299990773201,2.1678998470306396
1702217482304682800,28.117682861328124,-2.737299919128418,1.9595999717712402,0.7858999967575073
1702217482364682800,28.177682861328126,-3.8155999183654785,1.5951999425888062,3.95389986038208
1702217482424682800,28.237682861328125,-2.659899950027466,2.181299924850464,5.4888997077941895
1702217482484682800,28.297682861328123,3.3101999759674072,1.3738999366760254,-2.263700008392334
1702217482544682800,28.357682861328126,0.8269000053405762,3.638700008392334,-4.811899662017822
1702217482604682800,28.417682861328124,3.3925998210906982,-9.404899597167969,-6.969299793243408
1702217482664682800,28.477682861328127,3.2028000354766846,-1.1967999935150146,10.384200096130371
1702217482724682800,28.537682861328125,-5.271100044250488,-3.8596999645233154,2.375499963760376
1702217482784682800,28.597682861328124,-4.031599998474121,-2.47379994392395,-4.058199882507324
1702217482844682800,28.657682861328126,2.9549999237060547,1.7802000045776367,1.0335999727249146
1702217482904682800,28.717682861328125,-0.6022999882698059,1.0949000120162964,0.20799998939037323
1702217482964682800,28.777682861328124,-0.694599986076355,1.2842999696731567,-2.271699905395508
1702217483024682800,28.837682861328126,1.0461000204086304,1.1827999353408813,-2.413599967956543
1702217483084682800,28.897682861328125,5.43779993057251,-0.24959999322891235,-2.588599920272827
1702217483144682800,28.957682861328124,1.4048999547958374,-1.372499942779541,-1.013100028038025
1702217483204682800,29.017682861328126,2.3688998222351074,-0.7523999810218811,-2.5232999324798584
1702217483264682800,29.077682861328125,5.8217997550964355,-1.8698999881744385,-4.101999759674072
1702217483324682800,29.137682861328123,-6.599499702453613,-1.4490000009536743,-1.7418999671936035
1702217483384682800,29.197682861328126,1.5645999908447266,-4.729799747467041,-2.339099884033203
1702217483444682800,29.257682861328124,-2.657899856567383,-0.0017999999690800905,1.43149995803833
1702217483504682800,29.317682861328127,-4.599499702453613,1.9960999488830566,0.652899980545044
1702217483564682800,29.377682861328125,-3.884399890899658,2.262399911880493,4.365600109100342
1702217483624682800,29.437682861328124,-1.507699966430664,3.758999824523926,6.7642998695373535
1702217483684682800,29.497682861328126,8.023499488830566,-3.6775999069213867,-9.61989974975586
1702217483744682800,29.557682861328125,-1.1579999923706055,3.796999931335449,-2.9068000316619873
1702217483804682800,29.617682861328124,-0.3644999861717224,-4.773299694061279,-1.0641999244689941
1702217483864682800,29.677682861328126,2.0999999046325684,-2.6201000213623047,0.5389999747276306
1702217483924682800,29.737682861328125,-5.544699668884277,-0.6554999947547913,1.6944999694824219
1702217483984682800,29.797682861328123,-3.1503000259399414,-2.6619999408721924,-1.2254999876022339
1702217484044682800,29.857682861328126,3.486999988555908,0.12349999696016312,3.8571999073028564
1702217484104682800,29.917682861328124,-0.13729999959468842,0.637499988079071,0.3564999997615814
1702217484164682800,29.977682861328127,-1.6624999046325684,2.865499973297119,-1.292699933052063
1702217484224682800,30.037682861328125,2.191499948501587,2.4069998264312744,-2.89739990234375
1702217484284682800,30.097682861328124,4.470999717712402,-2.1982998847961426,-2.6748998165130615
1702217484344682800,30.157682861328126,4.002599716186523,-1.6497999429702759,-1.8365999460220337
1702217484404682800,30.217682861328125,4.0295000076293945,-3.2238998413085938,-6.147299766540527
1702217484464682800,30.277682861328124,-4.9091997146606445,-1.2919999361038208,-4.1915998458862305
1702217484524682800,30.337682861328126,3.881999969482422,-6.569499969482422,-1.6518999338150024
1702217484584682800,30.397682861328125,-4.527199745178223,-0.30320000648498535,2.3250999450683594
1702217484644682800,30.457682861328124,-5.018399715423584,2.711599826812744,1.2899999618530273
1702217484704682800,30.517682861328126,-4.499000072479248,1.436900019645691,3.9976999759674072
1702217484764682800,30.577682861328125,-2.677299976348877,2.3726999759674072,5.297999858856201
1702217484824682800,30.637682861328123,4.305999755859375,-0.4269999861717224,-3.792099952697754
1702217484884682800,30.697682861328126,1.6294000148773193,2.736599922180176,-3.924099922180176
1702217484944682800,30.757682861328124,-0.4869999885559082,2.9391000270843506,2.3894999027252197
1702217485004682800,30.817682861328127,6.3750996589660645,-8.222199440002441,-1.1543999910354614
1702217485064682800,30.877682861328125,-2.9945998191833496,0.14710000157356262,2.027600049972534
1702217485124682800,30.937682861328124,-7.855299949645996,-0.7676999568939209,-1.9375998973846436
1702217485184682800,30.997682861328126,0.2669999897480011,-1.6339999437332153,-1.9793999195098877
1702217485244682800,31.057682861328125,2.69789981842041,0.06599999964237213,3.5712997913360596
1702217485304682800,31.117682861328124,-0.7091999650001526,1.1022999286651611,-0.6049000024795532
1702217485364682800,31.177682861328126,0.7008000016212463,2.52020001411438,-2.8568999767303467
1702217485424682800,31.237682861328125,6.234399795532227,-2.728799819946289,-1.7037999629974365
1702217485484682800,31.297682861328123,3.326399803161621,-1.6703999042510986,-1.146299958229065
1702217485544682800,31.357682861328126,4.720200061798096,-2.169600009918213,-2.480299949645996
1702217485604682800,31.417682861328124,3.1085000038146973,-1.375599980354309,-8.212900161743164
1702217485664682800,31.477682861328127,-7.024999618530273,-1.9607999324798584,-1.6592999696731567
1702217485724682800,31.537682861328125,2.256999969482422,-4.708499908447266,0.001500000013038516
1702217485784682800,31.597682861328124,-4.4105000495910645,1.5353000164031982,1.2561999559402466
1702217485844682800,31.657682861328126,-4.5929999351501465,1.9988999366760254,1.5233999490737915
1702217485904682800,31.717682861328125,-3.8030998706817627,1.530900001525879,4.593499660491943
1702217485964682800,31.777682861328124,-0.148499995470047,2.6122000217437744,5.86870002746582
1702217486024682800,31.837682861328126,13.057499885559082,-2.641199827194214,-11.470600128173828
1702217486084682800,31.897682861328125,-0.011699999682605267,-1.576200008392334,-4.377799987792969
1702217486144682800,31.957682861328124,-12.324999809265137,0.16669999063014984,7.063799858093262
1702217486204682800,32.017682861328126,-4.932399749755859,0.4617999792098999,5.7581000328063965
1702217486264682800,32.07768286132813,-2.6673998832702637,-5.329099655151367,-3.326200008392334
1702217486324682800,32.13768286132812,-0.47540000081062317,0.8625999689102173,-0.5898999571800232
1702217486384682800,32.197682861328126,-0.6096000075340271,1.2359999418258667,0.8167999982833862
1702217486444682800,32.25768286132813,2.118000030517578,0.33899998664855957,-0.351500004529953
1702217486504682800,32.31768286132812,1.2310999631881714,0.3788999915122986,-1.4572999477386475
1702217486564682800,32.377682861328125,3.3374998569488525,0.5437999963760376,-1.4256999492645264
1702217486624682800,32.43768286132813,4.3403000831604,-1.191100001335144,-1.7761999368667603
1702217486684682800,32.49768286132812,1.299899935722351,-3.878999948501587,-2.7737998962402344
1702217486744682800,32.557682861328125,5.3993000984191895,-0.9556999802589417,-1.6414999961853027
1702217486804682800,32.61768286132813,-4.295499801635742,-3.66129994392395,-1.5022000074386597
1702217486864682800,32.67768286132812,0.5974999666213989,-2.0539000034332275,0.027699999511241913
1702217486924682800,32.737682861328125,0.9250999689102173,-0.8424999713897705,2.977099895477295
1702217486984682800,32.79768286132813,-3.2533998489379883,1.594099998474121,3.068499803543091
1702217487044682800,32.85768286132812,-4.716599941253662,3.1541998386383057,-0.7166999578475952
1702217487104682800,32.917682861328124,-0.616599977016449,4.5478997230529785,2.4328999519348145
1702217487164682800,32.97768286132813,7.167099952697754,-1.1377999782562256,-3.454399824142456
1702217487224682800,33.03768286132812,0.8260999917984009,2.6507999897003174,-3.9038000106811523
1702217487284682800,33.097682861328124,4.052499771118164,-8.822599411010742,0.9713999629020691
1702217487344682800,33.15768286132813,-3.3646998405456543,2.8130998611450195,6.510599613189697
1702217487404682800,33.21768286132812,-6.435299873352051,-3.470899820327759,-1.8513998985290527
1702217487464682800,33.277682861328124,-0.7598999738693237,-2.443199872970581,-7.1427998542785645
1702217487524682800,33.337682861328126,0.24159999191761017,4.542500019073486,1.0026999711990356
1702217487584682800,33.39768286132813,2.586899995803833,-0.4325999915599823,0.24529999494552612
1702217487644682800,33.457682861328124,1.6850999593734741,0.7107999920845032,-2.0239999294281006
1702217487704682800,33.517682861328126,-0.45569998025894165,0.16409999132156372,-2.157099962234497
1702217487764682800,33.57768286132813,5.2841997146606445,-1.8803999423980713,-1.9329999685287476
1702217487824682800,33.63768286132812,3.0862998962402344,-2.203199863433838,-0.9684000015258789
1702217487884682800,33.697682861328126,8.799699783325195,-1.4009000062942505,-6.144000053405762
1702217487944682800,33.75768286132813,-7.175699710845947,-3.1106998920440674,-3.732599973678589
1702217488004682800,33.81768286132812,2.6355998516082764,-6.968499660491943,0.4737999737262726
1702217488064682800,33.877682861328125,-2.2916998863220215,0.17809998989105225,1.212399959564209
1702217488124682800,33.93768286132813,-5.408199787139893,3.458899974822998,0.5796999931335449
1702217488184682800,33.99768286132812,-4.351099967956543,3.0032999515533447,3.3351998329162598
1702217488244682800,34.057682861328125,-1.357800006866455,2.6389999389648438,4.689399719238281
1702217488304682800,34.11768286132813,4.433499813079834,0.21739999949932098,-2.7119998931884766
1702217488364682800,34.17768286132812,2.3134000301361084,1.0769000053405762,-4.375799655914307
1702217488424682800,34.237682861328125,3.7660999298095703,-5.456999778747559,-1.0546000003814697
1702217488484682800,34.29768286132813,-5.904299736022949,-0.913599967956543,4.4126996994018555
1702217488544682800,34.35768286132812,-6.095799922943115,-1.9023000001907349,-0.8300999999046326
1702217488604682800,34.417682861328124,-3.535799980163574,-1.8399999141693115,-4.7953996658325195
1702217488664682800,34.47768286132813,2.4370999336242676,2.1257998943328857,0.5135999917984009
1702217488724682800,34.53768286132812,0.31700000166893005,0.1386999934911728,1.7884999513626099
1702217488784682800,34.597682861328124,0.31919997930526733,1.4953999519348145,-0.41769999265670776
1702217488844682800,34.65768286132813,1.4345999956130981,0.32569998502731323,-2.3369998931884766
1702217488904682800,34.71768286132812,5.346399784088135,-0.25450000166893005,-2.8813998699188232
1702217488964682800,34.777682861328124,0.23469999432563782,-2.2602999210357666,-2.1887998580932617
1702217489024682800,34.837682861328126,4.179500102996826,-1.723099946975708,-3.0234999656677246
1702217489084682800,34.89768286132813,2.686199903488159,-3.185999870300293,-5.390999794006348
1702217489144682800,34.957682861328124,-4.516599655151367,-1.555999994277954,-0.6227999925613403
1702217489204682800,35.017682861328126,1.8787999153137207,-5.257599830627441,1.6363999843597412
1702217489264682800,35.07768286132813,-3.3485000133514404,2.238600015640259,1.3941999673843384
1702217489324682800,35.13768286132812,-3.7007999420166016,2.070199966430664,0.4738999903202057
1702217489384682800,35.197682861328126,-4.378999710083008,3.076900005340576,4.438899993896484
1702217489444682800,35.25768286132813,2.0565998554229736,3.3732998371124268,1.9398999214172363
1702217489504682800,35.31768286132812,4.146399974822998,-4.277400016784668,-9.873499870300293
1702217489564709400,35.37770947265625,1.2231999635696411,4.5792999267578125,-0.6273999810218811
1702217489624682800,35.43768286132813,-1.6854000091552734,-2.752699851989746,5.273099899291992
1702217489684682800,35.49768286132812,-8.168499946594238,-3.418799877166748,-0.45479997992515564
1702217489744682800,35.557682861328125,-4.771599769592285,-1.1196999549865723,-2.098099946975708
1702217489804682800,35.61768286132813,-4.3694000244140625,-0.31839999556541443,-1.6958999633789062
1702217489864682800,35.67768286132812,5.983599662780762,1.5683999061584473,3.8760998249053955
1702217489924682800,35.737682861328125,-0.32989999651908875,0.5777999758720398,-0.8277999758720398
1702217489984682800,35.79768286132813,1.0900999307632446,2.019899845123291,-2.5434999465942383
1702217490044682800,35.85768286132812,5.631399631500244,-0.20639999210834503,-3.6820998191833496
1702217490104682800,35.917682861328124,1.9218999147415161,-1.4680999517440796,-2.1301000118255615
1702217490164682800,35.97768286132813,4.430500030517578,-0.530299961566925,-2.0012998580932617
1702217490224682800,36.03768286132812,-0.7102000117301941,-1.0192999839782715,-6.7428998947143555
1702217490284682800,36.097682861328124,-1.456399917602539,-2.0332999229431152,-5.199999809265137
1702217490344682800,36.15768286132813,1.382200002670288,-4.809000015258789,0.7973999977111816
1702217490404682800,36.21768286132812,-2.1270999908447266,1.0032999515533447,1.9789999723434448
1702217490464682800,36.277682861328124,-2.488600015640259,1.0817999839782715,1.7036999464035034
1702217490524682800,36.337682861328126,-2.3244998455047607,2.110599994659424,4.516200065612793
1702217490584682800,36.39768286132813,0.0640999972820282,2.285799980163574,5.145699977874756
1702217490644682800,36.457682861328124,4.927599906921387,0.9140999913215637,-8.6048002243042
1702217490704682800,36.517682861328126,-2.613499879837036,6.224599838256836,-3.0254998207092285
1702217490764682800,36.57768286132813,7.15369987487793,-14.717000007629395,-6.561999797821045
1702217490824682800,36.63768286132812,-8.087699890136719,2.822700023651123,9.612699508666992
1702217490884682800,36.697682861328126,-3.9460999965667725,-2.5759999752044678,-1.1596999168395996
1702217490944682800,36.75768286132813,-0.3994999825954437,-0.9990999698638916,-3.1891000270843506
1702217491004682800,36.81768286132812,-1.5795999765396118,1.937399983406067,2.1980998516082764
1702217491064682800,36.877682861328125,0.6816999912261963,0.7040999531745911,-0.816100001335144
1702217491124682800,36.93768286132813,0.7818999886512756,1.6208000183105469,-2.1644999980926514
1702217491184682800,36.99768286132812,1.6209999322891235,1.5017999410629272,-2.0346999168395996
1702217491244682800,37.057682861328125,3.6153998374938965,-0.00279999990016222,-3.25819993019104
1702217491304682800,37.11768286132813,2.322999954223633,-1.8686000108718872,-0.9275999665260315
1702217491364682800,37.17768286132812,2.6469998359680176,-1.833400011062622,-5.70359992980957
1702217491424682800,37.237682861328125,1.4472999572753906,-0.21199999749660492,-5.7851996421813965
1702217491484682800,37.29768286132813,-2.5530998706817627,-3.0416998863220215,-2.431299924850464
1702217491544682800,37.35768286132812,-0.5458999872207642,-4.983599662780762,2.053299903869629
1702217491604682800,37.417682861328124,-4.330100059509277,1.5579999685287476,1.3907999992370605
1702217491664682800,37.47768286132813,-3.642199993133545,2.158900022506714,1.1834999322891235
1702217491724682800,37.53768286132812,-3.4183998107910156,2.6415998935699463,6.404599666595459
1702217491784682800,37.597682861328124,7.783999919891357,2.237299919128418,0.8726999759674072
1702217491844682800,37.65768286132813,1.974199891090393,1.9773999452590942,-4.067399978637695
1702217491904682800,37.71768286132812,-1.6958999633789062,-5.798799991607666,0.21889999508857727
1702217491964682800,37.777682861328124,-9.433599472045898,1.3263999223709106,3.846799850463867
1702217492024682800,37.837682861328126,-3.5755999088287354,-4.941199779510498,-2.3701000213623047
1702217492084682800,37.89768286132813,-2.3180999755859375,-1.1791999340057373,-3.3508999347686768
1702217492144682800,37.957682861328124,2.1845998764038086,2.1283998489379883,1.6546999216079712
1702217492204682800,38.017682861328126,1.1718999147415161,1.723699927330017,-1.1074999570846558
1702217492264682800,38.07768286132813,0.767799973487854,0.8863999843597412,-1.980699896812439
1702217492324682800,38.13768286132812,1.18559992313385,1.0591999292373657,-1.5650999546051025
1702217492384682800,38.197682861328126,2.397899866104126,-1.8636999130249023,-2.3336000442504883
1702217492444682800,38.25768286132813,5.1392998695373535,-1.7968999147415161,-1.1313999891281128
1702217492504682800,38.31768286132812,1.4505000114440918,-3.3427000045776367,-4.981899738311768
1702217492564682800,38.377682861328125,4.282199859619141,0.9587000012397766,-0.821899950504303
1702217492624682800,38.43768286132813,-6.2612996101379395,-5.695799827575684,-3.7294998168945312
1702217492684682800,38.49768286132812,3.980799913406372,-2.6476998329162598,-0.6510999798774719
1702217492744682800,38.557682861328125,-2.1903998851776123,0.6312999725341797,2.6907999515533447
1702217492804682800,38.61768286132813,-5.062999725341797,2.2939999103546143,3.6373000144958496
1702217492864682800,38.67768286132812,-2.733599901199341,2.3710999488830566,1.2249000072479248
1702217492924682800,38.737682861328125,-0.8089999556541443,3.4236998558044434,4.373899936676025
1702217492984682800,38.79768286132813,7.347300052642822,-2.4256999492645264,-9.198200225830078
1702217493044682800,38.85768286132812,4.969299793243408,-4.351399898529053,-4.417099952697754
1702217493104682800,38.917682861328124,-7.787399768829346,-0.7737999558448792,6.113699913024902
1702217493164682800,38.97768286132813,-6.487599849700928,-1.216599941253662,-0.03309999778866768
1702217493224682800,39.03768286132812,-2.3137998580932617,-1.2806999683380127,-1.1453999280929565
1702217493284682800,39.097682861328124,-1.9459999799728394,-0.7989999651908875,-1.2375999689102173
1702217493344682800,39.15768286132813,1.232800006866455,0.905299961566925,0.2915000021457672
1702217493404682800,39.21768286132812,1.6801999807357788,1.1089999675750732,-1.8517999649047852
1702217493464682800,39.277682861328124,0.1988999992609024,0.6958000063896179,-1.1301000118255615
1702217493524682800,39.337682861328126,5.730400085449219,-0.9284999966621399,-3.9258999824523926
1702217493584682800,39.39768286132813,0.9095999598503113,-1.0885999202728271,-1.7628999948501587
1702217493644682800,39.457682861328124,0.7181000113487244,-1.4706000089645386,-1.2659999132156372
1702217493704682800,39.517682861328126,7.655200004577637,-3.0964999198913574,-7.107399940490723
1702217493764682800,39.57768286132813,-5.341700077056885,-3.1018998622894287,-1.2961000204086304
1702217493824682800,39.63768286132812,3.7816998958587646,-3.6907999515533447,-1.0640000104904175
1702217493884682800,39.697682861328126,-3.170799970626831,0.6319999694824219,2.2884998321533203
1702217493944682800,39.75768286132813,-3.6873998641967773,1.9125999212265015,1.845099925994873
1702217494004682800,39.81768286132812,-4.453000068664551,1.319599986076355,1.774999976158142
1702217494064682800,39.877682861328125,-0.8345999717712402,2.6362998485565186,3.3509998321533203
1702217494124682800,39.93768286132813,4.394400119781494,0.31119999289512634,-4.165999889373779
1702217494184682800,39.99768286132812,-0.09290000051259995,2.518399953842163,-4.4492998123168945
1702217494244682800,40.057682861328125,0.24899999797344208,-0.40299999713897705,-0.9178999662399292
1702217494304682800,40.11768286132813,-4.681099891662598,-5.438899993896484,4.772299766540527
1702217494364682800,40.17768286132812,-5.63700008392334,1.7803999185562134,1.045300006866455
1702217494424682800,40.237682861328125,-3.1638998985290527,-5.3653998374938965,-4.285799980163574
1702217494484682800,40.29768286132813,2.035099983215332,2.6545000076293945,-1.7335000038146973
1702217494544682800,40.35768286132812,-1.2785999774932861,0.15869998931884766,1.5722999572753906
1702217494604682800,40.417682861328124,1.3115999698638916,0.5095999836921692,-1.1620999574661255
1702217494664682800,40.47768286132813,0.31769999861717224,1.2329999208450317,-2.136199951171875
1702217494724682800,40.53768286132812,1.493399977684021,0.11050000041723251,-2.2167999744415283
1702217494784682800,40.597682861328124,4.820099830627441,-0.5396000146865845,-0.9946999549865723
1702217494844682800,40.65768286132813,-0.6935999989509583,-1.6993999481201172,-2.2126998901367188
1702217494904682800,40.71768286132812,0.35439997911453247,-3.05049991607666,-5.189799785614014
1702217494964682800,40.777682861328124,9.548399925231934,-0.8574999570846558,-0.9164999723434448
1702217495024682800,40.837682861328126,-5.039400100708008,-1.9168999195098877,-3.526399850845337
1702217495084682800,40.89768286132813,1.6965999603271484,-2.8307998180389404,-0.6653000116348267
1702217495144682800,40.957682861328124,-2.0794999599456787,0.36719998717308044,1.25409996509552
1702217495204682800,41.017682861328126,-1.7793999910354614,0.5787000060081482,0.8722999691963196
1702217495264682800,41.07768286132813,-3.55049991607666,1.0273000001907349,2.094399929046631
1702217495324682800,41.13768286132812,-2.009899854660034,2.857100009918213,4.989199638366699
1702217495384682800,41.197682861328126,2.1059999465942383,2.6601998805999756,-0.14000000059604645
1702217495444682800,41.25768286132813,3.539299964904785,0.3894999921321869,-11.028299331665039
1702217495504682800,41.31768286132812,-0.400299996137619,4.520899772644043,-0.42489999532699585
1702217495564682800,41.377682861328125,4.077099800109863,-13.644899368286133,-2.882200002670288
1702217495624682800,41.43768286132813,-2.2590999603271484,3.371799945831299,7.061800003051758
1702217495684682800,41.49768286132812,-3.861799955368042,-0.6114000082015991,-1.8249999284744263
1702217495744682800,41.557682861328125,0.6969999670982361,1.1370999813079834,-1.5190999507904053
1702217495804682800,41.61768286132813,-3.178799867630005,-0.4860999882221222,1.069100022315979
1702217495864682800,41.67768286132812,0.7798999547958374,-0.34939998388290405,0.32850000262260437
1702217495924682800,41.737682861328125,0.37619999051094055,1.6110999584197998,-1.2405999898910522
1702217495984682800,41.79768286132813,-0.6581999659538269,1.5382999181747437,-0.6590999960899353
1702217496044682800,41.85768286132812,0.5964999794960022,0.3446999788284302,-0.649399995803833
1702217496104682800,41.917682861328124,5.7251996994018555,-0.6977999806404114,-3.975600004196167
1702217496164682800,41.97768286132813,0.10679999738931656,0.40389999747276306,-3.678499937057495
1702217496224682800,42.03768286132812,4.74370002746582,-1.1138999462127686,-6.049699783325195
1702217496284682800,42.097682861328124,0.2870999872684479,0.148499995470047,-6.695899963378906
1702217496344682800,42.15768286132813,-3.0139999389648438,-2.9696998596191406,-1.3970999717712402
1702217496404682800,42.21768286132812,-0.671999990940094,-4.984600067138672,3.7029998302459717
1702217496464682800,42.277682861328124,-3.355299949645996,2.25,1.0037000179290771
1702217496524682800,42.337682861328126,-3.4472999572753906,1.5322999954223633,0.967199981212616
1702217496584682800,42.39768286132813,-3.5092999935150146,2.3968000411987305,5.771899700164795
1702217496644682800,42.457682861328124,3.3838999271392822,2.972899913787842,2.139400005340576
1702217496704682800,42.517682861328126,0.8060999512672424,0.28139999508857727,-5.509799957275391
1702217496764682800,42.57768286132813,-0.9746999740600586,4.139100074768066,-1.1648999452590942
1702217496824682800,42.63768286132812,-0.7901999950408936,-9.7253999710083,-1.8003000020980835
1702217496884682800,42.697682861328126,-6.034299850463867,0.7911999821662903,2.9784998893737793
1702217496944682800,42.75768286132813,-4.134999752044678,-2.232100009918213,0.1492999941110611
1702217497004682800,42.81768286132812,3.0200998783111572,1.2121999263763428,1.5321999788284302
1702217497064682800,42.877682861328125,1.7486000061035156,0.2587999999523163,-0.44519999623298645
1702217497124682800,42.93768286132813,-0.7754999995231628,1.1829999685287476,-1.5306999683380127
1702217497184682800,42.99768286132812,1.931899905204773,2.3086998462677,-2.0809998512268066
1702217497244682800,43.057682861328125,2.6103999614715576,0.4941999912261963,-4.463900089263916
1702217497304682800,43.11768286132813,2.9226999282836914,-0.5805000066757202,-0.918999969959259
1702217497364682800,43.17768286132812,3.32069993019104,-0.4108999967575073,-6.071699619293213
1702217497424682800,43.237682861328125,-2.688499927520752,-0.2969000041484833,-2.9017999172210693
1702217497484682800,43.29768286132813,1.3274999856948853,-6.15910005569458,-4.603899955749512
1702217497544682800,43.35768286132812,-2.0585999488830566,-1.1162999868392944,3.4403998851776123
1702217497604682800,43.417682861328124,-2.7005999088287354,0.38029998540878296,1.2264000177383423
1702217497664682800,43.47768286132813,-4.125499725341797,2.50819993019104,3.4998998641967773
1702217497724682800,43.53768286132812,-2.4738998413085938,2.4535999298095703,4.188399791717529
1702217497784682800,43.597682861328124,1.986199975013733,2.2165000438690186,1.2041000127792358
1702217497844682800,43.65768286132813,4.09119987487793,-0.4018999934196472,-10.552800178527832
1702217497904682800,43.71768286132812,-0.20019999146461487,5.8526997566223145,-0.8932999968528748
1702217497964682800,43.777682861328124,-0.9062999486923218,-10.38700008392334,0.8226000070571899
1702217498024682800,43.837682861328126,-3.4968998432159424,0.058399997651576996,3.1494998931884766
1702217498084682800,43.89768286132813,-0.960099995136261,-3.798799991607666,-2.5607998371124268
1702217498144682800,43.957682861328124,-3.2228000164031982,1.3041999340057373,0.7127999663352966
1702217498204682800,44.017682861328126,-0.008700000122189522,-0.7978000044822693,0.9519000053405762
1702217498264682800,44.07768286132813,1.902899980545044,0.670199990272522,-0.27059999108314514
1702217498324682800,44.13768286132812,-0.7597999572753906,2.5154998302459717,-1.3982999324798584
1702217498384682800,44.197682861328126,0.6775999665260315,1.7109999656677246,-1.8456000089645386
1702217498444682800,44.25768286132813,6.907399654388428,-1.4289000034332275,-3.154399871826172
1702217498504682800,44.31768286132812,-0.8811999559402466,-0.9085999727249146,-3.770399808883667
1702217498564682800,44.377682861328125,7.463599681854248,-3.159099817276001,-8.884900093078613
1702217498624682800,44.43768286132813,-2.238999843597412,-0.8739999532699585,0.012600000016391277
1702217498684682800,44.49768286132812,1.083799958229065,-5.737400054931641,-2.2402000427246094
1702217498744682800,44.557682861328125,-2.886899948120117,-0.32259997725486755,1.6674998998641968
1702217498804682800,44.61768286132813,-3.386199951171875,1.5611000061035156,1.8915998935699463
1702217498864682800,44.67768286132812,-3.2858998775482178,2.0467000007629395,2.0135998725891113
1702217498924682800,44.737682861328125,-2.1117000579833984,3.48580002784729,5.154200077056885
1702217498984682800,44.79768286132813,3.916299819946289,2.342900037765503,-0.8307999968528748
1702217499044682800,44.85768286132812,0.026599999517202377,1.990799903869629,-5.678999900817871
1702217499104682800,44.917682861328124,1.5831999778747559,1.6175999641418457,0.08460000157356262
1702217499164682800,44.97768286132813,-3.291599988937378,-8.060699462890625,0.6456999778747559
1702217499224682800,45.03768286132812,-5.3069000244140625,-0.5956999659538269,-0.5358999967575073
1702217499284682800,45.097682861328124,-6.889199733734131,-2.9881999492645264,-3.081199884414673
1702217499344682800,45.15768286132813,2.0444998741149902,1.4490000009536743,0.8736000061035156
1702217499404682800,45.21768286132812,1.2209999561309814,0.4032999873161316,1.3996999263763428
1702217499464682800,45.277682861328124,-1.081399917602539,1.2141000032424927,-0.2612999975681305
1702217499524682800,45.337682861328126,0.6983000040054321,1.7043999433517456,-2.3787999153137207
1702217499584682800,45.39768286132813,1.7872999906539917,0.48330000042915344,-5.048999786376953
1702217499644682800,45.457682861328124,4.317599773406982,-1.0993999242782593,-2.119499921798706
1702217499704682800,45.517682861328126,-1.4128999710083008,-1.983699917793274,-5.116600036621094
1702217499764682800,45.57768286132813,9.80459976196289,0.28139999508857727,-0.9492999911308289
1702217499824682800,45.63768286132812,-1.8319000005722046,-3.055299997329712,-4.7769999504089355
1702217499884682800,45.697682861328126,-2.142400026321411,-3.725600004196167,-0.08699999749660492
1702217499944682800,45.75768286132813,-1.0197999477386475,0.41359999775886536,1.0185999870300293
1702217500004682800,45.81768286132812,-1.8430999517440796,1.7703999280929565,1.232699990272522
1702217500064682800,45.877682861328125,-3.142400026321411,2.109299898147583,2.2360999584198
1702217500124682800,45.93768286132813,-1.313499927520752,1.8768999576568604,5.819399833679199
1702217500184682800,45.99768286132812,1.5765999555587769,1.9292999505996704,0.870199978351593
1702217500244682800,46.057682861328125,1.2635999917984009,2.4839999675750732,-7.268299579620361
1702217500304682800,46.11768286132813,-0.7699999809265137,1.975600004196167,-1.1226999759674072
1702217500364682800,46.17768286132812,-1.1478999853134155,-5.746799945831299,-1.0966999530792236
1702217500424682800,46.237682861328125,-5.592599868774414,-3.391700029373169,3.2836999893188477
1702217500484682800,46.29768286132813,-7.593799591064453,0.4587000012397766,-1.0295000076293945
1702217500544682800,46.35768286132812,-3.7943999767303467,-1.4258999824523926,-3.836599826812744
1702217500604682800,46.417682861328124,9.706399917602539,0.6832999587059021,0.6970999836921692
1702217500664682800,46.47768286132813,-3.5820000171661377,0.5922999978065491,-1.3101999759674072
1702217500724682800,46.53768286132812,-0.024000000208616257,2.3894999027252197,-1.6175999641418457
1702217500784682800,46.597682861328124,0.5130000114440918,0.4587000012397766,-2.901399850845337
1702217500844682800,46.65768286132813,5.2841997146606445,-1.4829999208450317,-1.1622999906539917
1702217500904682800,46.71768286132812,-0.3479999899864197,-1.4200999736785889,-4.468199729919434
1702217500964682800,46.777682861328124,0.8380999565124512,2.605799913406372,-3.372299909591675
1702217501024682800,46.837682861328126,-2.3927998542785645,-5.053899765014648,-3.011399984359741
1702217501084682800,46.89768286132813,0.7547999620437622,-4.35890007019043,1.2906999588012695
1702217501144682800,46.957682861328124,-1.2596999406814575,0.8698999881744385,1.3797999620437622
1702217501204682800,47.017682861328126,-4.253600120544434,0.9303999543190002,2.183799982070923
1702217501264682800,47.07768286132813,-1.2426999807357788,2.629699945449829,3.2751998901367188
1702217501324682800,47.13768286132812,-1.737399935722351,1.996899962425232,3.6185998916625977
1702217501384682800,47.197682861328126,2.2679998874664307,3.6392998695373535,-1.084299921989441
1702217501444682800,47.25768286132813,-1.2271000146865845,2.4421000480651855,-8.521299362182617
1702217501504682800,47.31768286132812,0.979699969291687,-5.440399646759033,-0.8916999697685242
1702217501564682800,47.377682861328125,-6.320899963378906,-0.42080000042915344,6.284499645233154
1702217501624682800,47.43768286132813,-2.9773998260498047,-6.104099750518799,-2.0362000465393066
1702217501684682800,47.49768286132812,-4.577899932861328,-1.0090999603271484,-2.3197999000549316
1702217501744682800,47.557682861328125,-0.15230000019073486,1.4154999256134033,-0.6626999974250793
1702217501804682800,47.61768286132813,0.2360999882221222,1.108799934387207,2.045099973678589
1702217501864682800,47.67768286132812,0.39659997820854187,1.7793999910354614,-0.6455000042915344
1702217501924682800,47.737682861328125,0.27149999141693115,1.6634999513626099,-2.69569993019104
1702217501984682800,47.79768286132813,4.208899974822998,1.0090999603271484,-4.224400043487549
1702217502044682800,47.85768286132812,1.5396000146865845,-0.28450000286102295,-3.222899913787842
1702217502104682800,47.917682861328124,-0.13369999825954437,0.6139999628067017,-5.172399997711182
1702217502164682800,47.97768286132813,3.9938998222351074,-1.6816999912261963,-2.496299982070923
1702217502224682800,48.03768286132812,-3.059999942779541,-2.6554999351501465,-5.039499759674072
1702217502284682800,48.097682861328124,-1.2167999744415283,-5.493299961090088,-1.1865999698638916
1702217502344682800,48.15768286132813,0.31119999289512634,0.2029999941587448,0.8574999570846558
1702217502404682800,48.21768286132812,-3.887399911880493,2.0820000171661377,2.740799903869629
1702217502464682800,48.277682861328124,-3.7674999237060547,1.1608999967575073,1.9574999809265137
1702217502524682800,48.337682861328126,-2.06469988822937,2.2368998527526855,6.239799976348877
1702217502584682800,48.39768286132813,0.17809998989105225,3.481099843978882,1.9891999959945679
1702217502644682800,48.457682861328124,0.8991999626159668,3.660399913787842,-5.170899868011475
1702217502704682800,48.517682861328126,-5.983299732208252,-13.661399841308594,-11.394099235534668
1702217502764682800,48.57768286132813,-9.640299797058105,2.470599889755249,7.943999767303467
1702217502824682800,48.63768286132812,-4.209799766540527,-8.227499961853027,-6.1815996170043945
1702217502884682800,48.697682861328126,-2.2493999004364014,1.6811000108718872,0.42969998717308044
1702217502944682800,48.75768286132813,-1.0512999296188354,-0.1559000015258789,-0.4739999771118164
1702217503004682800,48.81768286132812,0.5489000082015991,2.158900022506714,-0.6448000073432922
1702217503064682800,48.877682861328125,-0.20329999923706055,1.480799913406372,-2.7983999252319336
1702217503124682800,48.93768286132813,0.06780000030994415,1.5794999599456787,-2.817499876022339
1702217503184682800,48.99768286132812,1.9143999814987183,0.5475000143051147,-1.976199984550476
1702217503244682800,49.057682861328125,4.560100078582764,0.1501999944448471,-2.098299980163574
1702217503304682800,49.11768286132813,1.0191999673843384,-1.3215999603271484,-2.2664999961853027
1702217503364682800,49.17768286132812,3.2983999252319336,-0.334199994802475,-5.8053998947143555
1702217503424682800,49.237682861328125,-0.7267000079154968,-0.6000999808311462,-4.336999893188477
1702217503484682800,49.29768286132813,-3.273099899291992,-3.1994998455047607,-2.365299940109253
1702217503544682800,49.35768286132812,0.0867999941110611,-1.694599986076355,-1.087399959564209
1702217503604682800,49.417682861328124,-2.5214998722076416,1.1582000255584717,0.8039999604225159
1702217503664682800,49.47768286132813,-1.3889999389648438,0.8489999771118164,1.9996999502182007
1702217503724682800,49.53768286132812,-2.1773998737335205,1.4251999855041504,5.455399990081787
1702217503784682800,49.597682861328124,-0.9405999779701233,1.7547999620437622,4.405299663543701
1702217503844682800,49.65768286132813,3.690699815750122,0.8942999839782715,-7.350800037384033
1702217503904682800,49.71768286132812,0.26260000467300415,3.873199939727783,-5.225100040435791
1702217503964682800,49.777682861328124,-3.810499906539917,0.9294999837875366,1.423699975013733
1702217504024682800,49.837682861328126,-4.122999668121338,-6.052000045776367,0.36389997601509094
1702217504084682800,49.89768286132813,-1.3700000047683716,-1.1553999185562134,2.721599817276001
1702217504144682800,49.957682861328124,-4.088200092315674,-2.323499917984009,-1.1869999170303345
1702217504204682800,50.017682861328126,0.025100000202655792,2.1638998985290527,-2.1405999660491943
1702217504264682800,50.07768286132813,1.868399977684021,1.298799991607666,1.0475000143051147
1702217504324682800,50.13768286132812,0.311599999666214,0.816100001335144,-1.6953999996185303
1702217504384682800,50.197682861328126,0.7106999754905701,0.7872999906539917,-2.670300006866455
1702217504444682800,50.25768286132813,3.8314998149871826,-0.43219998478889465,-4.3805999755859375
1702217504504682800,50.31768286132812,2.3828999996185303,-1.5519999265670776,-2.729599952697754
1702217504564709400,50.37770947265625,-0.32979997992515564,-3.666299819946289,-3.8178999423980713
1702217504624682800,50.43768286132813,7.314999580383301,0.17459999024868011,-3.2109999656677246
1702217504684682800,50.49768286132812,-2.5381999015808105,-4.866300106048584,-1.1208999156951904
1702217504744682800,50.557682861328125,-0.6574000120162964,-1.654099941253662,2.976300001144409
1702217504804682800,50.61768286132813,-1.7695999145507812,2.359999895095825,1.2788000106811523
1702217504864682800,50.67768286132812,-2.873999834060669,2.6810998916625977,-0.977400004863739
1702217504924682800,50.737682861328125,-2.527899980545044,2.474799871444702,5.33459997177124
1702217504984682800,50.79768286132813,-0.8871999979019165,3.745299816131592,5.186699867248535
1702217505044682800,50.85768286132812,1.9194999933242798,1.9612998962402344,-6.467299938201904
1702217505104682800,50.917682861328124,4.44189977645874,-5.180999755859375,-11.877099990844727
1702217505164682800,50.97768286132813,-1.798699975013733,-0.9757999777793884,11.622200012207031
1702217505224682800,51.03768286132812,-5.632099628448486,3.4021999835968018,2.031100034713745
1702217505284682800,51.097682861328124,9.48069953918457,-10.856999397277832,-12.468400001525879
1702217505344682800,51.15768286132813,-7.417500019073486,3.1541998386383057,2.2723000049591064
1702217505404682800,51.21768286132812,1.157099962234497,-1.691100001335144,-2.7583999633789062
1702217505464682800,51.277682861328124,1.034500002861023,2.0922999382019043,-1.2840999364852905
1702217505524682800,51.337682861328126,0.3154999911785126,-0.011599999852478504,-1.0468000173568726
1702217505584682800,51.39768286132813,2.057499885559082,2.4593000411987305,-0.33649998903274536
1702217505644682800,51.457682861328124,2.9113998413085938,-2.7221999168395996,-2.6410000324249268
1702217505704682800,51.517682861328126,-1.2278000116348267,-2.614500045776367,-4.5843000411987305
1702217505764682800,51.57768286132813,5.417200088500977,0.3197000026702881,-3.714200019836426
1702217505824682800,51.63768286132812,-0.7944999933242798,-2.6970999240875244,-4.5208001136779785
1702217505884682800,51.697682861328126,-3.5787999629974365,-2.9072999954223633,1.483699917793274
1702217505944682800,51.75768286132813,0.9976999759674072,0.5051999688148499,-0.5091999769210815
1702217506004682800,51.81768286132812,-3.9323999881744385,1.0749000310897827,1.1700999736785889
1702217506064682800,51.877682861328125,-1.535599946975708,1.8601999282836914,-0.703499972820282
1702217506124682800,51.93768286132813,-2.6507999897003174,2.0586998462677,5.325599670410156
1702217506184682800,51.99768286132812,0.38839998841285706,2.4911999702453613,4.780999660491943
1702217506244682800,52.057682861328125,2.967599868774414,1.923799991607666,-8.308099746704102
1702217506304682800,52.11768286132813,-0.9727999567985535,-1.3608999252319336,-7.779899597167969
1702217506364682800,52.17768286132812,7.446099758148193,-0.47859999537467957,5.767199993133545
1702217506424682800,52.237682861328125,-4.082099914550781,-3.4323999881744385,3.455199956893921
1702217506484682800,52.29768286132813,-3.0864999294281006,-5.5843000411987305,-1.4126999378204346
1702217506544682800,52.35768286132812,1.2178000211715698,1.940999984741211,0.2368999868631363
1702217506604682800,52.417682861328124,-1.018399953842163,1.639299988746643,-3.0401999950408936
1702217506664682800,52.47768286132813,0.09829999506473541,1.9708999395370483,-2.363499879837036
1702217506724682800,52.53768286132812,1.2213000059127808,1.2595999240875244,-2.1678998470306396
1702217506784682800,52.597682861328124,0.37779998779296875,1.2003999948501587,-1.6039999723434448
1702217506844682800,52.65768286132813,2.0451998710632324,-1.4776999950408936,-3.819999933242798
1702217506904682800,52.71768286132812,2.538100004196167,-0.8043999671936035,-1.104699969291687
1702217506964682800,52.777682861328124,2.65939998626709,-4.637499809265137,-5.117000102996826
1702217507024682800,52.837682861328126,-2.61329984664917,-0.39569997787475586,-2.42579984664917
1702217507084682800,52.89768286132813,-0.5145999789237976,-4.271699905395508,-1.1243000030517578
1702217507144682800,52.957682861328124,-1.9241999387741089,0.14469999074935913,0.1850000023841858
1702217507204682800,53.017682861328126,-2.536799907684326,2.762199878692627,1.9686999320983887
1702217507264682800,53.07768286132813,-2.8980000019073486,2.0759999752044678,1.1205999851226807
1702217507324682800,53.13768286132812,-2.0985000133514404,3.0957000255584717,6.127199649810791
1702217507384682800,53.197682861328126,8.201799392700195,2.4410998821258545,-3.4158999919891357
1702217507444682800,53.25768286132813,-0.7275999784469604,4.922100067138672,-1.2746999263763428
1702217507504682800,53.31768286132812,2.8917999267578125,-5.7423996925354,-2.868799924850464
1702217507564682800,53.377682861328125,-6.243799686431885,-0.9806999564170837,2.925999879837036
1702217507624682800,53.43768286132813,-3.19789981842041,-3.538100004196167,-1.2839000225067139
1702217507684682800,53.49768286132812,-2.6731998920440674,-1.9017999172210693,-0.9574999809265137
1702217507744682800,53.557682861328125,-0.2061000019311905,0.4242999851703644,1.4816999435424805
1702217507804682800,53.61768286132813,-0.1996999979019165,0.6559999585151672,1.3514000177383423
1702217507864682800,53.67768286132812,-0.3084999918937683,1.742799997329712,-2.857100009918213
1702217507924682800,53.737682861328125,-0.1768999993801117,2.5123000144958496,-1.26419997215271
1702217507984682800,53.79768286132813,2.951900005340576,-0.3446999788284302,-2.5441999435424805
1702217508044682800,53.85768286132812,4.01800012588501,-1.0927000045776367,-1.7578999996185303
1702217508104682800,53.917682861328124,-1.1419999599456787,-0.12309999763965607,-3.4979000091552734
1702217508164682800,53.97768286132813,0.6283000111579895,-0.18529999256134033,-5.950099945068359
1702217508224682800,54.03768286132812,-3.1266000270843506,-1.7222999334335327,-3.3355000019073486
1702217508284682800,54.097682861328124,-0.6694999933242798,-2.2841999530792236,-2.948499917984009
1702217508344682800,54.15768286132813,-3.1893999576568604,-0.7328000068664551,0.6847000122070312
1702217508404682800,54.21768286132812,-1.4680999517440796,0.3568999767303467,-0.5209999680519104
1702217508464682800,54.277682861328124,-3.182799816131592,0.5512999892234802,1.5626999139785767
1702217508524682800,54.337682861328126,-2.665599822998047,1.2836999893188477,6.22689962387085
1702217508584682800,54.39768286132813,-1.312399983406067,3.586099863052368,6.93779993057251
1702217508644682800,54.457682861328124,1.2067999839782715,5.3572998046875,-6.9166998863220215
1702217508704682800,54.517682861328126,1.1119999885559082,-1.8348000049591064,-2.6013998985290527
1702217508764682800,54.57768286132813,-9.204899787902832,-4.838500022888184,-0.12939999997615814
1702217508824682800,54.63768286132812,-5.554299831390381,-0.46889999508857727,-2.045099973678589
1702217508884682800,54.697682861328126,-1.816999912261963,-3.084399938583374,-2.327399969100952
1702217508944682800,54.75768286132813,-1.9186999797821045,0.7256999611854553,1.4817999601364136
1702217509004682800,54.81768286132812,-0.07569999992847443,1.559499979019165,-0.4461999833583832
1702217509064682800,54.877682861328125,-0.08859999477863312,1.5899999141693115,-2.4054999351501465
1702217509124682800,54.93768286132813,1.4743999242782593,1.4709999561309814,-2.204400062561035
1702217509184682800,54.99768286132812,0.16979999840259552,1.757599949836731,-2.340100049972534
1702217509244682800,55.057682861328125,2.293299913406372,0.22219999134540558,-1.6352999210357666
1702217509304682800,55.11768286132813,5.490599632263184,-1.7797999382019043,-3.9255998134613037
1702217509364682800,55.17768286132812,0.36569997668266296,-2.7976999282836914,-7.090999603271484
1702217509424682800,55.237682861328125,1.15339994430542,-0.054899998009204865,-5.906799793243408
1702217509484682800,55.29768286132813,-5.3678998947143555,-4.588500022888184,-0.2557999789714813
1702217509544682800,55.35768286132812,4.462899684906006,-5.271699905395508,0.1233999952673912
1702217509604682800,55.417682861328124,-4.972599983215332,1.0389000177383423,3.9211997985839844
1702217509664682800,55.47768286132813,-2.4535000324249268,2.421599864959717,1.6592999696731567
1702217509724682800,55.53768286132812,-3.6123998165130615,3.3183999061584473,3.7054998874664307
1702217509784682800,55.597682861328124,-1.2188999652862549,3.8531999588012695,3.8417999744415283
1702217509844682800,55.65768286132813,6.082699775695801,0.9110999703407288,-10.55459976196289
1702217509904682800,55.71768286132812,0.017899999395012856,1.2940999269485474,-3.812299966812134
1702217509964682800,55.777682861328124,-3.6058998107910156,-2.5493998527526855,7.498499870300293
1702217510024682800,55.837682861328126,2.65939998626709,-9.798500061035156,-5.950799942016602
1702217510084682800,55.89768286132813,-8.513299942016602,2.3178999423980713,0.3552999794483185
1702217510144682800,55.957682861328124,-4.505099773406982,-1.5331999063491821,-5.6992998123168945
1702217510204682800,56.017682861328126,1.559399962425232,3.319700002670288,0.4235000014305115
1702217510264682800,56.07768286132813,0.8319000005722046,-0.24069999158382416,0.6686999797821045
1702217510324682800,56.13768286132812,0.3155999779701233,1.680799961090088,-0.4795999825000763
1702217510384682800,56.197682861328126,0.7834999561309814,-0.3646000027656555,-2.0154998302459717
1702217510444682800,56.25768286132813,1.4714999198913574,0.11749999970197678,-2.9739999771118164
1702217510504682800,56.31768286132812,2.9905998706817627,-1.6710000038146973,-2.6719000339508057
1702217510564682800,56.377682861328125,0.9735999703407288,0.03819999843835831,-4.7820000648498535
1702217510624682800,56.43768286132813,-1.0729999542236328,2.434000015258789,-4.888599872589111
1702217510684682800,56.49768286132812,-1.5727999210357666,-1.7437999248504639,-3.5525999069213867
1702217510744682800,56.557682861328125,0.5388999581336975,-4.855999946594238,-0.3971000015735626
1702217510804682800,56.61768286132813,-3.2624998092651367,-0.03969999775290489,1.330199956893921
1702217510864682800,56.67768286132812,-1.2160999774932861,1.9860999584197998,-3.0016000270843506
1702217510924682800,56.737682861328125,-3.7087998390197754,1.3502999544143677,5.143199920654297
1702217510984682800,56.79768286132813,-1.7130999565124512,4.02839994430542,9.296699523925781
1702217511044682800,56.85768286132812,1.517300009727478,2.8625998497009277,-4.547299861907959
1702217511104682800,56.917682861328124,2.5276999473571777,-2.1591999530792236,-8.030099868774414
1702217511164682800,56.97768286132813,-3.2610998153686523,-1.5870000123977661,6.184999942779541
1702217511224682800,57.03768286132812,7.569599628448486,1.38919997215271,2.1492998600006104
1702217511284682800,57.097682861328124,-2.8710999488830566,-7.975399971008301,-2.9423999786376953
1702217511344682800,57.15768286132813,-5.239899635314941,0.934499979019165,-1.6231999397277832
1702217511404682800,57.21768286132812,-0.8816999793052673,1.2532999515533447,-1.5992000102996826
1702217511464682800,57.277682861328124,1.4229999780654907,0.9120999574661255,1.4071999788284302
1702217511524682800,57.337682861328126,3.103799819946289,0.8934999704360962,0.8330000042915344
1702217511584682800,57.39768286132813,-0.34869998693466187,1.643899917602539,-3.204699993133545
1702217511644682800,57.457682861328124,-0.18539999425411224,2.9163999557495117,-2.0737998485565186
1702217511704682800,57.517682861328126,5.141299724578857,-2.787899971008301,-4.864099979400635
1702217511764682800,57.57768286132813,-0.04339999705553055,-1.240399956703186,-6.182499885559082
1702217511824682800,57.63768286132812,7.216599941253662,0.9436999559402466,-3.3381998538970947
1702217511884682800,57.697682861328126,-5.97689962387085,0.691100001335144,-6.310999870300293
1702217511944682800,57.75768286132813,2.711899995803833,-6.929699897766113,1.1561999320983887
1702217512004682800,57.81768286132812,0.3278000056743622,-2.3135998249053955,3.470899820327759
1702217512064682800,57.877682861328125,-4.394499778747559,3.152400016784668,2.3279998302459717
1702217512124682800,57.93768286132813,-3.0003998279571533,3.061800003051758,1.1209999322891235
1702217512184682800,57.99768286132812,-2.427500009536743,3.0790998935699463,6.7729997634887695
1702217512244682800,58.057682861328125,6.617599964141846,-0.34540000557899475,-7.257299900054932
1702217512304682800,58.11768286132813,0.021800000220537186,3.88319993019104,-3.887899875640869
1702217512364682800,58.17768286132812,1.6277999877929688,-5.446300029754639,-5.928499698638916
1702217512424682800,58.237682861328125,-7.435199737548828,-2.957399845123291,9.446700096130371
1702217512484682800,58.29768286132813,-0.3407000005245209,-4.243799686431885,0.8580999970436096
1702217512544682800,58.35768286132812,-4.557499885559082,-0.9659000039100647,-2.8544998168945312
1702217512604682800,58.417682861328124,0.038599997758865356,3.7480998039245605,0.9783999919891357
1702217512664682800,58.47768286132813,0.8959999680519104,0.5550000071525574,-0.42659997940063477
1702217512724682800,58.53768286132812,0.8809999823570251,1.8150999546051025,-1.7324999570846558
1702217512784682800,58.597682861328124,-0.5788999795913696,2.5327999591827393,-3.19599986076355
1702217512844682800,58.65768286132813,0.9835000038146973,1.2747999429702759,-4.925999641418457
1702217512904682800,58.71768286132812,3.4355998039245605,-2.6930999755859375,-2.6255998611450195
1702217512964682800,58.777682861328124,-0.08609999716281891,-4.0615997314453125,-2.5139000415802
1702217513024682800,58.837682861328126,9.218799591064453,-0.36649999022483826,-8.191499710083008
1702217513084682800,58.89768286132813,-3.3282999992370605,0.03669999912381172,-2.604099988937378
1702217513144682800,58.957682861328124,-0.7680999636650085,-2.7451999187469482,0.282399982213974
1702217513204682800,59.017682861328126,-2.097100019454956,-0.21249999105930328,1.9809999465942383
1702217513264682800,59.07768286132813,-3.1267998218536377,2.352799892425537,1.586300015449524
1702217513324682800,59.13768286132812,-4.035999774932861,2.859299898147583,2.865000009536743
1702217513384682800,59.197682861328126,1.1698999404907227,2.84060001373291,4.627199649810791
1702217513444682800,59.25768286132813,0.0011999999405816197,-1.249400019645691,-7.118299961090088
1702217513504682800,59.31768286132812,1.560499906539917,0.17109999060630798,-4.3668999671936035
1702217513564682800,59.377682861328125,1.372399926185608,-3.7117998600006104,6.45389986038208
1702217513624682800,59.43768286132813,-4.01609992980957,-4.53909969329834,-0.14010000228881836
1702217513684682800,59.49768286132812,-2.593899965286255,-1.8801000118255615,-0.6588999629020691
1702217513744682800,59.557682861328125,-2.6589999198913574,0.7428999543190002,-0.44609999656677246
1702217513804682800,59.61768286132813,0.21169999241828918,2.3459999561309814,-0.7554999589920044
1702217513864682800,59.67768286132812,-0.03519999980926514,2.123800039291382,-1.5800999402999878
1702217513924682800,59.737682861328125,0.7168999910354614,1.1977999210357666,-3.2056000232696533
1702217513984682800,59.79768286132813,2.597899913787842,1.1996999979019165,-2.0852999687194824
1702217514044682800,59.85768286132812,1.9435999393463135,0.9341999888420105,-1.118499994277954
1702217514104682800,59.917682861328124,0.7602999806404114,-0.8075000047683716,-1.9089999198913574
1702217514164682800,59.97768286132813,-1.5650999546051025,-0.004299999680370092,-4.815000057220459
1702217514224682800,60.03768286132812,0.6342999935150146,-0.8788999915122986,-8.17080020904541
1702217514284682800,60.097682861328124,-2.0882999897003174,-3.835099935531616,-2.8364999294281006
1702217514344682800,60.15768286132813,0.8226999640464783,-5.675999641418457,1.013100028038025
1702217514404682800,60.21768286132812,-2.4293999671936035,0.6568999886512756,0.35989999771118164
1702217514464682800,60.277682861328124,-3.885499954223633,3.8997998237609863,-0.22129999101161957
1702217514524682800,60.337682861328126,-4.792699813842773,1.9530999660491943,3.4326000213623047
1702217514584682800,60.39768286132813,-0.8619999885559082,1.923799991607666,7.858199596405029
1702217514644682800,60.457682861328124,0.8422999978065491,0.9594999551773071,-6.678499698638916
1702217514704682800,60.517682861328126,2.7941999435424805,3.5223000049591064,-3.2911999225616455
1702217514764682800,60.57768286132813,-2.8957998752593994,-3.203699827194214,-2.23009991645813
1702217514824682800,60.63768286132812,-4.9888997077941895,-2.6514999866485596,5.143199920654297
1702217514884682800,60.697682861328126,-3.1649999618530273,-5.06879997253418,-2.351099967956543
1702217514944682800,60.75768286132813,-2.1152000427246094,1.1346999406814575,-3.845399856567383
1702217515004682800,60.81768286132812,-0.8682999610900879,0.7856999635696411,-0.6489999890327454
1702217515064682800,60.877682861328125,-0.49059998989105225,1.5471999645233154,0.5864999890327454
1702217515124682800,60.93768286132813,-0.09309999644756317,1.2767000198364258,-2.178499937057495
1702217515184682800,60.99768286132812,0.6459999680519104,1.5321999788284302,-2.0952000617980957
1702217515244682800,61.057682861328125,2.776899814605713,0.20789998769760132,-0.8636999726295471
1702217515304682800,61.11768286132813,1.9549999237060547,-0.7318999767303467,-6.1255998611450195
1702217515364682800,61.17768286132812,1.139699935913086,-1.0537999868392944,-5.612499713897705
1702217515424682800,61.237682861328125,1.2461999654769897,-2.3248000144958496,-5.171199798583984
1702217515484682800,61.29768286132813,-0.8109999895095825,-2.5787999629974365,-3.5605998039245605
1702217515544682800,61.35768286132812,-3.164099931716919,-2.3090999126434326,0.9876999855041504
1702217515604682800,61.417682861328124,-5.041299819946289,1.5195000171661377,-0.9562999606132507
1702217515664682800,61.47768286132813,-4.144099712371826,0.705299973487854,-1.5799999237060547
1702217515724682800,61.53768286132812,-4.026099681854248,1.104599952697754,8.39989948272705
1702217515784682800,61.597682861328124,-2.3977999687194824,4.1321001052856445,9.555699348449707
1702217515844682800,61.65768286132813,2.8678998947143555,3.6706998348236084,-11.00719928741455
1702217515904682800,61.71768286132812,-1.6394000053405762,-1.3615999221801758,-7.504499912261963
1702217515964682800,61.777682861328124,0.11620000004768372,-10.353599548339844,-0.6287999749183655
1702217516024682800,61.837682861328126,-5.375999927520752,-1.069100022315979,4.405299663543701
1702217516084682800,61.89768286132813,-4.267499923706055,-1.8030999898910522,1.8923999071121216
1702217516144682800,61.957682861328124,-3.194000005722046,0.6286999583244324,-1.5561999082565308
1702217516204682800,62.017682861328126,4.687699794769287,1.6969999074935913,-2.846799850463867
1702217516264682800,62.07768286132813,-1.8140000104904175,1.6124999523162842,-1.9627999067306519
1702217516324682800,62.13768286132812,-0.12690000236034393,0.4772999882698059,-2.8645999431610107
1702217516384682800,62.197682861328126,2.0418999195098877,-1.8377000093460083,-3.0149998664855957
1702217516444682800,62.25768286132813,4.659800052642822,-1.503499984741211,-2.5648000240325928
1702217516504682800,62.31768286132812,-1.091599941253662,-0.7114999890327454,-4.315400123596191
1702217516564682800,62.377682861328125,4.5320000648498535,-0.4878999888896942,-4.314899921417236
1702217516624682800,62.43768286132813,-4.418699741363525,-3.659600019454956,-0.6699999570846558
1702217516684682800,62.49768286132812,0.9126999974250793,-3.7562999725341797,-1.3690999746322632
1702217516744682800,62.557682861328125,-4.309199810028076,1.6679999828338623,-0.49379998445510864
1702217516804682800,62.61768286132813,-4.049999713897705,2.293799877166748,0.536899983882904
1702217516864682800,62.67768286132812,-3.9460999965667725,3.586899995803833,3.6803998947143555
1702217516924682800,62.737682861328125,0.5342999696731567,3.0253000259399414,4.50439977645874
1702217516984682800,62.79768286132813,5.192899703979492,-2.1536998748779297,-8.030399322509766
1702217517044682800,62.85768286132812,-1.0273000001907349,4.587100028991699,-2.0485999584198
1702217517104682800,62.917682861328124,-0.6187999844551086,-15.171899795532227,-8.30519962310791
1702217517164682800,62.97768286132813,-8.531099319458008,3.6830999851226807,9.381999969482422
1702217517224682800,63.03768286132812,-0.37860000133514404,-3.1252999305725098,-3.069499969482422
1702217517284682800,63.097682861328124,-4.5204997062683105,-1.327199935913086,-1.9901999235153198
1702217517344682800,63.15768286132813,0.5940999984741211,1.5066999197006226,3.060499906539917
1702217517404682800,63.21768286132812,1.6413999795913696,0.0007999999797903001,-0.19900000095367432
1702217517464682800,63.277682861328124,-0.6371999979019165,1.8880999088287354,-1.9322999715805054
1702217517524682800,63.337682861328126,0.3019999861717224,1.8947999477386475,-4.437699794769287
1702217517584682800,63.39768286132813,3.2372000217437744,0.663599967956543,-4.746399879455566
1702217517644682800,63.457682861328124,0.8438999652862549,-0.4342999756336212,-1.7131999731063843
1702217517704682800,63.517682861328126,2.2425999641418457,-2.1257998943328857,-5.573800086975098
1702217517764682800,63.57768286132813,-4.185499668121338,0.2538999915122986,-2.474400043487549
1702217517824682800,63.63768286132812,0.5090000033378601,-6.058700084686279,-5.085299968719482
1702217517884682800,63.697682861328126,-3.467599868774414,-1.3805999755859375,2.1675000190734863
1702217517944682800,63.75768286132813,-3.027599811553955,1.1754000186920166,1.409999966621399
1702217518004682800,63.81768286132812,-3.8509998321533203,2.81499981880188,1.956299901008606
1702217518064682800,63.877682861328125,-3.815699815750122,2.107800006866455,3.1949000358581543
1702217518124682800,63.93768286132813,1.4300999641418457,3.2335000038146973,2.4022998809814453
1702217518184682800,63.99768286132812,0.9134999513626099,0.7626999616622925,-7.220699787139893
1702217518244682800,64.05768286132812,-4.530600070953369,4.875199794769287,0.731499969959259
1702217518304682800,64.11768286132812,-2.2054998874664307,-2.1643998622894287,-1.6794999837875366
1702217518364682800,64.17768286132812,11.760499954223633,-11.601799964904785,3.589399814605713
1702217518424682800,64.23768286132812,-6.412999629974365,1.1317999362945557,4.678400039672852
1702217518484682800,64.29768286132813,-4.476099967956543,-0.911300003528595,-1.2929999828338623
1702217518544682800,64.35768286132813,6.1352996826171875,1.2822999954223633,-0.42549997568130493
1702217518604682800,64.41768286132813,-1.3849999904632568,1.0044000148773193,-2.196199893951416
1702217518664682800,64.47768286132812,-0.20469999313354492,2.637899875640869,-1.0744999647140503
1702217518724682800,64.53768286132812,-0.48969998955726624,1.3113999366760254,-2.748199939727783
1702217518784682800,64.59768286132812,5.915299892425537,-1.9616999626159668,-6.396999835968018
1702217518844682800,64.65768286132813,-1.3604999780654907,-0.4107999801635742,-2.169100046157837
1702217518904682800,64.71768286132813,1.2299000024795532,-0.5500999689102173,-3.5226998329162598
1702217518964682800,64.77768286132813,0.6032999753952026,0.39640000462532043,-6.199599742889404
1702217519024682800,64.83768286132812,-5.779299736022949,-2.1422998905181885,-2.563999891281128
1702217519084682800,64.89768286132812,1.9660999774932861,-5.837399959564209,-0.6438999772071838
1702217519144682800,64.95768286132812,-3.710899829864502,0.3836999833583832,3.100100040435791
1702217519204682800,65.01768286132813,-3.5739998817443848,1.9057999849319458,0.5455999970436096
1702217519264682800,65.07768286132813,-4.5528998374938965,2.8289999961853027,4.363999843597412
1702217519324682800,65.13768286132813,-1.6227999925613403,3.917099952697754,5.492199897766113
1702217519384682800,65.19768286132812,2.699899911880493,-0.6581999659538269,-8.642099380493164
1702217519444682800,65.25768286132812,1.257699966430664,-1.6281999349594116,-6.017699718475342
1702217519504682800,65.31768286132812,0.5620999932289124,-1.3344999551773071,7.190499782562256
1702217519564709400,65.37770947265625,-1.796299934387207,-2.716099977493286,-4.37470006942749
1702217519624682800,65.43768286132813,-4.734699726104736,0.22339999675750732,-1.6416999101638794
1702217519684682800,65.49768286132813,-2.7181999683380127,-1.716599941253662,-1.7532999515533447
1702217519744682800,65.55768286132812,-0.554099977016449,0.7940999865531921,-0.4122999906539917
1702217519804682800,65.61768286132812,-0.7130999565124512,1.6929999589920044,0.05329999700188637
1702217519864682800,65.67768286132812,0.6096999645233154,1.5916999578475952,-2.0850000381469727
1702217519924682800,65.73768286132812,-0.7321999669075012,1.784500002861023,-2.7331998348236084
1702217519984682800,65.79768286132813,6.506899833679199,2.787299871444702,-0.5181999802589417
1702217520044682800,65.85768286132813,-1.9813998937606812,0.5493999719619751,-1.1845999956130981
1702217520104682800,65.91768286132813,2.9069998264312744,-2.4213998317718506,-11.437299728393555
1702217520164682800,65.97768286132812,-0.9199999570846558,0.7620999813079834,-5.963799953460693
1702217520224682800,66.03768286132812,-3.571899890899658,-6.9191999435424805,-0.8046999573707581
1702217520284682800,66.09768286132812,1.4435999393463135,-2.9164998531341553,0.9793999791145325
1702217520344682800,66.15768286132813,-3.3447999954223633,1.1470999717712402,3.0336999893188477
1702217520404682800,66.21768286132813,-5.49970006942749,2.9248998165130615,0.5608999729156494
1702217520464682800,66.27768286132813,-5.508999824523926,4.072400093078613,5.9390997886657715
1702217520524682800,66.33768286132812,-1.2163000106811523,3.822499990463257,3.941499948501587
1702217520584682800,66.39768286132812,7.744999885559082,-1.2573000192642212,-6.427099704742432
1702217520644682800,66.45768286132812,-8.765299797058105,-4.527299880981445,-0.8018999695777893
1702217520704682800,66.51768286132813,-10.089499473571777,3.75249981880188,6.7764997482299805
1702217520764682800,66.57768286132813,16.864500045776367,-12.030900001525879,-12.514800071716309
1702217520824682800,66.63768286132813,-11.412799835205078,3.116299867630005,3.523899793624878
1702217520884682800,66.69768286132812,2.2239999771118164,-1.851599931716919,-12.0556001663208
1702217520944682800,66.75768286132812,-4.0169997215271,2.211599826812744,1.379499912261963
1702217521004682800,66.81768286132812,1.0078999996185303,-1.490399956703186,0.7788999676704407
1702217521064682800,66.87768286132813,2.8892998695373535,0.8885999917984009,0.953499972820282
1702217521124682800,66.93768286132813,1.3187999725341797,-0.23569999635219574,-6.022199630737305
1702217521184682800,66.99768286132813,3.3200998306274414,-0.710099995136261,-7.4156999588012695
1702217521244682800,67.05768286132812,-1.0448999404907227,-2.6487998962402344,-3.5376999378204346
1702217521304682800,67.11768286132812,0.8310999870300293,-7.18149995803833,-0.8089999556541443
1702217521364682800,67.17768286132812,-1.7903000116348267,-3.321699857711792,1.9387999773025513
1702217521424682800,67.23768286132812,-1.6096999645233154,2.128499984741211,-0.5029999613761902
1702217521484682800,67.29768286132813,-4.43149995803833,3.648399829864502,2.297999858856201
1702217521544682800,67.35768286132813,-3.309499979019165,3.655099868774414,5.559299945831299
1702217521604682800,67.41768286132813,-0.9624999761581421,2.768199920654297,3.6713998317718506
1702217521664682800,67.47768286132812,6.424900054931641,-0.041999999433755875,-10.894800186157227
1702217521724682800,67.53768286132812,-3.553799867630005,5.950500011444092,-2.944000005722046
1702217521784682800,67.59768286132812,11.055500030517578,-10.195199966430664,-7.415999889373779
1702217521844682800,67.65768286132813,-5.214399814605713,0.08399999886751175,5.561800003051758
1702217521904682800,67.71768286132813,-5.7164998054504395,-1.399999976158142,0.6951999664306641
1702217521964682800,67.77768286132813,-4.069799900054932,-1.6283999681472778,-3.984099864959717
1702217522024682800,67.83768286132812,1.7937999963760376,0.8297999501228333,2.109299898147583
1702217522084682800,67.89768286132812,-0.36559998989105225,1.3234999179840088,0.35339999198913574
1702217522144682800,67.95768286132812,-0.6363999843597412,2.2263998985290527,-2.113999843597412
1702217522204682800,68.01768286132813,2.9735000133514404,1.0799999237060547,-3.608599901199341
1702217522264682800,68.07768286132813,1.3387999534606934,-1.6837999820709229,-3.5642998218536377
1702217522324682800,68.13768286132813,-0.19509999454021454,-1.591399908065796,-4.3445000648498535
1702217522384682800,68.19768286132812,9.024999618530273,-1.0906000137329102,-1.2964999675750732
1702217522444682800,68.25768286132812,-5.028500080108643,-1.1800999641418457,-4.8919997215271
1702217522504682800,68.31768286132812,0.9352999925613403,-3.774399995803833,-3.2244999408721924
1702217522564682800,68.37768286132813,-1.40749990940094,-2.8815999031066895,2.456699848175049
1702217522624682800,68.43768286132813,-4.329999923706055,1.940999984741211,0.9425999522209167
1702217522684682800,68.49768286132813,-3.576900005340576,3.608299970626831,1.1332999467849731
1702217522744682800,68.55768286132812,-3.461899995803833,3.546799898147583,4.426599979400635
1702217522804682800,68.61768286132812,3.250499963760376,4.1566996574401855,-2.2819998264312744
1702217522864682800,68.67768286132812,-0.30969998240470886,2.1277999877929688,-6.294600009918213
1702217522924682800,68.73768286132812,-4.1809000968933105,-6.919299602508545,-1.4696999788284302
1702217522984682800,68.79768286132813,-10.121099472045898,0.23799999058246613,5.028299808502197
1702217523044682800,68.85768286132813,1.8711999654769897,-8.263899803161621,-8.138699531555176
1702217523104682800,68.91768286132813,-5.139599800109863,1.360700011253357,2.4047000408172607
1702217523164682800,68.97768286132812,-0.5212000012397766,-0.72079998254776,-1.132699966430664
1702217523224682800,69.03768286132812,-0.8083999752998352,1.8779999017715454,-0.731499969959259
1702217523284682800,69.09768286132812,-1.2517999410629272,2.2602999210357666,-3.573899984359741
1702217523344682800,69.15768286132813,-1.6068999767303467,2.666100025177002,-4.147500038146973
1702217523404682800,69.21768286132813,3.9995999336242676,0.859499990940094,-1.7211999893188477
1702217523464682800,69.27768286132813,0.6798999905586243,-1.378600001335144,-1.4230999946594238
1702217523524682800,69.33768286132812,-0.6610999703407288,-0.3977999985218048,-3.1085000038146973
1702217523584682800,69.39768286132812,2.5957999229431152,-0.5160999894142151,-6.735699653625488
1702217523644751400,69.45775146484375,2.554299831390381,-0.526199996471405,-4.50469970703125
1702217523704682800,69.51768286132813,-5.383199691772461,-1.7360999584197998,-4.589900016784668
1702217523764682800,69.57768286132813,0.6584999561309814,-2.3167998790740967,-1.5511000156402588
1702217523824682800,69.63768286132813,-4.872799873352051,0.17329999804496765,4.334799766540527
1702217523884682800,69.69768286132812,-3.3715999126434326,2.921099901199341,2.5657999515533447
1702217523944682800,69.75768286132812,-3.389400005340576,3.3808999061584473,4.0518999099731445
1702217524004682800,69.81768286132812,3.4014999866485596,1.7925999164581299,-6.548299789428711
1702217524064682800,69.87768286132813,1.5263999700546265,4.910299777984619,1.602199912071228
1702217524124682800,69.93768286132813,-2.6649999618530273,-10.102899551391602,-6.359399795532227
1702217524184682800,69.99768286132813,-5.9654998779296875,0.9909999966621399,3.648599863052368
1702217524244682800,70.05768286132812,-2.0999999046325684,-4.1377997398376465,-2.8927998542785645
1702217524304682800,70.11768286132812,-2.546599864959717,1.352199912071228,-0.42289999127388
1702217524364682800,70.17768286132812,-0.9721999764442444,0.4616999924182892,-0.1777999997138977
1702217524424682800,70.23768286132812,1.7781999111175537,2.0116000175476074,-0.8580999970436096
1702217524484682800,70.29768286132813,1.40339994430542,1.6308999061584473,-1.3381999731063843
1702217524544682800,70.35768286132813,-1.6440999507904053,1.2695999145507812,-1.6804999113082886
1702217524604682800,70.41768286132813,2.3013999462127686,-0.8755999803543091,-3.6992998123168945
1702217524664682800,70.47768286132812,4.197299957275391,-1.8453999757766724,-0.2854999899864197
1702217524724682800,70.53768286132812,-1.6739999055862427,-3.052999973297119,-6.196599960327148
1702217524784682800,70.59768286132812,6.32889986038208,2.7807998657226562,-3.833099842071533
1702217524844682800,70.65768286132813,-2.2605998516082764,-1.0127999782562256,-3.4022998809814453
1702217524904682800,70.71768286132813,-1.0161999464035034,-0.7224000096321106,-0.46050000190734863
1702217524964682800,70.77768286132813,-0.6656999588012695,0.6018999814987183,0.22699999809265137
1702217525024682800,70.83768286132812,-2.996299982070923,0.8101999759674072,1.2418999671936035
1702217525084682800,70.89768286132812,-1.524999976158142,0.3109000027179718,3.1850998401641846
1702217525144682800,70.95768286132812,0.2078000009059906,3.7216999530792236,3.819899797439575
1702217525204682800,71.01768286132813,1.7138999700546265,3.693699836730957,-5.99970006942749
1702217525264682800,71.07768286132813,-1.5313999652862549,-1.8443999290466309,-6.872399806976318
1702217525324682800,71.13768286132813,8.71519947052002,-0.12069999426603317,1.7773000001907349
1702217525384682800,71.19768286132812,-6.6793999671936035,-1.6116999387741089,3.333599805831909
1702217525444682800,71.25768286132812,0.37469998002052307,-3.335599899291992,-3.681999921798706
1702217525504682800,71.31768286132812,-1.3601999282836914,1.4878000020980835,0.7994999885559082
1702217525564682800,71.37768286132813,1.282099962234497,0.8402999639511108,0.7684999704360962
1702217525624682800,71.43768286132813,1.3152999877929688,2.341399908065796,-2.4140000343322754
1702217525684682800,71.49768286132813,0.5952000021934509,2.0779998302459717,-3.5144999027252197
1702217525744682800,71.55768286132812,-0.4546999931335449,0.19759999215602875,-1.507699966430664
1702217525804682800,71.61768286132812,3.5253000259399414,-1.2609000205993652,-2.2575998306274414
1702217525864682800,71.67768286132812,2.702699899673462,-0.43529999256134033,-2.5020999908447266
1702217525924682800,71.73768286132812,-4.114500045776367,-0.8629999756813049,-5.212500095367432
1702217525984682800,71.79768286132813,1.1413999795913696,-1.810499906539917,-1.796199917793274
1702217526044682800,71.85768286132813,0.689300000667572,-6.100100040435791,2.411099910736084
1702217526104682800,71.91768286132813,0.11819999665021896,-0.8964999914169312,1.7454999685287476
1702217526164682800,71.97768286132812,-1.8336999416351318,1.1262999773025513,0.10119999945163727
1702217526224682800,72.03768286132812,-3.491999864578247,3.827899932861328,0.5443999767303467
1702217526284682800,72.09768286132812,-1.670699954032898,4.6554999351501465,5.396399974822998
1702217526344682800,72.15768286132813,1.6269999742507935,2.8245999813079834,-5.364500045776367
1702217526404682800,72.21768286132813,-4.041399955749512,0.7913999557495117,-6.548999786376953
1702217526464682800,72.27768286132813,0.020099999383091927,-5.781499862670898,-0.2505999803543091
1702217526524682800,72.33768286132812,-2.036099910736084,-2.5585999488830566,3.4925999641418457
1702217526584682800,72.39768286132812,-3.2672998905181885,-2.5312998294830322,-0.9682999849319458
1702217526644682800,72.45768286132812,-2.839099884033203,0.8727999925613403,-0.4935999810695648
1702217526704682800,72.51768286132813,3.473099946975708,0.8420999646186829,0.5116999745368958
1702217526764682800,72.57768286132813,1.0472999811172485,1.3586000204086304,-1.7603999376296997
1702217526824682800,72.63768286132813,-0.7297999858856201,2.2670998573303223,-2.504199981689453
1702217526884682800,72.69768286132812,-0.43719998002052307,1.8930000066757202,-3.1810998916625977
1702217526944682800,72.75768286132812,2.6308000087738037,-0.8811999559402466,-2.0901999473571777
1702217527004682800,72.81768286132812,3.0120999813079834,-0.053599998354911804,-0.6186999678611755
1702217527064682800,72.87768286132813,1.0760999917984009,-1.9823999404907227,-7.838899612426758
1702217527124682800,72.93768286132813,-5.281799793243408,0.4554999768733978,-4.26230001449585
1702217527184682800,72.99768286132813,0.47599998116493225,-7.446599960327148,-1.605199933052063
1702217527244682800,73.05768286132812,-1.81059992313385,-0.5843999981880188,2.649399995803833
1702217527304682800,73.11768286132812,-4.605799674987793,1.5906999111175537,0.7859999537467957
1702217527364682800,73.17768286132812,-3.658099889755249,1.3142999410629272,4.038599967956543
1702217527424682800,73.23768286132812,-1.9026999473571777,1.9032999277114868,6.663699626922607
1702217527484682800,73.29768286132813,2.961400032043457,0.6186999678611755,-6.891599655151367
1702217527544682800,73.35768286132813,-1.2936999797821045,5.043099880218506,-3.276899814605713
1702217527604682800,73.41768286132813,-0.3831999897956848,-8.007800102233887,-4.121099948883057
1702217527664682800,73.47768286132812,-3.9794998168945312,2.34089994430542,6.35099983215332
1702217527724682800,73.53768286132812,-2.294299840927124,-5.643199920654297,-1.847599983215332
1702217527784682800,73.59768286132812,-3.592099905014038,-0.5543999671936035,-0.5837000012397766
1702217527844682800,73.65768286132813,-1.343400001525879,-0.1306999921798706,-0.05119999870657921
1702217527904682800,73.71768286132813,-1.654099941253662,1.250599980354309,0.34379997849464417
1702217527964682800,73.77768286132813,-0.8508999943733215,2.5432000160217285,-0.9648000001907349
1702217528024682800,73.83768286132812,-0.07849999517202377,2.0887999534606934,-2.4442999362945557
1702217528084682800,73.89768286132812,6.027400016784668,1.3842999935150146,-4.15910005569458
1702217528144682800,73.95768286132812,-1.2130999565124512,-0.06949999928474426,-2.2052998542785645
1702217528204682800,74.01768286132813,2.4940998554229736,-0.659500002861023,-3.023699998855591
1702217528264682800,74.07768286132813,1.8632999658584595,-2.961899995803833,-7.705499649047852
1702217528324682800,74.13768286132813,-4.371399879455566,0.42639997601509094,-3.980799913406372
1702217528384682800,74.19768286132812,1.6726999282836914,-5.315700054168701,-4.680500030517578
1702217528444682800,74.25768286132812,-3.412899971008301,-1.4036999940872192,2.7498998641967773
1702217528504682800,74.31768286132812,-5.62969970703125,1.7625999450683594,0.64410001039505
1702217528564682800,74.37768286132813,-4.947499752044678,2.541800022125244,2.4639999866485596
1702217528624682800,74.43768286132813,-3.199399948120117,0.38659998774528503,4.791500091552734
1702217528684682800,74.49768286132813,-0.3482999801635742,2.586400032043457,2.1658999919891357
1702217528744682800,74.55768286132812,2.466599941253662,2.5204999446868896,-10.225899696350098
1702217528804682800,74.61768286132812,-6.377399921417236,-2.5053000450134277,-4.640500068664551
1702217528864682800,74.67768286132812,-5.389899730682373,-2.8894999027252197,9.639100074768066
1702217528924682800,74.73768286132812,-4.28410005569458,-5.538899898529053,-1.8021999597549438
1702217528984682800,74.79768286132813,-4.796099662780762,-0.7683999538421631,-4.239500045776367
1702217529044682800,74.85768286132813,-0.125900000333786,3.0806000232696533,-0.6328999996185303
