time,seconds_elapsed,z,y,x
1702756703839242500,0.061242431640625,-0.07429999858140945,-0.006399999838322401,0.007400000002235174
1702756703899241000,0.121240966796875,-0.06759999692440033,-0.01769999973475933,0.19129998981952667
1702756703959242500,0.181242431640625,-0.025999998673796654,0.010599999688565731,-0.008899999782443047
1702756704019241000,0.241240966796875,-0.14389999210834503,0.00989999994635582,-0.16609999537467957
1702756704079241000,0.301240966796875,-0.4772000014781952,0.10019999742507935,-0.17629998922348022
1702756704139241000,0.361240966796875,-0.2198999971151352,-0.1224999949336052,-0.38760000467300415
1702756704199241000,0.421240966796875,0.6425999999046326,-0.357699990272522,0.7543999552726746
1702756704259241000,0.481240966796875,0.036399997770786285,-0.014999999664723873,0.1987999975681305
1702756704319241000,0.541240966796875,0.1516999900341034,0.13830000162124634,-0.23149999976158142
1702756704379241000,0.601240966796875,0.15889999270439148,0.02369999885559082,0.8155999779701233
1702756704439241000,0.661240966796875,-0.7479000091552734,0.017400000244379044,-0.6926999688148499
1702756704499242500,0.721242431640625,0.40209999680519104,0.20829999446868896,-0.38599997758865356
1702756704559242500,0.781242431640625,0.15879999101161957,-0.17159999907016754,0.3479999899864197
1702756704619241000,0.841240966796875,0.05199999734759331,-0.23229999840259552,0.09589999914169312
1702756704679241000,0.901240966796875,0.06159999966621399,-0.00699999975040555,-0.21660000085830688
1702756704739241000,0.961240966796875,-0.07909999787807465,-0.019199999049305916,0.15680000185966492
1702756704799242500,1.021242431640625,-0.2660999894142151,0.204599991440773,-0.007999999448657036
1702756704859242500,1.081242431640625,-0.2671999931335449,0.14389999210834503,-0.21639999747276306
1702756704919241000,1.141240966796875,-0.8118000030517578,0.07679999619722366,-0.3057999908924103
1702756704979241000,1.201240966796875,-0.11899999529123306,-0.004100000020116568,0.00699999975040555
1702756705039242500,1.261242431640625,-0.16459999978542328,-0.06459999829530716,0.16779999434947968
1702756705099241000,1.321240966796875,-0.2782000005245209,-0.057999998331069946,-0.30629998445510864
1702756705159242500,1.381242431640625,-0.11079999804496765,-0.241799995303154,-0.25999999046325684
1702756705219241000,1.441240966796875,0.09769999980926514,-0.038100000470876694,-0.17710000276565552
1702756705279241000,1.501240966796875,-0.23489999771118164,-0.13769999146461487,0.08639999479055405
1702756705339241000,1.561240966796875,0.25999999046325684,-0.16740000247955322,0.41269999742507935
1702756705399241000,1.621240966796875,0.5453999638557434,-0.14149999618530273,0.7739999890327454
1702756705459242500,1.681242431640625,0.25270000100135803,0.10399999469518661,-0.48919999599456787
1702756705519241000,1.741240966796875,-0.7955999970436096,-0.1973000019788742,0.7910000085830688
1702756705579278600,1.801278564453125,-0.9002999663352966,-0.03610000014305115,-1.2353999614715576
1702756705639242500,1.861242431640625,-0.7069999575614929,-0.10189999639987946,-0.9404000043869019
1702756705699241000,1.921240966796875,-2.4742000102996826,-0.9820999503135681,0.8116999864578247
1702756705759242500,1.981242431640625,-0.22169999778270721,0.24969999492168427,-0.7458999752998352
1702756705819241000,2.041240966796875,-0.23279999196529388,-0.14329999685287476,0.39100000262260437
1702756705879241000,2.101240966796875,-0.25189998745918274,0.08980000019073486,0.3100999891757965
1702756705939241000,2.161240966796875,0.9271000027656555,-0.37779998779296875,-0.2141999900341034
1702756705999241000,2.221240966796875,-0.0803999975323677,-0.07909999787807465,1.0534999370574951
1702756706059242500,2.281242431640625,0.5295000076293945,-0.21959999203681946,0.4165000021457672
1702756706119241000,2.341240966796875,-0.14419999718666077,0.1428000032901764,0.28839999437332153
1702756706179241000,2.401240966796875,-0.5006999969482422,0.48429998755455017,0.19059999287128448
1702756706239241000,2.461240966796875,-0.7673999667167664,0.2768999934196472,-0.22929999232292175
1702756706299241000,2.521240966796875,-0.290800005197525,0.16019999980926514,0.16539999842643738
1702756706359242500,2.581242431640625,0.30320000648498535,-0.3463999927043915,0.1850999891757965
1702756706419241000,2.641240966796875,-0.1818999946117401,-0.12539999186992645,-0.23389999568462372
1702756706479241000,2.701240966796875,-0.2141999900341034,-0.1891999989748001,-0.9074999690055847
1702756706539241000,2.761240966796875,-0.38580000400543213,-1.4466999769210815,-0.15160000324249268
1702756706599241000,2.821240966796875,-0.1833999902009964,1.607800006866455,-1.2171999216079712
1702756706659242500,2.881242431640625,0.6943999528884888,-0.8064999580383301,-0.09600000083446503
1702756706719241000,2.941240966796875,-0.2886999845504761,0.04079999774694443,-0.06209999695420265
1702756706779241000,3.001240966796875,0.274399995803833,-0.27129998803138733,1.0641000270843506
1702756706839241000,3.061240966796875,-0.39890000224113464,0.17839999496936798,0.13660000264644623
1702756706899241000,3.121240966796875,0.10529999434947968,-0.08779999613761902,0.3024999797344208
1702756706959242500,3.181242431640625,-0.11669999361038208,0.35420000553131104,0.3450999855995178
1702756707019241000,3.241240966796875,-0.5859000086784363,-0.10480000078678131,-0.17019999027252197
1702756707079241000,3.301240966796875,-0.053599998354911804,0.3926999866962433,0.09179999679327011
1702756707139241000,3.361240966796875,-0.21400000154972076,0.22779999673366547,0.31689998507499695
1702756707199241000,3.421240966796875,-0.5327000021934509,-0.19699999690055847,-0.29679998755455017
1702756707259242500,3.481242431640625,0.046799998730421066,-0.012299999594688416,-0.20509999990463257
1702756707319241000,3.541240966796875,-0.20509999990463257,-0.11939999461174011,-0.44119998812675476
1702756707379242500,3.601242431640625,-0.49619999527931213,-0.16009999811649323,-0.5710999965667725
1702756707439241000,3.661240966796875,0.11969999969005585,-0.24729999899864197,0.09950000047683716
1702756707499241000,3.721240966796875,-0.21400000154972076,-0.29839998483657837,0.4740999937057495
1702756707559242500,3.781242431640625,-0.2298000007867813,0.5130000114440918,-0.4171999990940094
1702756707619241000,3.841240966796875,-0.030899999663233757,-0.23659999668598175,0.24869999289512634
1702756707679241000,3.901240966796875,-0.3937999904155731,0.015599999576807022,0.20520000159740448
1702756707739241000,3.961240966796875,0.11779999732971191,-0.02969999983906746,0.49869999289512634
1702756707799241000,4.021240966796875,-0.5108999609947205,0.4382999837398529,0.1340000033378601
1702756707859242500,4.081242431640625,-0.3919000029563904,0.13819999992847443,-0.43039998412132263
1702756707919241000,4.141240966796875,-0.234499990940094,-0.32569998502731323,-0.4429999887943268
1702756707979241000,4.201240966796875,0.18400000035762787,-0.17819999158382416,-0.23429998755455017
1702756708039241000,4.261240966796875,0.06839999556541443,0.019500000402331352,0.31379997730255127
1702756708099241000,4.321240966796875,0.9083999991416931,-0.24329999089241028,0.429099977016449
1702756708159242500,4.381242431640625,0.09319999814033508,-0.4738999903202057,-0.36169999837875366
1702756708219242500,4.441242431640625,-0.592199981212616,-0.4025000035762787,-0.5432999730110168
1702756708279241000,4.501240966796875,0.36089998483657837,0.280599981546402,-0.14090000092983246
1702756708339241000,4.561240966796875,-0.7048999667167664,0.38979998230934143,0.10619999468326569
1702756708399241000,4.621240966796875,-0.15060000121593475,0.19489999115467072,0.25519999861717224
1702756708459242500,4.681242431640625,-0.12029999494552612,0.7044999599456787,0.5569999814033508
1702756708519241000,4.741240966796875,-0.09950000047683716,-0.011399999260902405,-0.1858000010251999
1702756708579281700,4.80128173828125,-0.09510000050067902,-0.06319999694824219,-0.04969999939203262
1702756708639241000,4.861240966796875,-0.4244000017642975,-0.3772999942302704,0.2705000042915344
1702756708699241000,4.921240966796875,0.13099999725818634,-0.16579999029636383,0.026399999856948853
1702756708759242500,4.981242431640625,0.3813000023365021,0.08619999885559082,0.3043999969959259
1702756708819241000,5.041240966796875,0.45969998836517334,-0.25360000133514404,-0.35920000076293945
1702756708879241000,5.101240966796875,-0.13449999690055847,-0.43149998784065247,0.34630000591278076
1702756708939241000,5.161240966796875,0.03519999980926514,0.00930000003427267,0.10089999437332153
1702756708999241000,5.221240966796875,-0.11069999635219574,-0.2313999980688095,0.03700000047683716
1702756709059242500,5.281242431640625,-0.45339998602867126,-0.33709999918937683,-0.1501999944448471
1702756709119241000,5.341240966796875,-0.8101999759674072,1.0688999891281128,-0.2944999933242798
1702756709179241000,5.401240966796875,-0.2915000021457672,-0.17090000212192535,-1.1323999166488647
1702756709239241000,5.461240966796875,-0.04699999839067459,-0.018299998715519905,-0.13939999043941498
1702756709299241000,5.521240966796875,-0.15680000185966492,0.009599999524652958,0.4748999774456024
1702756709359241000,5.581240966796875,0.3919999897480011,-0.49390000104904175,-0.05779999867081642
1702756709419241000,5.641240966796875,0.3660999834537506,-0.04999999701976776,0.009599999524652958
1702756709479241000,5.701240966796875,0.4781000018119812,-0.23160000145435333,0.9447999596595764
1702756709539241000,5.761240966796875,-0.2976999878883362,0.27629998326301575,0.08969999849796295
1702756709599242500,5.821242431640625,-0.41419997811317444,0.2994999885559082,0.42319998145103455
1702756709659242500,5.881242431640625,0.20309999585151672,-0.1460999995470047,0.3911999762058258
1702756709719241000,5.941240966796875,0.21649999916553497,-0.675599992275238,-0.12139999866485596
1702756709779241000,6.001240966796875,-0.9957999587059021,0.23199999332427979,-0.6416999697685242
1702756709839241000,6.061240966796875,-0.3635999858379364,0.19909998774528503,-0.5619999766349792
1702756709899241000,6.121240966796875,0.03879999741911888,0.37689998745918274,-0.33059999346733093
1702756709959242500,6.181242431640625,-0.4099999964237213,-0.4027999937534332,-0.47369998693466187
1702756710019241000,6.241240966796875,0.01769999973475933,0.09269999712705612,0.032899998128414154
1702756710079241000,6.301240966796875,-0.031599998474121094,0.12799999117851257,0.23809999227523804
1702756710139241000,6.361240966796875,0.5320000052452087,-0.10649999976158142,0.3495999872684479
1702756710199241000,6.421240966796875,-0.9162999987602234,0.4089999794960022,0.008200000040233135
1702756710259242500,6.481242431640625,0.6624999642372131,-0.66839998960495,0.1378999948501587
1702756710319241000,6.541240966796875,-0.3700000047683716,0.21069999039173126,0.0957999974489212
1702756710379241000,6.601240966796875,0.3393999934196472,-0.060099996626377106,0.5925999879837036
1702756710439241000,6.661240966796875,0.4834999740123749,0.05299999937415123,0.9503999948501587
1702756710499242500,6.721242431640625,-0.017799999564886093,-0.05889999866485596,0.3824999928474426
1702756710559242500,6.781242431640625,-0.13359999656677246,-0.19439999759197235,0.019199999049305916
1702756710619242500,6.841242431640625,-0.13830000162124634,0.1143999993801117,-0.12539999186992645
1702756710679241000,6.901240966796875,-0.7762999534606934,0.13429999351501465,-1.0885999202728271
1702756710739241000,6.961240966796875,-0.4764999747276306,0.16599999368190765,-1.2731000185012817
1702756710799242500,7.021242431640625,-0.6020999550819397,-0.035599999129772186,-0.6904999613761902
1702756710859242500,7.081242431640625,0.12600000202655792,-0.42669999599456787,0.3434999883174896
1702756710919241000,7.141240966796875,-0.20600000023841858,0.1987999975681305,0.1533999890089035
1702756710979241000,7.201240966796875,0.17099998891353607,-0.17000000178813934,0.035499997437000275
1702756711039241000,7.261240966796875,-0.40619999170303345,0.20309999585151672,0.45569998025894165
1702756711099241000,7.321240966796875,0.0016999999061226845,0.04519999772310257,0.6681999564170837
1702756711159242500,7.381242431640625,0.2272999882698059,-0.2615000009536743,1.3034999370574951
1702756711219241000,7.441240966796875,0.5116999745368958,0.19009999930858612,1.6373000144958496
1702756711279241000,7.501240966796875,0.1370999962091446,0.03009999915957451,1.145900011062622
1702756711339242500,7.561242431640625,-1.1032999753952026,0.09369999915361404,-0.5209000110626221
1702756711399241000,7.621240966796875,-0.42149999737739563,-0.3349999785423279,-0.8148999810218811
1702756711459242500,7.681242431640625,-0.5084999799728394,0.13019999861717224,-1.552299976348877
1702756711519241000,7.741240966796875,-1.0541999340057373,-0.11749999970197678,-2.2829999923706055
1702756711579281700,7.80128173828125,-0.9789999723434448,-0.3042999804019928,-1.3179999589920044
1702756711639241000,7.861240966796875,-1.0710999965667725,0.045499999076128006,0.1445000022649765
1702756711699241000,7.921240966796875,-0.37219998240470886,0.687999963760376,1.0220999717712402
1702756711759242500,7.981242431640625,0.08429999649524689,0.27789998054504395,0.8129000067710876
1702756711819241000,8.041240966796876,0.1614999920129776,0.025599999353289604,2.8785998821258545
1702756711879241000,8.101240966796874,0.20789998769760132,-0.5974999666213989,0.8364999890327454
1702756711939241000,8.161240966796875,0.2946999967098236,0.37549999356269836,0.7384999990463257
1702756711999241000,8.221240966796875,-0.0965999960899353,-0.2345999926328659,-0.3669999837875366
1702756712059242500,8.281242431640624,-0.14899998903274536,-0.0030999998562037945,-0.6710999608039856
1702756712119242500,8.341242431640625,-0.23919999599456787,-0.09510000050067902,0.2337999939918518
1702756712179241000,8.401240966796875,0.31119999289512634,-0.03790000081062317,0.3091000020503998
1702756712239241000,8.461240966796876,-0.21809999644756317,-0.1404999941587448,-0.5733999609947205
1702756712299241000,8.521240966796874,-0.17569999396800995,0.048899997025728226,-0.6509999632835388
1702756712359242500,8.581242431640625,-0.46379998326301575,-0.022599998861551285,-1.309499979019165
1702756712419242500,8.641242431640626,-0.0876999944448471,0.059699997305870056,0.06669999659061432
1702756712479241000,8.701240966796876,-0.035599999129772186,-0.20009998977184296,-0.3384000062942505
1702756712539241000,8.761240966796874,-1.118399977684021,0.2985000014305115,-1.2788000106811523
1702756712599242500,8.821242431640625,-0.5095999836921692,0.029199998825788498,0.4772000014781952
1702756712659242500,8.881242431640626,0.49729999899864197,0.24079999327659607,1.6035999059677124
1702756712719241000,8.941240966796874,0.5539999604225159,-0.057499997317790985,1.4112999439239502
1702756712779241000,9.001240966796875,-0.09839999675750732,0.019299998879432678,1.2573999166488647
1702756712839241000,9.061240966796875,0.3382999897003174,-0.23019999265670776,-0.17270000278949738
1702756712899241000,9.121240966796876,-0.45069998502731323,0.18689998984336853,-0.24089999496936798
1702756712959242500,9.181242431640625,-0.7563999891281128,0.06610000133514404,-0.5906999707221985
1702756713019241000,9.241240966796875,0.27079999446868896,0.20389999449253082,-0.23099999129772186
1702756713079241000,9.301240966796875,-0.141199991106987,-0.16009999811649323,-0.5116999745368958
1702756713139242500,9.361242431640624,0.17229999601840973,-0.4177999794483185,-0.28129997849464417
1702756713199241000,9.421240966796875,0.004799999762326479,-0.003000000026077032,0.1014999970793724
1702756713259242500,9.481242431640625,-0.06520000100135803,-0.03720000013709068,0.13220000267028809
1702756713319241000,9.541240966796876,-0.19339999556541443,0.17569999396800995,0.09709999710321426
1702756713379242500,9.601242431640625,-0.09339999407529831,0.10179999470710754,0
1702756713439241000,9.661240966796875,-0.3763999938964844,-0.12429999560117722,-0.26819998025894165
1702756713499241000,9.721240966796875,0.10480000078678131,-0.11449999362230301,0.19619999825954437
1702756713559242500,9.781242431640624,-0.07019999623298645,-0.19599999487400055,0.17430000007152557
1702756713619241000,9.841240966796875,0.3091999888420105,0.03229999914765358,0.07769999653100967
1702756713679241000,9.901240966796875,-0.3174999952316284,0.06669999659061432,-0.17719998955726624
1702756713739241000,9.961240966796876,-0.12439999729394913,-0.07769999653100967,-0.2556000053882599
1702756713799242500,10.021242431640625,-0.025100000202655792,0.00969999935477972,0.24159999191761017
1702756713859242500,10.081242431640625,-0.00019999999494757503,0.08749999850988388,-0.030799999833106995
1702756713919241000,10.141240966796875,0.054899998009204865,-0.005399999674409628,0.020499998703598976
1702756713979241000,10.201240966796876,-0.029899999499320984,-0.0071000000461936,0.08129999786615372
1702756714039241000,10.261240966796874,-0.15689998865127563,-0.2352999895811081,0.11389999836683273
1702756714099241000,10.321240966796875,-0.29269999265670776,-0.1639999896287918,-0.5679999589920044
1702756714159294200,10.381294189453126,0.03460000082850456,0.6747999787330627,-0.01889999955892563
1702756714219241000,10.441240966796874,-0.05999999865889549,-0.19280000030994415,0.4260999858379364
1702756714279241000,10.501240966796875,-0.5263000130653381,0.1607999950647354,-0.14329999685287476
1702756714339242500,10.561242431640625,-0.025100000202655792,0.1776999980211258,0.13289999961853027
1702756714399241000,10.621240966796876,0.01850000023841858,0.03680000081658363,-0.13519999384880066
1702756714459242500,10.681242431640625,-0.19929999113082886,-0.290800005197525,-0.08779999613761902
1702756714519241000,10.741240966796875,-0.4388999938964844,-0.3141999840736389,-0.023099999874830246
1702756714579278600,10.801278564453124,-0.36809998750686646,-0.16120000183582306,-0.2777999937534332
1702756714639242500,10.861242431640624,-0.07149999588727951,-0.23749999701976776,-0.23770000040531158
1702756714699242500,10.921242431640625,0.22039999067783356,0.10939999669790268,-0.6317999958992004
1702756714759242500,10.981242431640625,0.023499999195337296,-0.29889997839927673,-0.4528999924659729
1702756714819242500,11.041242431640624,-0.05119999870657921,-0.6956999897956848,-0.11939999461174011
1702756714879241000,11.101240966796874,0.3334999978542328,-0.12789998948574066,0.665399968624115
1702756714939242500,11.161242431640625,0.3747999966144562,0.3346000015735626,0.6471999883651733
1702756714999241000,11.221240966796875,-0.0429999977350235,0.2759999930858612,0.023000000044703484
1702756715059242500,11.281242431640624,-0.26109999418258667,0.1665000021457672,0.18469999730587006
1702756715119241000,11.341240966796875,-0.1964000016450882,-0.057499997317790985,0.056599996984004974
1702756715179241000,11.401240966796875,-0.675000011920929,-0.5087000131607056,0.1160999983549118
1702756715239241000,11.461240966796876,-0.26989999413490295,0.4001999795436859,-0.6182999610900879
