time,seconds_elapsed,z,y,x
1702688490188158700,0.05515869140625,-0.3831000030040741,0.2532999813556671,-0.11189999431371689
1702688490248154000,0.115154052734375,-0.015599999576807022,-0.017400000244379044,0.020999999716877937
1702688490308154000,0.175154052734375,-0.05289999768137932,0.0551999993622303,0.02669999934732914
1702688490368154000,0.235154052734375,-0.04879999905824661,-0.0013000000035390258,0.1039000004529953
1702688490428154000,0.295154052734375,-0.1437000036239624,-0.1354999989271164,0.10920000076293945
1702688490488154000,0.355154052734375,-0.0551999993622303,-0.11549999564886093,-0.11259999871253967
1702688490548154000,0.415154052734375,0.03359999880194664,-0.06839999556541443,-0.027300000190734863
1702688490608154000,0.475154052734375,0.07039999961853027,0.11209999769926071,-0.031700000166893005
1702688490668154000,0.535154052734375,-0.03869999945163727,0.10369999706745148,0.047599997371435165
1702688490728154000,0.595154052734375,0.2451999932527542,0.05480000004172325,0.057099997997283936
1702688490788154000,0.655154052734375,0.032899998128414154,-0.25360000133514404,0.13459999859333038
1702688490848154000,0.715154052734375,0.04399999976158142,-0.0851999968290329,-0.1127999946475029
1702688490908154000,0.775154052734375,-0.0471000000834465,-0.04189999774098396,-0.0786999985575676
1702688490968154000,0.835154052734375,-0.08899999409914017,-0.0050999997183680534,0.013399999588727951
1702688491028154000,0.895154052734375,-0.11769999563694,-0.013899999670684338,0.10559999942779541
1702688491088154000,0.955154052734375,0.03619999811053276,0.18699999153614044,0.10449999570846558
1702688491148154000,1.015154052734375,0.07129999995231628,0.03009999915957451,0.02759999968111515
1702688491208154000,1.075154052734375,-0.17649999260902405,0.09349999576807022,0.0729999989271164
1702688491268154000,1.135154052734375,-0.24049998819828033,0.0867999941110611,-0.15289999544620514
1702688491328154000,1.195154052734375,-0.03819999843835831,0.07109999656677246,0.14659999310970306
1702688491388154000,1.255154052734375,-0.033900000154972076,0.0031999999191612005,0.10409999638795853
1702688491448154000,1.315154052734375,0.1818999946117401,-0.01719999872148037,0.07569999992847443
1702688491508154000,1.375154052734375,-0.08959999680519104,-0.010900000110268593,-0.03680000081658363
1702688491568154000,1.435154052734375,-0.08020000159740448,-0.13369999825954437,0.03359999880194664
1702688491628154000,1.495154052734375,-0.17749999463558197,-0.14469999074935913,-0.1679999977350235
1702688491688154000,1.555154052734375,-0.0575999990105629,-0.1670999974012375,0.21639999747276306
1702688491748154000,1.615154052734375,0.060099996626377106,0.09559999406337738,0.3269999921321869
1702688491808154000,1.675154052734375,-0.1623999923467636,0.20729999244213104,0.1673000007867813
1702688491868154000,1.735154052734375,-0.48330000042915344,-0.001500000013038516,-0.10599999874830246
1702688491928154000,1.795154052734375,-0.2321999967098236,0.12019999325275421,-0.2531000077724457
1702688491988154000,1.855154052734375,0.02149999886751175,0.02279999852180481,-0.011799999512732029
1702688492048154000,1.915154052734375,0.17639999091625214,-0.008700000122189522,-0.10399999469518661
1702688492108154000,1.975154052734375,0.058799996972084045,0.06379999965429306,-0.05790000036358833
1702688492168154000,2.035154052734375,0.13369999825954437,-0.10569999366998672,0.5983999967575073
1702688492228154000,2.095154052734375,-0.3182999789714813,-0.06430000066757202,-0.1711999922990799
1702688492288154000,2.155154052734375,0.028299998492002487,0.05790000036358833,-0.1842999905347824
1702688492348154000,2.215154052734375,-0.28519999980926514,-0.08639999479055405,0.4777999818325043
1702688492408154000,2.275154052734375,-0.2590999901294708,-0.4325999915599823,-0.08309999853372574
1702688492468154000,2.335154052734375,-0.16279999911785126,0.0018999999156221747,-0.14810000360012054
1702688492528154000,2.395154052734375,0.49129998683929443,0.23179998993873596,0.1127999946475029
1702688492588154000,2.455154052734375,0.05329999700188637,-0.21279999613761902,0.5824999809265137
1702688492648154000,2.515154052734375,-0.5455999970436096,0.19709999859333038,-0.7876999974250793
1702688492708154000,2.575154052734375,-0.21899999678134918,-0.03839999809861183,0.19900000095367432
1702688492768154000,2.635154052734375,-0.21239998936653137,0.24239999055862427,0.09039999544620514
1702688492828154000,2.695154052734375,0.3978999853134155,0.18799999356269836,0.24049998819828033
1702688492888154000,2.755154052734375,-0.2052999883890152,0.032099999487400055,-0.13830000162124634
1702688492948154000,2.815154052734375,-0.3572999835014343,0.04490000009536743,0.19769999384880066
1702688493008154000,2.875154052734375,-0.24199999868869781,-0.19579999148845673,0.3828999996185303
1702688493068154000,2.935154052734375,-0.16200000047683716,0.10109999775886536,0.17649999260902405
1702688493128154000,2.995154052734375,-0.05849999934434891,0.13289999961853027,-0.18239998817443848
1702688493188154000,3.055154052734375,-0.08500000089406967,-0.08949999511241913,-0.11379999667406082
1702688493248154000,3.115154052734375,0.13570000231266022,-0.010099999606609344,0.35420000553131104
1702688493308154000,3.175154052734375,-0.24289999902248383,0.22280000150203705,-0.5428000092506409
1702688493368154000,3.235154052734375,0.08100000023841858,0.0414000004529953,-0.13849999010562897
1702688493428154000,3.295154052734375,-0.2572999894618988,-0.323199987411499,0.2732999920845032
1702688493488154000,3.355154052734375,0.3595999777317047,-0.5947999954223633,0.758899986743927
1702688493548154000,3.415154052734375,-0.3634999990463257,-0.3643999993801117,0.4203999936580658
1702688493608154000,3.475154052734375,0.2451999932527542,0.20499999821186066,0.19499999284744263
1702688493668154000,3.535154052734375,-0.44369998574256897,0.29670000076293945,-0.43789997696876526
1702688493728154000,3.595154052734375,-0.03019999898970127,0.2563000023365021,-0.07239999622106552
1702688493788154000,3.655154052734375,-0.20889998972415924,0.16439999639987946,0.014399999752640724
1702688493848154000,3.715154052734375,0.00009999999747378752,0.04259999841451645,0.1599999964237213
1702688493908154000,3.775154052734375,-0.09719999879598618,-0.24979999661445618,0.3465999960899353
1702688493968154000,3.835154052734375,0.06799999624490738,-0.10909999907016754,-0.44209998846054077
1702688494028154000,3.895154052734375,0.11809999495744705,0.12860000133514404,-0.10779999941587448
1702688494088154000,3.955154052734375,-0.16689999401569366,-0.06629999727010727,0.052799999713897705
1702688494148154000,4.015154052734375,-0.5162999629974365,-0.3206000030040741,0.0502999983727932
1702688494208154000,4.075154052734375,-0.7944999933242798,-0.12370000034570694,0.08370000123977661
1702688494268154000,4.135154052734375,-0.062199998646974564,0.18789999186992645,0.3449999988079071
1702688494328154000,4.195154052734375,0.13210000097751617,0.25200000405311584,0.12129999697208405
1702688494388154000,4.255154052734375,-0.18320000171661377,0.12939999997615814,-0.16699999570846558
1702688494448154000,4.315154052734375,-0.002300000051036477,0.05249999836087227,-0.03439999744296074
1702688494508154000,4.375154052734375,0.21809999644756317,-0.08079999685287476,0.34529998898506165
1702688494568154000,4.435154052734375,-0.20229999721050262,-0.15160000324249268,0.03669999912381172
1702688494628154000,4.495154052734375,-0.21679998934268951,-0.20179998874664307,0.03590000048279762
1702688494688154000,4.555154052734375,-0.025599999353289604,-0.042799998074769974,-0.08209999650716782
1702688494748154000,4.615154052734375,0.04690000042319298,0.05509999766945839,0.07889999449253082
1702688494808154000,4.675154052734375,0.09299999475479126,0.4099999964237213,-0.13040000200271606
1702688494868154000,4.735154052734375,0.06960000097751617,0.11490000039339066,-0.05939999967813492
1702688494928154000,4.795154052734375,0.1241999939084053,-0.413100004196167,0.08229999989271164
1702688494988154000,4.855154052734375,-0.19739998877048492,-0.4544999897480011,-0.06969999521970749
1702688495048154000,4.915154052734375,-0.31459999084472656,-0.05959999933838844,0.03199999779462814
1702688495108154000,4.975154052734375,-0.3888999819755554,0.15070000290870667,0.18069998919963837
1702688495168154000,5.035154052734375,0.2019999921321869,0.4145999848842621,0.2125999927520752
1702688495228154000,5.095154052734375,-0.24849998950958252,0.2669000029563904,-0.02449999935925007
1702688495288154000,5.155154052734375,-0.29339998960494995,0.1232999935746193,0.13699999451637268
1702688495348154000,5.215154052734375,0.16609999537467957,-0.003599999938160181,0.3686999976634979
1702688495408154000,5.275154052734375,-0.5400999784469604,-0.29420000314712524,-0.18709999322891235
1702688495468154000,5.335154052734375,0.13519999384880066,-0.11879999935626984,-0.3229999840259552
1702688495528154000,5.395154052734375,0.39980000257492065,-0.12139999866485596,0.053199999034404755
1702688495588154000,5.455154052734375,-0.20160000026226044,0.2557999789714813,-0.542199969291687
1702688495648154000,5.515154052734375,-0.11889999359846115,0.18289999663829803,0.032499998807907104
1702688495708154000,5.575154052734375,-0.512499988079071,0.25360000133514404,-0.503600001335144
1702688495768154000,5.635154052734375,-0.1817999929189682,-0.08879999816417694,0.6128999590873718
1702688495828154000,5.695154052734375,-0.525600016117096,-0.5008000135421753,0.24129998683929443
1702688495888154000,5.755154052734375,-0.2750999927520752,-0.11589999496936798,0.5898999571800232
1702688495948154000,5.815154052734375,0.06859999895095825,0.06159999966621399,-0.05790000036358833
1702688496008154000,5.875154052734375,0.6146999597549438,0.09059999883174896,0.3100000023841858
1702688496068154000,5.935154052734375,0.04859999939799309,-0.11270000040531158,0.24539999663829803
1702688496128154000,5.995154052734375,0.01719999872148037,0.02709999866783619,0.11659999936819077
1702688496188154000,6.055154052734375,-0.3757999837398529,0.15269999206066132,-0.1597999930381775
1702688496248154000,6.115154052734375,-0.9645999670028687,-0.25949999690055847,-0.7716999650001526
1702688496308154000,6.175154052734375,0.517300009727478,0.04230000078678131,0.10849999636411667
1702688496368154000,6.235154052734375,-0.37860000133514404,0.09510000050067902,-0.4941999912261963
1702688496428154000,6.295154052734375,-0.09860000014305115,0.24049998819828033,0.03500000014901161
1702688496488154000,6.355154052734375,-0.2011999934911728,-0.1673000007867813,0.2987000048160553
1702688496548154000,6.415154052734375,-0.0072999997064471245,-0.6557999849319458,0.335999995470047
1702688496608154000,6.475154052734375,-0.2004999965429306,0.07259999960660934,0.12919999659061432
1702688496668154000,6.535154052734375,-0.13699999451637268,0.15529999136924744,0.3531999886035919
1702688496728154000,6.595154052734375,-0.18019999563694,0.23849999904632568,-0.09699999541044235
1702688496788154000,6.655154052734375,-0.08370000123977661,0.36579999327659607,0.2466999888420105
1702688496848154000,6.715154052734375,0.10579999536275864,-0.007999999448657036,0.1467999964952469
1702688496908154000,6.775154052734375,-0.03009999915957451,0.08009999990463257,0.5667999982833862
1702688496968154000,6.835154052734375,-0.9063999652862549,-0.35909998416900635,-1.0586999654769897
1702688497028154000,6.895154052734375,0.49480000138282776,0.13329999148845673,0.24779999256134033
1702688497088154000,6.955154052734375,0.17819999158382416,-0.3434999883174896,0.07970000058412552
1702688497148154000,7.015154052734375,-0.19579999148845673,0.0835999995470047,-0.015799999237060547
1702688497208154000,7.075154052734375,-0.19699999690055847,0.272599995136261,-0.4407999813556671
1702688497268154000,7.135154052734375,0.14319999516010284,0.054499998688697815,-0.210999995470047
1702688497328154000,7.195154052734375,-0.5734999775886536,0.2247999906539917,-0.2061999887228012
1702688497388154000,7.255154052734375,0.5370000004768372,0.23879998922348022,0.3905999958515167
1702688497448154000,7.315154052734375,-0.776699960231781,-0.33649998903274536,-0.2328999936580658
1702688497508154000,7.375154052734375,0.15809999406337738,-0.4472000002861023,1.2867000102996826
1702688497568154000,7.435154052734375,-0.23420000076293945,-0.18029999732971191,0.06069999933242798
1702688497628154000,7.495154052734375,-0.04690000042319298,-0.11149999499320984,0.20879998803138733
1702688497688154000,7.555154052734375,-0.11389999836683273,0.3888999819755554,0.148499995470047
1702688497748154000,7.615154052734375,0.13619999587535858,0.13159999251365662,0.1648000031709671
1702688497808154000,7.675154052734375,-0.14389999210834503,0.0892999991774559,0.31709998846054077
1702688497868154000,7.735154052734375,-0.019299998879432678,0.008299999870359898,-0.310699999332428
1702688497928154000,7.795154052734375,-0.27950000762939453,0.23589999973773956,-0.4869000017642975
1702688497988154000,7.855154052734375,0.11909999698400497,-0.19099999964237213,0.057099997997283936
1702688498048154000,7.915154052734375,0.1720999926328659,-0.13580000400543213,-0.14790000021457672
1702688498108154000,7.975154052734375,-0.2540999948978424,0.0279999990016222,-0.3060999810695648
1702688498168154000,8.035154052734375,-0.3522000014781952,0.12370000034570694,-0.18289999663829803
1702688498228154000,8.095154052734374,-0.10170000046491623,0.07270000129938126,0.08469999581575394
1702688498288154000,8.155154052734375,0.20789998769760132,-0.07479999959468842,0.013399999588727951
1702688498348154000,8.215154052734375,0.05570000037550926,-0.031199999153614044,0.085999995470047
1702688498408154000,8.275154052734376,0.00019999999494757503,-0.1314999908208847,0.43629997968673706
1702688498468154000,8.335154052734374,0.026399999856948853,-0.07239999622106552,-0.27709999680519104
1702688498528154000,8.395154052734375,-0.12809999287128448,-0.05729999765753746,0.24609999358654022
1702688498588154000,8.455154052734375,-0.04309999942779541,0.11289999634027481,-0.16120000183582306
1702688498648154000,8.515154052734376,-0.0008999999845400453,0.155799999833107,0.011299999430775642
1702688498708154000,8.575154052734375,-0.3545999825000763,-0.009099999442696571,-0.21619999408721924
1702688498768154000,8.635154052734375,-0.17109999060630798,-0.3612000048160553,0.02369999885559082
1702688498828154000,8.695154052734376,0.23309999704360962,-0.1005999967455864,0.257999986410141
1702688498888154000,8.755154052734374,-0.07649999856948853,-0.06129999831318855,0.6434999704360962
1702688498948154000,8.815154052734375,-0.07959999889135361,0.15839999914169312,0.49459999799728394
1702688499008154000,8.875154052734375,-0.2904999852180481,0.17899999022483826,0.033399999141693115
1702688499068154000,8.935154052734376,0.16669999063014984,-0.17889998853206635,0.21469999849796295
1702688499128154000,8.995154052734375,-0.4341000020503998,-0.014399999752640724,-0.24549999833106995
1702688499188154000,9.055154052734375,-0.13609999418258667,-0.17319999635219574,0.21949999034404755
1702688499248154000,9.115154052734376,-0.2671000063419342,-0.05089999735355377,-0.04969999939203262
1702688499308154000,9.175154052734374,-0.1386999934911728,-0.015399999916553497,0.2166999876499176
1702688499368154000,9.235154052734375,-0.005499999970197678,-0.11669999361038208,-0.10749999433755875
1702688499428154000,9.295154052734375,-0.3384000062942505,-0.06529999524354935,-0.13750000298023224
1702688499488154000,9.355154052734376,-0.24740000069141388,0.026799999177455902,0.11819999665021896
1702688499548154000,9.415154052734374,-0.09299999475479126,-0.1395999938249588,0.04129999876022339
1702688499608154000,9.475154052734375,-0.2215999960899353,0.07919999957084656,0.15439999103546143
1702688499668154000,9.535154052734375,-0.250900000333786,-0.06719999760389328,-0.17489999532699585
1702688499728154000,9.595154052734374,-0.6366999745368958,0.03629999980330467,0.31839999556541443
1702688499788154000,9.655154052734375,-0.12379999458789825,0.07609999924898148,-0.08100000023841858
1702688499848154000,9.715154052734375,-0.14059999585151672,0.07729999721050262,-0.12299999594688416
1702688499908154000,9.775154052734376,-0.03199999779462814,-0.18609999120235443,-0.15320000052452087
1702688499968154000,9.835154052734374,0.08969999849796295,0.11829999834299088,-0.16049998998641968
1702688500028154000,9.895154052734375,0.2069000005722046,-0.014599999412894249,-0.05739999935030937
1702688500088154000,9.955154052734375,0.11659999936819077,-0.07319999486207962,0.0762999951839447
1702688500148154000,10.015154052734376,-0.12309999763965607,-0.23549999296665192,0.016999999061226845
1702688500208154000,10.075154052734375,-0.2450999915599823,-0.12870000302791595,0.0737999975681305
1702688500268154000,10.135154052734375,-0.36629998683929443,-0.22199998795986176,-0.07479999959468842
1702688500328154000,10.195154052734376,-0.22010000050067902,-0.09179999679327011,-0.2694000005722046
1702688500388154000,10.255154052734374,0.02290000021457672,-0.05209999904036522,-0.37959998846054077
1702688500448154000,10.315154052734375,0.03280000016093254,-0.16179999709129333,-0.17260000109672546
1702688500508154000,10.375154052734375,-0.09259999543428421,-0.39899998903274536,-0.16099999845027924
1702688500568154000,10.435154052734376,-0.16439999639987946,-0.45499998331069946,-0.3182999789714813
1702688500628154000,10.495154052734375,-0.030899999663233757,-0.11069999635219574,-0.2728999853134155
1702688500688154000,10.555154052734375,0.09179999679327011,0.27570000290870667,0.5160999894142151
1702688500748154000,10.615154052734376,-0.021699998527765274,0.17799998819828033,0.484499990940094
1702688500808154000,10.675154052734374,-0.17350000143051147,-0.014800000004470348,0.38279998302459717
1702688500868154000,10.735154052734375,-0.27549999952316284,-0.11389999836683273,0.2303999960422516
1702688500928154000,10.795154052734375,-0.2043999880552292,-0.0414000004529953,0.13199999928474426
1702688500988154000,10.855154052734376,-0.08749999850988388,-0.017400000244379044,-0.10559999942779541
1702688501048154000,10.915154052734374,-0.054999999701976776,0.08909999579191208,-0.2345999926328659
1702688501108154000,10.975154052734375,-0.4802999794483185,-0.07620000094175339,-0.07959999889135361
1702688501168154000,11.035154052734375,0.37129998207092285,0.13210000097751617,-0.1995999962091446
