time,seconds_elapsed,z,y,x
1702218120584682800,0.062682861328125,-0.010599999688565731,0.06539999693632126,-0.8096999526023865
1702218120644681200,0.12268115234375,-0.012999999336898327,-0.17819999158382416,-0.2117999941110611
1702218120704682800,0.182682861328125,0.01640000008046627,-0.1930999904870987,-0.149399995803833
1702218120764682800,0.242682861328125,0.042799998074769974,-0.03819999843835831,0.10809999704360962
1702218120824682800,0.302682861328125,0.48399999737739563,0.008299999870359898,0.5317000150680542
1702218120884682800,0.362682861328125,-0.5289999842643738,-0.11009999364614487,-0.2094999998807907
1702218120944682800,0.422682861328125,0.5819999575614929,0.21619999408721924,-0.13449999690055847
1702218121004682800,0.482682861328125,0.3828999996185303,0.1266999989748001,-0.28619998693466187
1702218121064682800,0.542682861328125,0.2061000019311905,0.02290000021457672,0.4368000030517578
1702218121124682800,0.602682861328125,0.644599974155426,0.2654999792575836,-0.09160000085830688
1702218121184682800,0.662682861328125,-0.12789998948574066,3.652400016784668,2.001199960708618
1702218121244682800,0.722682861328125,-0.11899999529123306,0.25939998030662537,0.8279999494552612
1702218121304682800,0.782682861328125,-0.7961999773979187,1.9158999919891357,2.9452998638153076
1702218121364682800,0.842682861328125,-2.135499954223633,-5.763400077819824,-3.8073999881744385
1702218121424682800,0.902682861328125,2.6355998516082764,-2.669999837875366,-2.894699811935425
1702218121484682800,0.962682861328125,-1.5929999351501465,0.6129999756813049,1.174799919128418
1702218121544682800,1.022682861328125,1.1057000160217285,0.004699999932199717,0.2190999984741211
1702218121604682800,1.082682861328125,0.7567999958992004,-0.04600000008940697,-0.6104999780654907
1702218121664682800,1.142682861328125,1.2834999561309814,0.34610000252723694,-2.410399913787842
1702218121724682800,1.202682861328125,1.4958000183105469,0.4009999930858612,-0.3935000002384186
1702218121784682800,1.262682861328125,-0.4746999740600586,-0.16179999709129333,-0.6071000099182129
1702218121844682800,1.322682861328125,-0.03359999880194664,-0.10419999808073044,-2.273399829864502
1702218121904682800,1.382682861328125,5.260200023651123,0.5288000106811523,-1.7272999286651611
1702218121964682800,1.442682861328125,0.2313999980688095,-1.9656999111175537,-5.7469000816345215
1702218122024682800,1.502682861328125,2.681299924850464,0.6358999609947205,-0.5845999717712402
1702218122084682800,1.562682861328125,-2.7281999588012695,-3.420300006866455,-1.3500999212265015
1702218122144682800,1.622682861328125,-0.2678000032901764,-2.1226999759674072,1.0555000305175781
1702218122204682800,1.682682861328125,-2.3411998748779297,-0.44029998779296875,1.7239999771118164
1702218122264682800,1.742682861328125,-1.538599967956543,-0.08630000054836273,1.7383999824523926
1702218122324682800,1.802682861328125,-1.8008999824523926,0.14890000224113464,2.361999988555908
1702218122384682800,1.862682861328125,-1.4847999811172485,1.1859999895095825,3.578699827194214
1702218122444682800,1.922682861328125,0.9590999484062195,0.6251999735832214,1.4952999353408813
1702218122504682800,1.982682861328125,3.006999969482422,0.6723999977111816,-3.058199882507324
1702218122564682800,2.042682861328125,1.1632000207901,2.225600004196167,-2.8250999450683594
1702218122624682800,2.102682861328125,6.076299667358398,-8.152799606323242,0.7622999548912048
1702218122684682800,2.162682861328125,-4.1417999267578125,0.8385999798774719,2.1886000633239746
1702218122744682800,2.222682861328125,-7.1331000328063965,-0.3127000033855438,0.8977999687194824
1702218122804682800,2.282682861328125,-2.034600019454956,-2.001699924468994,-2.719099998474121
1702218122864682800,2.342682861328125,-0.8769999742507935,0.4405999779701233,1.2330999374389648
1702218122924682800,2.402682861328125,-0.24069999158382416,-0.20469999313354492,0.9361000061035156
1702218122984682800,2.462682861328125,0.654699981212616,0.7157999873161316,-0.7883999943733215
1702218123044682800,2.522682861328125,1.3779000043869019,0.15439999103546143,-1.652899980545044
1702218123104682800,2.582682861328125,1.472999930381775,-0.03929999843239784,-0.07699999958276749
1702218123164682800,2.642682861328125,1.8665999174118042,-1.022499918937683,-0.882599949836731
1702218123224682800,2.702682861328125,2.968600034713745,-0.3807999789714813,-1.6475999355316162
1702218123284682800,2.762682861328125,3.259199857711792,-2.283099889755249,-3.342599868774414
1702218123344682800,2.822682861328125,0.7980999946594238,-1.6584999561309814,-4.156499862670898
1702218123404682800,2.882682861328125,-3.4326000213623047,-3.942699909210205,-1.309399962425232
1702218123464682800,2.942682861328125,0.3726999759674072,-4.346799850463867,1.0576999187469482
1702218123524682800,3.002682861328125,-3.418299913406372,1.3222999572753906,2.708099842071533
1702218123584682800,3.062682861328125,-3.936800003051758,0.8321999907493591,3.176800012588501
1702218123644682800,3.122682861328125,-2.640199899673462,0.8908999562263489,4.1149001121521
1702218123704682800,3.182682861328125,1.128000020980835,1.1506999731063843,2.863799810409546
1702218123764682800,3.242682861328125,5.021199703216553,-0.48739999532699585,-6.877500057220459
1702218123824682800,3.302682861328125,0.01719999872148037,0.4229999780654907,0.5497999787330627
1702218123884682800,3.362682861328125,0.5414999723434448,-5.138299942016602,2.033099889755249
1702218123944682800,3.422682861328125,-8.56190013885498,-4.295499801635742,-3.207399845123291
1702218124004682800,3.482682861328125,-5.739500045776367,1.9017999172210693,0.611799955368042
1702218124064682800,3.542682861328125,-2.418099880218506,-2.3173999786376953,-3.2400999069213867
1702218124124682800,3.602682861328125,-0.04129999876022339,1.2173999547958374,1.4901999235153198
1702218124184682800,3.662682861328125,-1.0124000310897827,-0.42069998383522034,-0.3084999918937683
1702218124244682800,3.722682861328125,1.7299000024795532,0.8628999590873718,-0.88919997215271
1702218124304682800,3.782682861328125,-0.9424999952316284,-0.007400000002235174,-0.6369999647140503
1702218124364682800,3.842682861328125,1.1592999696731567,-0.05169999971985817,-0.4684999883174896
1702218124424681200,3.90268115234375,5.563799858093262,-1.556899905204773,-1.5268999338150024
1702218124484682800,3.962682861328125,2.5002999305725098,0.322299987077713,-2.7899999618530273
1702218124544682800,4.022682861328125,2.165799856185913,0.5123000144958496,-6.755499839782715
1702218124604682800,4.082682861328125,-5.488800048828125,-3.3962998390197754,-2.0184998512268066
1702218124664682800,4.142682861328125,2.9208998680114746,-7.338500022888184,0.7251999974250793
1702218124724682800,4.202682861328125,-4.7067999839782715,0.7904999852180481,3.2799999713897705
1702218124784682800,4.262682861328125,-2.8265998363494873,0.9511999487876892,1.2489999532699585
1702218124844682800,4.322682861328125,-3.4391000270843506,0.41029998660087585,5.0727996826171875
1702218124904682800,4.382682861328125,0.188400000333786,0.3983999788761139,4.73259973526001
1702218124964682800,4.442682861328125,6.165999889373779,-2.0553998947143555,-5.305599689483643
1702218125024681200,4.50268115234375,-0.8047999739646912,3.2421000003814697,-2.5576999187469482
1702218125084682800,4.562682861328125,4.0970001220703125,-6.152899742126465,-0.7656999826431274
1702218125144682800,4.622682861328125,-4.843499660491943,-0.12209999561309814,2.3904998302459717
1702218125204682800,4.682682861328125,-6.6057000160217285,0.5099999904632568,1.8411999940872192
1702218125264682800,4.742682861328125,-2.0104000568389893,-3.3681998252868652,-3.6301000118255615
1702218125324682800,4.802682861328125,-0.9878000020980835,1.2304999828338623,1.805999994277954
1702218125384682800,4.862682861328125,-1.5393999814987183,-0.5163999795913696,0.9225999712944031
1702218125444682800,4.922682861328125,1.6358999013900757,1.0227999687194824,-1.2193999290466309
1702218125504682800,4.982682861328125,1.5204999446868896,-0.21409998834133148,-0.9249999523162842
1702218125564682800,5.042682861328125,3.915599822998047,-0.5794999599456787,-0.9230999946594238
1702218125624682800,5.102682861328125,0.5716999769210815,-0.3220999836921692,-1.4197999238967896
1702218125684682800,5.162682861328125,3,-1.6730999946594238,-3.482100009918213
1702218125744682800,5.222682861328125,5.613499641418457,-0.9749999642372131,-1.523800015449524
1702218125804682800,5.282682861328125,-6.705399990081787,-2.6328999996185303,-1.5943999290466309
1702218125864682800,5.342682861328125,2.851099967956543,-5.377799987792969,-1.3255000114440918
1702218125924682800,5.402682861328125,-4.491300106048584,-1.3151999711990356,4.127299785614014
1702218125984682800,5.462682861328125,-3.516700029373169,1.5780999660491943,1.5113999843597412
1702218126044682800,5.522682861328125,-3.1748998165130615,1.517300009727478,2.2314000129699707
1702218126104682800,5.582682861328125,-1.2888000011444092,0.7354999780654907,5.689499855041504
1702218126164682800,5.642682861328125,5.973700046539307,-0.9386000037193298,-2.2254998683929443
1702218126224682800,5.702682861328125,0.10489999502897263,3.8097000122070312,-3.441999912261963
1702218126284682800,5.762682861328125,-1.4276999235153198,1.8071999549865723,2.893199920654297
1702218126344682800,5.822682861328125,3.5109000205993652,-7.61269998550415,-0.847599983215332
1702218126404681200,5.88268115234375,1.209399938583374,-2.0804998874664307,0.4935999810695648
1702218126464682800,5.942682861328125,-7.616199970245361,1.3543000221252441,3.524099826812744
1702218126524681200,6.00268115234375,-1.434999942779541,-1.6119999885559082,-1.7594000101089478
1702218126584682800,6.062682861328125,2.132499933242798,0.6371999979019165,2.6384999752044678
1702218126644682800,6.122682861328125,0.5794000029563904,-0.23160000145435333,-0.9078999757766724
1702218126704682800,6.182682861328125,-1.4529999494552612,1.656999945640564,-1.5340999364852905
1702218126764682800,6.242682861328125,3.5090999603271484,0.06719999760389328,-1.1783000230789185
1702218126824682800,6.302682861328125,3.123499870300293,-0.4153999984264374,-1.9707999229431152
1702218126884682800,6.362682861328125,5.289299964904785,-1.0180000066757202,0.5590000152587891
1702218126944682800,6.422682861328125,1.8327999114990234,-0.6638000011444092,-4.180599689483643
1702218127004682800,6.482682861328125,-8.535499572753906,-0.8920999765396118,-3.509399890899658
1702218127064682800,6.542682861328125,3.914299964904785,-7.409599781036377,-1.645799994468689
1702218127124682800,6.602682861328125,-5.229099750518799,-0.2289000004529953,3.0765998363494873
1702218127184682800,6.662682861328125,-4.984099864959717,1.8187999725341797,2.1143999099731445
1702218127244682800,6.722682861328125,-3.547799825668335,1.1240999698638916,3.5346999168395996
1702218127304682800,6.782682861328125,-1.0957000255584717,-0.20809999108314514,5.3048996925354
1702218127364682800,6.842682861328125,7.161599636077881,-1.3482999801635742,-5.514899730682373
1702218127424681200,6.90268115234375,-1.17739999294281,3.2901999950408936,-2.7891998291015625
1702218127484682800,6.962682861328125,0.6614999771118164,-3.210099935531616,3.5018999576568604
1702218127544682800,7.022682861328125,-6.1717000007629395,-5.782899856567383,-0.34579998254776
1702218127604682800,7.082682861328125,-4.5030999183654785,-0.2976999878883362,0.02709999866783619
1702218127664682800,7.142682861328125,-3.357599973678589,-1.9907000064849854,-1.3255999088287354
1702218127724682800,7.202682861328125,-1.1155999898910522,0.924299955368042,1.1974999904632568
1702218127784682800,7.262682861328125,3.569499969482422,-0.46939998865127563,-0.8756999969482422
1702218127844682800,7.322682861328125,-3.3847999572753906,2.0037999153137207,-0.17319999635219574
1702218127904682800,7.382682861328125,0.29919999837875366,0.8259999752044678,-2.0817999839782715
1702218127964682800,7.442682861328125,7.430500030517578,-2.32069993019104,-2.52239990234375
1702218128024682800,7.502682861328125,2.5051000118255615,-1.101199984550476,0.7245000004768372
1702218128084682800,7.562682861328125,2.6034998893737793,-2.129699945449829,-4.6975998878479
1702218128144682800,7.622682861328125,-1.897499918937683,0.1314999908208847,-4.299600124359131
1702218128204682800,7.682682861328125,-0.9526000022888184,-5.5432000160217285,-1.6679999828338623
1702218128264682800,7.742682861328125,-2.8564000129699707,-2.262500047683716,1.9680999517440796
1702218128324682800,7.802682861328125,-2.6447999477386475,1.3348000049591064,1.2842999696731567
1702218128384682800,7.862682861328125,-3.1155998706817627,1.563599944114685,1.9444999694824219
1702218128444682800,7.922682861328125,-3.1475000381469727,1.340399980545044,3.651399850845337
1702218128504682800,7.982682861328125,0.06059999763965607,1.0336999893188477,4.751899719238281
1702218128564682800,8.042682861328124,5.166899681091309,-2.2894999980926514,-7.571099758148193
1702218128624751400,8.10275146484375,-0.14919999241828918,3.985999822616577,-0.1597999930381775
1702218128684682800,8.162682861328125,5.3364996910095215,-6.095200061798096,-0.7971999645233154
1702218128744682800,8.222682861328124,-1.3256999254226685,-0.4010999798774719,-0.6985999941825867
1702218128804681200,8.28268115234375,-7.831999778747559,-0.5645999908447266,2.495699882507324
1702218128864681200,8.34268115234375,-1.7034000158309937,-3.863499879837036,-1.4803999662399292
1702218128924681200,8.40268115234375,-1.04830002784729,0.5406000018119812,1.184899926185608
1702218128984681200,8.46268115234375,0.03849999979138374,-1.25409996509552,0.8143999576568604
1702218129044681200,8.52268115234375,0.4542999863624573,1.0871000289916992,-0.23989999294281006
1702218129104681200,8.58268115234375,-1.198099970817566,1.8187999725341797,-1.1237999200820923
1702218129164681200,8.64268115234375,1.4210000038146973,1.0927000045776367,-2.8106000423431396
1702218129224681200,8.70268115234375,4.7144999504089355,-1.351099967956543,-2.480599880218506
1702218129284682800,8.762682861328125,0.2621999979019165,-1.11080002784729,-1.3026000261306763
1702218129344682800,8.822682861328126,4.085899829864502,-2.4565000534057617,-5.328499794006348
1702218129404682800,8.882682861328124,2.0111000537872314,0.3643999993801117,-1.718999981880188
1702218129464682800,8.942682861328125,-3.7373998165130615,-4.251199722290039,-1.8133000135421753
1702218129524682800,9.002682861328125,-2.0058000087738037,-4.116399765014648,1.8992999792099
1702218129584682800,9.062682861328126,-2.7528998851776123,0.0071000000461936,2.0613999366760254
1702218129644682800,9.122682861328125,-2.9711999893188477,0.9558999538421631,2.524199962615967
1702218129704682800,9.182682861328125,-2.6765999794006348,1.3931000232696533,4.902400016784668
1702218129764682800,9.242682861328126,1.9794999361038208,2.5451998710632324,1.410599946975708
1702218129824682800,9.302682861328124,2.8901000022888184,1.2071999311447144,-7.242300033569336
1702218129884682800,9.362682861328125,1.3946999311447144,-1.3664000034332275,-3.6919000148773193
1702218129944682800,9.422682861328125,-1.5911999940872192,-2.3585000038146973,8.345499992370605
1702218130004682800,9.482682861328126,-1.9220999479293823,-4.170599937438965,-1.2245999574661255
1702218130064682800,9.542682861328124,-4.023699760437012,-0.38989999890327454,-1.2085999250411987
1702218130124682800,9.602682861328125,-2.7753000259399414,-1.3783999681472778,-0.3669999837875366
1702218130184682800,9.662682861328125,0.5220999717712402,-0.5476999878883362,1.758099913597107
1702218130244682800,9.722682861328124,0.028999999165534973,0.50409996509552,0.09829999506473541
1702218130304682800,9.782682861328125,-0.7080000042915344,1.4926999807357788,-2.1686999797821045
1702218130364682800,9.842682861328125,-0.24489998817443848,1.4088000059127808,-1.2624999284744263
1702218130424682800,9.902682861328126,5.09689998626709,-0.39100000262260437,-1.0891000032424927
1702218130484682800,9.962682861328124,0.3537999987602234,-0.3698999881744385,-1.2218999862670898
1702218130544682800,10.022682861328125,1.3478999137878418,-0.7653999924659729,-1.3942999839782715
1702218130604682800,10.082682861328125,2.1145999431610107,-1.5096999406814575,-5.199999809265137
1702218130664682800,10.142682861328124,3.3661999702453613,0.7590000033378601,-3.8367998600006104
1702218130724682800,10.202682861328125,-5.1173996925354,-1.0972999334335327,-0.18119999766349792
1702218130784682800,10.262682861328125,-0.579800009727478,-4.76639986038208,-0.8351999521255493
1702218130844682800,10.322682861328126,-2.6018998622894287,0.2938999831676483,1.4866999387741089
1702218130904682800,10.382682861328124,-3.5277998447418213,0.9943999648094177,1.6547999382019043
1702218130964682800,10.442682861328125,-3.4233999252319336,0.9010999798774719,5.064300060272217
1702218131024682800,10.502682861328125,-0.4899999797344208,1.799399971961975,5.232100009918213
1702218131084682800,10.562682861328126,4.561999797821045,0.5389999747276306,-7.895099639892578
1702218131144682800,10.622682861328125,1.7597999572753906,1.7773000001907349,-3.0939998626708984
1702218131204682800,10.682682861328125,1.237299919128418,-5.253200054168701,-2.7967000007629395
1702218131264682800,10.742682861328126,-3.3040997982025146,-0.7221999764442444,5.027400016784668
1702218131324682800,10.802682861328124,-4.438899993896484,-6.257999897003174,0.02969999983906746
1702218131384682800,10.862682861328125,-5.484299659729004,-1.6660999059677124,-1.7637999057769775
1702218131444682800,10.922682861328125,3.2502999305725098,0.4818999767303467,1.3878999948501587
1702218131504682800,10.982682861328126,0.3905999958515167,1.027999997138977,1.942599892616272
1702218131564682800,11.042682861328124,0.41599997878074646,2.062700033187866,-1.7698999643325806
1702218131624682800,11.102682861328125,-1.3769999742507935,1.9733999967575073,-1.8810999393463135
1702218131684682800,11.162682861328125,1.6089999675750732,-1.0964999198913574,-3.7151999473571777
1702218131744682800,11.222682861328124,3.924099922180176,-1.5163999795913696,-1.3025000095367432
1702218131804682800,11.282682861328125,2.3626999855041504,-2.9042999744415283,-3.931299924850464
1702218131864682800,11.342682861328125,-0.09359999746084213,0.3780999779701233,-2.7781999111175537
1702218131924682800,11.402682861328126,-2.743499994277954,-3.2926998138427734,-0.5031999945640564
1702218131984682800,11.462682861328124,-1.1830999851226807,-3.3237998485565186,2.4524998664855957
1702218132044682800,11.522682861328125,-2.7390999794006348,0.7644000053405762,3.2122998237609863
1702218132104682800,11.582682861328125,-2.1427998542785645,1.0225999355316162,0.8172000050544739
1702218132164682800,11.642682861328124,-2.4361000061035156,1.5342999696731567,4.752799987792969
1702218132224682800,11.702682861328125,-0.08729999512434006,2.4931998252868652,3.3630998134613037
1702218132284682800,11.762682861328125,5.0808000564575195,1.5786999464035034,-10.150400161743164
1702218132344682800,11.822682861328126,1.3346999883651733,0.32429999113082886,-2.2836999893188477
1702218132404682800,11.882682861328124,-7.3588995933532715,-7.834099769592285,2.8790998458862305
1702218132464682800,11.942682861328125,-6.777099609375,1.3229999542236328,5.427399635314941
1702218132524682800,12.002682861328125,-6.346199989318848,-5.546499729156494,-3.833400011062622
1702218132584682800,12.062682861328126,3.6576998233795166,2.359799861907959,0.31929999589920044
1702218132644682800,12.122682861328125,-0.7598999738693237,-0.370199978351593,0.6786999702453613
1702218132704682800,12.182682861328125,-0.9071999788284302,0.9244999885559082,0.012899999506771564
1702218132764682800,12.242682861328126,0.15079998970031738,1.5413999557495117,-0.7181999683380127
1702218132824682800,12.302682861328124,2.336599826812744,-0.31459999084472656,-1.7020999193191528
1702218132884682800,12.362682861328125,5.600100040435791,-2.439199924468994,-0.6301999688148499
1702218132944682800,12.422682861328125,2.1332998275756836,-0.44509997963905334,-4.5229997634887695
1702218133004682800,12.482682861328126,2.5078999996185303,0.006899999920278788,-2.937999963760376
1702218133064682800,12.542682861328124,-4.467700004577637,-4.436500072479248,-0.5813999772071838
1702218133124682800,12.602682861328125,1.5799999237060547,-5.266499996185303,0.25290000438690186
1702218133184682800,12.662682861328125,-3.5777997970581055,1.1406999826431274,0.9633999466896057
1702218133244682800,12.722682861328124,-3.7746999263763428,1.6905999183654785,1.492799997329712
1702218133304682800,12.782682861328125,-4.2104997634887695,0.826200008392334,4.337500095367432
1702218133364682800,12.842682861328125,-2.425999879837036,1.442099928855896,3.553499937057495
1702218133424682800,12.902682861328126,6.471299648284912,-1.8168998956680298,-5.849099636077881
1702218133484682800,12.962682861328124,1.2797999382019043,4.439899921417236,-1.994499921798706
1702218133544682800,13.022682861328125,2.3931000232696533,-4.235799789428711,-2.1328999996185303
1702218133604682800,13.082682861328125,-4.564699649810791,-1.2300999164581299,5.827699661254883
1702218133664682800,13.142682861328124,-6.437399864196777,-1.5418999195098877,-0.8988999724388123
1702218133724681200,13.20268115234375,-0.20839999616146088,0.021199999377131462,-5.546299934387207
1702218133784682800,13.262682861328125,-3.6504998207092285,-1.2136999368667603,2.736599922180176
1702218133844682800,13.322682861328126,-0.3999999761581421,-0.7809999585151672,1.3207999467849731
1702218133904682800,13.382682861328124,0.9389999508857727,0.5996999740600586,-0.5453000068664551
1702218133964682800,13.442682861328125,0.40049999952316284,0.9820999503135681,-0.54339998960495
1702218134024682800,13.502682861328125,1.326300024986267,1.2574999332427979,-1.0067999362945557
1702218134084682800,13.562682861328126,1.8427999019622803,-0.9088999629020691,-1.2400000095367432
1702218134144682800,13.622682861328125,-0.9972999691963196,-0.39800000190734863,-2.8001999855041504
1702218134204682800,13.682682861328125,4.883199691772461,-1.945099949836731,-1.4800999164581299
1702218134264682800,13.742682861328126,-2.3571999073028564,-1.7014999389648438,-2.3299999237060547
1702218134324682800,13.802682861328124,-1.4603999853134155,0.6316999793052673,-3.854599952697754
1702218134384682800,13.862682861328125,-0.16259999573230743,-4.655099868774414,2.5123000144958496
1702218134444682800,13.922682861328125,-1.3342000246047974,-0.6464999914169312,2.510999917984009
1702218134504681200,13.98268115234375,-2.90939998626709,0.2556000053882599,1.024999976158142
1702218134564709400,14.04270947265625,-2.960899829864502,0.7307999730110168,2.434799909591675
1702218134624682800,14.102682861328125,-1.4565999507904053,0.3877999782562256,4.926499843597412
1702218134684682800,14.162682861328125,1.3037999868392944,2.061300039291382,2.3515000343322754
1702218134744682800,14.222682861328124,3.8327999114990234,1.8894000053405762,-11.5068998336792
1702218134804682800,14.282682861328125,1.827199935913086,-4.464799880981445,-8.313300132751465
1702218134864682800,14.342682861328125,-3.9903998374938965,-0.964199960231781,13.833699226379395
1702218134924682800,14.402682861328126,-1.1108999252319336,-6.039799690246582,-1.625
1702218134984682800,14.462682861328124,-5.763000011444092,-0.583899974822998,-1.503000020980835
1702218135044682800,14.522682861328125,-1.9608999490737915,1.5266000032424927,-0.5848000049591064
1702218135104682800,14.582682861328125,-0.5238999724388123,0.05979999899864197,0.9343999624252319
1702218135164682800,14.642682861328124,0.9441999793052673,1.5195000171661377,-0.1890999972820282
1702218135224682800,14.702682861328125,-0.2895999848842621,0.9677000045776367,-1.3105000257492065
1702218135284682800,14.762682861328125,1.1486999988555908,0.7838999629020691,-1.779099941253662
1702218135344682800,14.822682861328126,4.867199897766113,-1.235700011253357,-2.1092000007629395
1702218135404682800,14.882682861328124,1.7166999578475952,-0.7634999752044678,-1.708899974822998
1702218135464682800,14.942682861328125,1.7555999755859375,-0.590399980545044,-3.859099864959717
1702218135524682800,15.002682861328125,-6.06689977645874,0.10209999978542328,-3.3314998149871826
1702218135584682800,15.062682861328126,1.3853999376296997,-4.623600006103516,-3.839200019836426
1702218135644682800,15.122682861328125,-3.984999895095825,-1.8687999248504639,2.1631999015808105
1702218135704682800,15.182682861328125,-2.2448999881744385,-0.39409998059272766,1.930899977684021
1702218135764682800,15.242682861328126,-3.172799825668335,0.8083999752998352,2.3835999965667725
1702218135824682800,15.302682861328124,-3.184999942779541,2.0690999031066895,5.91379976272583
1702218135884682800,15.362682861328125,-0.15330000221729279,1.8835999965667725,5.048299789428711
1702218135944682800,15.422682861328125,4.395899772644043,-1.2767000198364258,-13.402299880981445
1702218136004682800,15.482682861328126,-0.7044000029563904,3.978799819946289,0.2606000006198883
1702218136064682800,15.542682861328124,-3.5326998233795166,-11.76200008392334,-2.552000045776367
1702218136124682800,15.602682861328125,-2.7139999866485596,0.04189999774098396,5.403299808502197
1702218136184682800,15.662682861328125,-5.660399913787842,-2.748800039291382,-0.19759999215602875
1702218136244682800,15.722682861328124,-2.195499897003174,0.4899999797344208,-0.5916999578475952
1702218136304682800,15.782682861328125,3.3557000160217285,-1.0024999380111694,1.473099946975708
1702218136364682800,15.842682861328125,-1.8746999502182007,0.7895999550819397,-1.1193000078201294
1702218136424682800,15.902682861328126,-1.4929999113082886,2.0889999866485596,-1.2982999086380005
1702218136484682800,15.962682861328124,3.677500009536743,1.815999984741211,-3.1510000228881836
1702218136544682800,16.022682861328125,2.1534998416900635,-0.7741000056266785,-2.426800012588501
1702218136604682800,16.082682861328124,3.1710000038146973,-0.5317000150680542,-0.28369998931884766
1702218136664682800,16.142682861328126,0.6516000032424927,-2.8847999572753906,-5.44819974899292
1702218136724682800,16.202682861328125,-1.6622999906539917,3.0483999252319336,-4.168900012969971
1702218136784682800,16.262682861328123,0.1193000003695488,-5.220999717712402,-2.955199956893921
1702218136844682800,16.322682861328126,-3.4427998065948486,-2.75249981880188,2.6259000301361084
1702218136904682800,16.382682861328124,-3.9738998413085938,0.20600000023841858,1.8808000087738037
1702218136964682800,16.442682861328127,-2.704200029373169,1.2566999197006226,1.4960999488830566
1702218137024682800,16.502682861328125,-3.634899854660034,1.3273999691009521,6.486099720001221
1702218137084682800,16.562682861328124,2.874300003051758,1.5809999704360962,0.3188999891281128
1702218137144682800,16.622682861328126,0.1136000007390976,3.067199945449829,-6.133199691772461
1702218137204682800,16.682682861328125,-0.11270000040531158,2.330699920654297,0.5101000070571899
1702218137264682800,16.742682861328124,-5.029599666595459,-13.010199546813965,-3.2045998573303223
1702218137324682800,16.802682861328126,-9.535099983215332,1.6161999702453613,4.421299934387207
1702218137384682800,16.862682861328125,-5.649899959564209,-3.4164998531341553,-2.8279998302459717
1702218137444682800,16.922682861328123,1.5616999864578247,0.49629998207092285,0.33889999985694885
1702218137504682800,16.982682861328126,1.5125999450683594,-1.149899959564209,1.5584999322891235
1702218137564682800,17.042682861328124,-3.636399984359741,1.1513999700546265,-0.9301999807357788
1702218137624682800,17.102682861328127,-0.501800000667572,1.6650999784469604,-3.3610999584198
1702218137684682800,17.162682861328125,2.525599956512451,0.4244999885559082,-3.1905999183654785
1702218137744682800,17.222682861328124,4.714900016784668,0.6256999969482422,-1.3341000080108643
1702218137804682800,17.282682861328126,7.495699882507324,-1.2131999731063843,-3.1768999099731445
1702218137864682800,17.342682861328125,0.5623999834060669,0.38760000467300415,-4.146399974822998
1702218137924682800,17.402682861328124,-3.8698999881744385,-4.40179967880249,-3.1557998657226562
1702218137984682800,17.462682861328126,1.994499921798706,-4.597899913787842,0.5880999565124512
1702218138044682800,17.522682861328125,-5.432300090789795,-0.30489999055862427,3.688999891281128
1702218138104682800,17.582682861328124,-2.082200050354004,0.663599967956543,1.069599986076355
1702218138164682800,17.642682861328126,-3.6725997924804688,0.972000002861023,4.30709981918335
1702218138224682800,17.702682861328125,-1.0795999765396118,0.8162999749183655,4.487499713897705
1702218138284682800,17.762682861328123,2.373199939727783,2.051800012588501,-3.6028997898101807
1702218138344682800,17.822682861328126,3.497299909591675,1.1169999837875366,-6.437099933624268
1702218138404682800,17.882682861328124,-7.440199851989746,-4.154399871826172,-1.434999942779541
1702218138464682800,17.942682861328127,-6.912199974060059,1.3607999086380005,10.211899757385254
1702218138524682800,18.002682861328125,-3.2960000038146973,-6.769499778747559,-7.499699592590332
1702218138584682800,18.062682861328124,-2.8750998973846436,2.3622000217437744,-0.7566999793052673
1702218138644682800,18.122682861328126,-2.6503000259399414,-0.8464999794960022,0.8355000019073486
1702218138704682800,18.182682861328125,0.529699981212616,1.6739000082015991,-0.9626999497413635
1702218138764682800,18.242682861328124,0.05929999798536301,1.083899974822998,-1.358199954032898
1702218138824682800,18.302682861328126,-0.41009998321533203,1.4312999248504639,-1.2558000087738037
1702218138884682800,18.362682861328125,0.5619999766349792,0.5343999862670898,-0.8817999958992004
1702218138944682800,18.422682861328123,1.7223999500274658,-1.0614999532699585,-1.3387999534606934
1702218139004682800,18.482682861328126,5.9390997886657715,-2.4186999797821045,-0.29889997839927673
1702218139064682800,18.542682861328124,1.8421999216079712,-1.4779999256134033,-4.590099811553955
1702218139124682800,18.602682861328127,1.477199912071228,1.8983999490737915,-7.329899787902832
1702218139184682800,18.662682861328125,-5.417200088500977,-3.4711999893188477,-1.5199999809265137
1702218139244682800,18.722682861328124,0.2700999975204468,-3.0807998180389404,0.9508000016212463
1702218139304682800,18.782682861328126,-3.7993998527526855,1.0810999870300293,1.448699951171875
1702218139364682800,18.842682861328125,-2.5018999576568604,0.3893999755382538,0.5841000080108643
1702218139424682800,18.902682861328124,-1.2544000148773193,1.5174999237060547,5.001699924468994
1702218139484682800,18.962682861328126,-0.23489999771118164,1.3766999244689941,1.0077999830245972
1702218139544682800,19.022682861328125,0.5174999833106995,3.543599843978882,-2.5625
1702218139604682800,19.082682861328124,0.7843999862670898,-3.6048998832702637,-9.321100234985352
1702218139664682800,19.142682861328126,-1.7726999521255493,0.4235000014305115,6.490799903869629
1702218139724682800,19.202682861328125,-5.682199954986572,-2.023200035095215,0.6523000001907349
1702218139784682800,19.262682861328123,1.9306999444961548,-4.249599933624268,-5.193899631500244
1702218139844682800,19.322682861328126,-5.502399921417236,-0.405599981546402,3.596599817276001
1702218139904682800,19.382682861328124,-3.1527998447418213,-2.1953999996185303,-1.7533999681472778
1702218139964682800,19.442682861328127,3.677799940109253,2.420799970626831,0.4271000027656555
1702218140024682800,19.502682861328125,-1.2430999279022217,0.45889997482299805,-1.059399962425232
1702218140084682800,19.562682861328124,-1.7834999561309814,2.055999994277954,-0.23519998788833618
1702218140144682800,19.622682861328126,1.1714999675750732,-0.10159999877214432,-1.1936999559402466
1702218140204682800,19.682682861328125,5.846399784088135,-0.27549999952316284,-3.198699951171875
1702218140264682800,19.742682861328124,0.9108999967575073,-1.0927000045776367,-1.6806999444961548
1702218140324682800,19.802682861328126,0.9190999865531921,-0.7073000073432922,-4.62969970703125
1702218140384682800,19.862682861328125,0.3671000003814697,-0.02319999970495701,-2.935999870300293
1702218140444682800,19.922682861328123,-3.4769999980926514,-2.335899829864502,-2.771699905395508
1702218140504682800,19.982682861328126,-1.5038999319076538,-0.08320000022649765,-1.2731000185012817
1702218140564682800,20.042682861328124,-3.2042999267578125,-0.24449999630451202,2.2921998500823975
1702218140624682800,20.102682861328127,-1.9610999822616577,1.514299988746643,2.7811999320983887
1702218140684682800,20.162682861328125,0.07559999823570251,-0.5329999923706055,-0.821899950504303
1702218140744682800,20.222682861328124,0.7532999515533447,-1.5341999530792236,5.212399959564209
1702218140804682800,20.282682861328126,-2.4286999702453613,2.733299970626831,4.049099922180176
1702218140864682800,20.342682861328125,-2.583400011062622,4.960099697113037,-9.960100173950195
1702218140924682800,20.402682861328124,-5.652299880981445,6.332900047302246,-2.782899856567383
1702218140984682800,20.462682861328126,7.874199867248535,-22.027299880981445,-12.714499473571777
1702218141044682800,20.522682861328125,-1.437399983406067,2.860999822616577,7.8526997566223145
1702218141104682800,20.582682861328124,-3.3925998210906982,-2.1175999641418457,2.190700054168701
1702218141164682800,20.642682861328126,-3.3559999465942383,-3.250699996948242,-1.2037999629974365
1702218141224682800,20.702682861328125,0.6815999746322632,1.1507999897003174,1.319000005722046
1702218141284682800,20.762682861328123,0.6902999877929688,0.36069998145103455,-1.6899999380111694
1702218141344682800,20.822682861328126,-1.3250999450683594,2.223099946975708,-1.823599934577942
1702218141404682800,20.882682861328124,1.709299921989441,0.8095999956130981,-2.9681999683380127
1702218141464682800,20.942682861328127,3.5708999633789062,1.170300006866455,-0.7665999531745911
1702218141524682800,21.002682861328125,4.208199977874756,-1.3259999752044678,-1.760599970817566
1702218141584682800,21.062682861328124,3.49399995803833,0.8641999959945679,-2.9875998497009277
1702218141644682800,21.122682861328126,-1.2466999292373657,-0.14069999754428864,-7.993299961090088
1702218141704682800,21.182682861328125,-2.407399892807007,-6.741699695587158,1.3269000053405762
1702218141764682800,21.242682861328124,0.29249998927116394,-8.908199310302734,2.0778000354766846
1702218141824682800,21.302682861328126,-6.673699855804443,1.9528999328613281,1.605199933052063
1702218141884682800,21.362682861328125,-3.612299919128418,1.9520999193191528,-1.7781999111175537
1702218141944682800,21.422682861328123,-3.116499900817871,0.11419999599456787,2.2899999618530273
1702218142004682800,21.482682861328126,-1.358299970626831,2.7107999324798584,3.1384999752044678
1702218142064682800,21.542682861328124,2.616799831390381,4.370699882507324,1.9097999334335327
1702218142124682800,21.602682861328127,0.16920000314712524,0.7910999655723572,-5.657399654388428
1702218142184682800,21.662682861328125,1.8572999238967896,1.934399962425232,3.631999969482422
1702218142244682800,21.722682861328124,-1.736299991607666,-11.788399696350098,-4.115499973297119
1702218142304682800,21.782682861328126,-7.941199779510498,2.2407000064849854,-8.295700073242188
1702218142364682800,21.842682861328125,-5.644199848175049,0.26409998536109924,-1.9539999961853027
1702218142424682800,21.902682861328124,-0.54339998960495,-1.4226999282836914,1.2542999982833862
1702218142484682800,21.962682861328126,2.9365999698638916,-2.5182998180389404,3.1420998573303223
1702218142544682800,22.022682861328125,0.22459998726844788,0.5787000060081482,-1.0613999366760254
1702218142604682800,22.082682861328124,0.10089999437332153,1.8212000131607056,0.07270000129938126
1702218142664682800,22.142682861328126,0.07779999822378159,-0.04270000010728836,-1.622999906539917
1702218142724682800,22.202682861328125,1.3042999505996704,-0.5519999861717224,-1.3087999820709229
1702218142784682800,22.262682861328123,1.229099988937378,-1.5942000150680542,-0.6869999766349792
1702218142844682800,22.322682861328126,0.8518999814987183,-0.4043999910354614,0.48429998755455017
1702218142904682800,22.382682861328124,7.135200023651123,-2.2451999187469482,-1.0396000146865845
1702218142964682800,22.442682861328127,2.0764000415802,-2.049799919128418,-1.6766999959945679
1702218143024682800,22.502682861328125,-8.189299583435059,-3.3720998764038086,-6.731499671936035
1702218143084682800,22.562682861328124,-2.182800054550171,-2.640699863433838,-1.8234999179840088
1702218143144682800,22.622682861328126,-2.4254000186920166,-0.7578999996185303,2.953399896621704
1702218143204682800,22.682682861328125,-1.4361000061035156,0.693399965763092,-0.6265999674797058
1702218143264682800,22.742682861328124,-5.021999835968018,0.20469999313354492,3.540299892425537
1702218143324682800,22.802682861328126,-5.26200008392334,0.6933000087738037,3.1211998462677
1702218143384682800,22.862682861328125,-2.3752999305725098,1.4010000228881836,2.3589999675750732
1702218143444682800,22.922682861328123,0.8830999732017517,3.9801998138427734,-7.1442999839782715
1702218143504682800,22.982682861328126,-0.4675999879837036,5.912399768829346,-4.990900039672852
1702218143564682800,23.042682861328124,-3.623999834060669,2.489300012588501,2.2767999172210693
1702218143624682800,23.102682861328127,4.32919979095459,-7.2281999588012695,0.9837999939918518
1702218143684682800,23.162682861328125,-2.421299934387207,-5.75,5.687299728393555
1702218143744682800,23.222682861328124,-6.588699817657471,2.548799991607666,6.517199993133545
1702218143804682800,23.282682861328126,-2.894199848175049,-3.9945998191833496,-2.7488999366760254
1702218143864682800,23.342682861328125,0.6054999828338623,2.450899839401245,-1.881500005722046
1702218143924682800,23.402682861328124,-0.6953999996185303,1.8945999145507812,-4.171000003814697
1702218143984682800,23.462682861328126,-1.3740999698638916,2.3264999389648438,-2.45169997215271
1702218144044682800,23.522682861328125,0.6376000046730042,1.065500020980835,-0.9690999984741211
1702218144104682800,23.582682861328124,2.559999942779541,0.028599999845027924,0.6920999884605408
1702218144164682800,23.642682861328126,2.642199993133545,-0.8890999555587769,-4.2845001220703125
1702218144224682800,23.702682861328125,0.423799991607666,-2.5046000480651855,-3.5611000061035156
1702218144284681200,23.76268115234375,9.114099502563477,-1.6453999280929565,0.0885000005364418
1702218144344681200,23.82268115234375,-4.191999912261963,-1.268899917602539,-4.787799835205078
1702218144404682800,23.882682861328124,-1.7120000123977661,-4.227399826049805,-1.1201999187469482
1702218144464682800,23.942682861328127,-1.0463999509811401,-4.330399990081787,2.961699962615967
1702218144524682800,24.002682861328125,-1.5652999877929688,1.5827000141143799,1.320099949836731
1702218144584682800,24.062682861328124,-3.4357998371124268,-0.025100000202655792,-0.7271999716758728
1702218144644682800,24.122682861328126,-2.397199869155884,0.7252999544143677,5.854499816894531
1702218144704682800,24.182682861328125,-3.5013999938964844,1.482699990272522,5.656099796295166
1702218144764682800,24.242682861328124,-0.6561999917030334,3.014400005340576,-1.6675999164581299
1702218144824682800,24.302682861328126,0.17170000076293945,2.929800033569336,-5.008899688720703
1702218144884682800,24.362682861328125,-3.944399833679199,2.4423999786376953,3.095099925994873
1702218144944682800,24.422682861328123,9.577899932861328,-15.552000045776367,-2.7753000259399414
1702218145004682800,24.482682861328126,-3.0974998474121094,3.7932000160217285,3.277400016784668
1702218145064682800,24.542682861328124,-9.17490005493164,-3.6994998455047607,1.0839999914169312
1702218145124682800,24.602682861328127,-2.7772998809814453,-3.5485999584198,-1.2146999835968018
1702218145184681200,24.66268115234375,-1.1340999603271484,1.6696999073028564,2.209699869155884
1702218145244682800,24.722682861328124,2.8641998767852783,0.10979999601840973,-0.2671999931335449
1702218145304682800,24.782682861328126,-0.48339998722076416,2.736599922180176,-0.39659997820854187
1702218145364682800,24.842682861328125,0.9170999526977539,0.6100000143051147,-0.10569999366998672
1702218145424682800,24.902682861328124,4.330399990081787,0.18629999458789825,-1.8125
1702218145484682800,24.962682861328126,0.36059999465942383,-3.596599817276001,-6.686800003051758
1702218145544682800,25.022682861328125,-0.3911999762058258,-3.381500005722046,-3.193699836730957
1702218145604682800,25.082682861328124,-4.294600009918213,-6.934399604797363,-1.289199948310852
1702218145664682800,25.142682861328126,0.24079999327659607,-3.130499839782715,2.836400032043457
1702218145724682800,25.202682861328125,-4.576399803161621,0.19460000097751617,4.341300010681152
1702218145784682800,25.262682861328123,-3.8621997833251953,0.3824999928474426,1.8019999265670776
1702218145844682800,25.322682861328126,-5.520699977874756,1.5827999114990234,5.297499656677246
1702218145904682800,25.382682861328124,1.573699951171875,4.65310001373291,5.3653998374938965
1702218145964682800,25.442682861328127,1.0223000049591064,-5.904299736022949,-9.132299423217773
1702218146024682800,25.502682861328125,-0.7890999913215637,-1.531599998474121,4.131199836730957
1702218146084682800,25.562682861328124,-6.337699890136719,-3.303299903869629,-2.0566999912261963
1702218146144682800,25.622682861328126,-4.389599800109863,-0.7437999844551086,3.670300006866455
1702218146204682800,25.682682861328125,-1.1471999883651733,-4.447299957275391,-1.0526000261306763
1702218146264682800,25.742682861328124,-0.79339998960495,2.096299886703491,1.2030999660491943
1702218146324682800,25.802682861328126,-0.9214999675750732,0.3450999855995178,0.85589998960495
1702218146384682800,25.862682861328125,-0.24849998950958252,0.33169999718666077,-0.5333999991416931
1702218146444682800,25.922682861328123,-1.535099983215332,1.2781000137329102,-2.4368999004364014
1702218146504682800,25.982682861328126,-1.0972999334335327,1.8432999849319458,-2.704699993133545
1702218146564682800,26.042682861328124,5.884599685668945,-2.6029000282287598,-0.8596999645233154
1702218146624682800,26.102682861328127,-2.055500030517578,-1.899899959564209,-2.9357998371124268
1702218146684682800,26.162682861328125,2.8325998783111572,-2.196500062942505,-1.0210000276565552
1702218146744682800,26.222682861328124,0.6398999691009521,-3.78059983253479,-4.051700115203857
1702218146804682800,26.282682861328126,-6.6327996253967285,-0.6877999901771545,0.5458999872207642
1702218146864682800,26.342682861328125,-2.060999870300293,0.635699987411499,-0.5099999904632568
1702218146924682800,26.402682861328124,-1.2764999866485596,-1.7925999164581299,1.986299991607666
1702218146984682800,26.462682861328126,-1.9535999298095703,-0.6072999835014343,3.222100019454956
1702218147044682800,26.522682861328125,-1.3147000074386597,-1.515299916267395,1.9638999700546265
1702218147104682800,26.582682861328124,-2.8894999027252197,0.20829999446868896,2.1849000453948975
1702218147164682800,26.642682861328126,-3.4589998722076416,3.293299913406372,-2.974400043487549
1702218147224682800,26.702682861328125,-1.5884000062942505,4.506799697875977,-4.08929967880249
1702218147284682800,26.762682861328123,6.631399631500244,-2.8437998294830322,-2.796999931335449
1702218147344682800,26.822682861328126,-9.375100135803223,-4.741300106048584,7.766599655151367
1702218147404682800,26.882682861328124,-6.592899799346924,-1.555999994277954,5.612400054931641
1702218147464682800,26.942682861328127,-5.932199954986572,-4.858099937438965,-5.109899997711182
1702218147524682800,27.002682861328125,-1.683899998664856,3.620800018310547,-1.263700008392334
1702218147584682800,27.062682861328124,-1.2690999507904053,-0.9993000030517578,1.7590999603271484
1702218147644682800,27.122682861328126,0.6193000078201294,-0.06509999930858612,0.8015999794006348
1702218147704682800,27.182682861328125,-1.23989999294281,1.636299967765808,-1.3816999197006226
1702218147764682800,27.242682861328124,-0.3287000060081482,1.8008999824523926,-3.6438000202178955
1702218147824682800,27.302682861328126,3.553799867630005,-0.5428999662399292,-1.639699935913086
1702218147884682800,27.362682861328125,1.0993000268936157,-2.107599973678589,-2.6315999031066895
1702218147944682800,27.422682861328123,1.4577999114990234,1.4469999074935913,-3.5597000122070312
1702218148004682800,27.482682861328126,-6.248300075531006,-2.483299970626831,-3.0909998416900635
1702218148064682800,27.542682861328124,0.6741999983787537,-6.544999599456787,-0.20569999516010284
1702218148124682800,27.602682861328127,-2.7983999252319336,-1.0499999523162842,1.698199987411499
1702218148184682800,27.662682861328125,-4.557799816131592,0.543999969959259,1.38510000705719
1702218148244682800,27.722682861328124,-2.8355000019073486,1.225600004196167,2.8770999908447266
1702218148304682800,27.782682861328126,0.019199999049305916,0.9995999932289124,4.445300102233887
1702218148364682800,27.842682861328125,0.10999999940395355,1.4824999570846558,-0.18410000205039978
1702218148424682800,27.902682861328124,1.9352999925613403,1.3535000085830688,-5.381099700927734
1702218148484682800,27.962682861328126,-5.498199939727783,-1.3253999948501587,-0.4514999985694885
1702218148544682800,28.022682861328125,-6.408999919891357,-4.818900108337402,1.6683999300003052
1702218148604682800,28.082682861328124,-2.664599895477295,-1.1064000129699707,-0.4518999755382538
1702218148664682800,28.142682861328126,-4.16379976272583,-1.320099949836731,-4.9903998374938965
1702218148724682800,28.202682861328125,-2.9082000255584717,1.0516999959945679,0.7563999891281128
1702218148784682800,28.262682861328123,-0.7703999876976013,0.6259999871253967,0.18119999766349792
1702218148844682800,28.322682861328126,0.39819997549057007,1.0568000078201294,-1.3813999891281128
1702218148904682800,28.382682861328124,0.34219998121261597,0.5534999966621399,-0.8618999719619751
1702218148964682800,28.442682861328127,0.2563999891281128,0.1428000032901764,-1.9397999048233032
1702218149024682800,28.502682861328125,6.3557000160217285,-0.6250999569892883,-0.5633000135421753
1702218149084682800,28.562682861328124,-0.49709999561309814,-1.6166999340057373,-4.842400074005127
1702218149144682800,28.622682861328126,1.5763999223709106,2.401599884033203,-4.293299674987793
1702218149204682800,28.682682861328125,-5.308099746704102,-5.56719970703125,-4.2953996658325195
1702218149264682800,28.742682861328124,-0.7644000053405762,-3.583899974822998,2.569499969482422
1702218149324682800,28.802682861328126,-5.064599990844727,-0.382999986410141,2.397899866104126
1702218149384682800,28.862682861328125,-1.9620999097824097,1.7102999687194824,2.2679998874664307
1702218149444682800,28.922682861328123,-3.9021999835968018,0.1281999945640564,3.016899824142456
1702218149504682800,28.982682861328126,-1.548200011253357,1.2171999216079712,2.21560001373291
1702218149564709400,29.04270947265625,3.4560999870300293,2.2235000133514404,-1.7875999212265015
1702218149624682800,29.102682861328127,-1.2710999250411987,3.4940998554229736,-5.308399677276611
1702218149684682800,29.162682861328125,-2.6159000396728516,-5.14709997177124,1.6197999715805054
1702218149744682800,29.222682861328124,-3.914299964904785,-3.0708999633789062,2.4974000453948975
1702218149804682800,29.282682861328126,-3.936699867248535,-2.310499906539917,-2.061199903488159
1702218149864682800,29.342682861328125,-2.396699905395508,0.13859999179840088,-2.966399908065796
1702218149924682800,29.402682861328124,-1.4887999296188354,-0.1386999934911728,1.232699990272522
1702218149984682800,29.462682861328126,-0.664900004863739,0.29189997911453247,1.7939999103546143
1702218150044682800,29.522682861328125,-0.42479997873306274,1.3841999769210815,-1.2412999868392944
1702218150104682800,29.582682861328124,-1.4406999349594116,2.0119998455047607,-1.952299952507019
1702218150164682800,29.642682861328126,0.7628999948501587,-0.0867999941110611,-2.190999984741211
1702218150224682800,29.702682861328125,3.7472000122070312,-1.5719000101089478,-1.124400019645691
1702218150284682800,29.762682861328123,0.7249000072479248,-1.2972999811172485,-2.730299949645996
1702218150344682800,29.822682861328126,2.998800039291382,-0.021900000050663948,-4.345699787139893
1702218150404682800,29.882682861328124,-1.848099946975708,0.9626999497413635,-1.7745999097824097
1702218150464682800,29.942682861328127,-1.4225999116897583,-6.086199760437012,-1.3255999088287354
1702218150524682800,30.002682861328125,-1.791599988937378,-0.6890999674797058,-0.413100004196167
1702218150584682800,30.062682861328124,-4.826399803161621,-0.4712999761104584,1.320599913597107
1702218150644681200,30.12268115234375,-3.2610998153686523,-0.4318999946117401,1.7401999235153198
1702218150704682800,30.182682861328125,-1.3062999248504639,0.761199951171875,1.866499900817871
1702218150764682800,30.242682861328124,0.0013000000035390258,-0.8107999563217163,6.525799751281738
1702218150824682800,30.302682861328126,-0.4156000018119812,1.1974999904632568,1.4621999263763428
1702218150884682800,30.362682861328125,0.6470999717712402,3.6877999305725098,-5.9558000564575195
1702218150944682800,30.422682861328123,-4.144799709320068,-7.316400051116943,-16.005399703979492
1702218151004682800,30.482682861328126,4.639800071716309,0.2970999777317047,16.643400192260742
1702218151064682800,30.542682861328124,-3.647599935531616,-4.38539981842041,-0.8597999811172485
1702218151124682800,30.602682861328127,-5.054299831390381,0.26319998502731323,-0.2775000035762787
1702218151184682800,30.662682861328125,-2.943699836730957,0.1297999918460846,-1.5544999837875366
1702218151244682800,30.722682861328124,0.1396999955177307,-0.03009999915957451,0.7335999608039856
1702218151304682800,30.782682861328126,-0.6466999650001526,0.9197999835014343,-0.09119999408721924
1702218151364682800,30.842682861328125,-0.23539999127388,1.2628999948501587,-1.9129999876022339
1702218151424682800,30.902682861328124,0.5485000014305115,1.4824999570846558,-1.2280999422073364
1702218151484682800,30.962682861328126,4.97189998626709,0.33329999446868896,-1.254499912261963
1702218151544682800,31.022682861328125,-0.00989999994635582,-0.33899998664855957,-1.573799967765808
1702218151604682800,31.082682861328124,7.52209997177124,-1.5501999855041504,-4.752500057220459
1702218151664682800,31.142682861328126,-1.0676000118255615,-1.125499963760376,-6.240599632263184
1702218151724682800,31.202682861328125,-3.9699997901916504,-5.313299655914307,-2.372499942779541
1702218151784682800,31.262682861328123,-1.4182000160217285,-2.483799934387207,1.55649995803833
1702218151844682800,31.322682861328126,-4.342199802398682,1.636199951171875,2.178999900817871
1702218151904682800,31.382682861328124,-4.38599967956543,1.1014999151229858,2.1287999153137207
1702218151964682800,31.442682861328127,-3.9143998622894287,1.1094999313354492,5.259599685668945
1702218152024682800,31.502682861328125,1.0068999528884888,-0.07639999687671661,4.105999946594238
1702218152084682800,31.562682861328124,1.9685999155044556,1.9844999313354492,-5.143099784851074
1702218152144682800,31.622682861328126,-1.0566999912261963,-1.527400016784668,-7.9178996086120605
1702218152204682800,31.682682861328125,0.4253999888896942,-1.0058000087738037,4.930099964141846
1702218152264682800,31.742682861328124,-5.905399799346924,-2.3041000366210938,2.958199977874756
1702218152324682800,31.802682861328126,-4.513700008392334,-2.1747000217437744,-3.6631999015808105
1702218152384682800,31.862682861328125,0.692799985408783,1.472100019454956,0.4189999997615814
1702218152444682800,31.922682861328123,0.3531999886035919,-0.33489999175071716,1.52839994430542
1702218152504682800,31.982682861328126,-1.1237000226974487,1.7379999160766602,-0.005200000014156103
1702218152564682800,32.042682861328124,-0.3953000009059906,0.592799961566925,-1.8008999824523926
1702218152624682800,32.10268286132813,3.11329984664917,-1.0128999948501587,-3.233599901199341
1702218152684682800,32.16268286132812,0.47759997844696045,-0.7447999715805054,-0.7354999780654907
1702218152744682800,32.222682861328124,6.760799884796143,-1.545300006866455,-3.328399896621704
1702218152804682800,32.28268286132813,-5.541199684143066,-0.13159999251365662,-3.257699966430664
1702218152864682800,32.34268286132812,-1.378600001335144,-3.8058998584747314,-2.9902000427246094
1702218152924682800,32.402682861328124,-2.6629998683929443,-1.9888999462127686,0.4138999879360199
1702218152984682800,32.462682861328126,-3.6133999824523926,0.9990999698638916,0.8797999620437622
1702218153044682800,32.52268286132813,-3.0185999870300293,0.6936999559402466,1.152400016784668
1702218153104682800,32.582682861328124,-2.1001999378204346,0.3249000012874603,4.409999847412109
1702218153164682800,32.642682861328126,-1.2436000108718872,1.3097999095916748,4.376699924468994
1702218153224682800,32.70268286132813,3.401099920272827,1.2281999588012695,-6.497799873352051
1702218153284682800,32.76268286132812,-2.4342000484466553,2.5100998878479004,-3.4442999362945557
1702218153344682800,32.822682861328126,-0.3911999762058258,-2.884399890899658,2.548799991607666
1702218153404682800,32.88268286132813,-3.0137999057769775,-4.760499954223633,-2.91759991645813
1702218153464682800,32.94268286132812,-4.983299732208252,0.9914000034332275,2.6812000274658203
1702218153524682800,33.002682861328125,-3.255699872970581,-3.8132998943328857,-1.7170000076293945
1702218153584682800,33.06268286132813,-1.857100009918213,2.227599859237671,-0.35929998755455017
1702218153644682800,33.12268286132812,0.003999999724328518,-0.6275999546051025,0.18699999153614044
1702218153704682800,33.182682861328125,-1.1883999109268188,1.2882000207901,-0.770799994468689
1702218153764682800,33.24268286132813,-0.6177999973297119,1.1590999364852905,-1.0404000282287598
1702218153824682800,33.30268286132812,3.329900026321411,-0.9181999564170837,-2.664299964904785
1702218153884682800,33.362682861328125,1.7845999002456665,-0.47769999504089355,-1.3466999530792236
1702218153944682800,33.42268286132813,4.599400043487549,-0.024000000208616257,-1.164699912071228
1702218154004682800,33.48268286132812,0.15600000321865082,-2.3280999660491943,-6.872399806976318
1702218154064682800,33.542682861328124,-7.477599620819092,-1.9106999635696411,-1.3532999753952026
1702218154124682800,33.60268286132813,1.8731999397277832,-6.19249963760376,-0.9372999668121338
1702218154184682800,33.66268286132812,-5.599999904632568,0.33059999346733093,3.13349986076355
1702218154244682800,33.722682861328124,-4.86929988861084,0.6139999628067017,2.2672998905181885
1702218154304682800,33.78268286132813,-3.3680999279022217,0.5590000152587891,3.3777999877929688
1702218154364682800,33.84268286132812,-3.2929999828338623,1.146899938583374,4.561899662017822
1702218154424682800,33.902682861328124,5.855400085449219,-1.434000015258789,-11.73539924621582
1702218154484682800,33.962682861328126,-0.1356000006198883,3.8671998977661133,-0.6015999913215637
1702218154544682800,34.02268286132813,0.8083999752998352,-6.899499893188477,-2.083099842071533
1702218154604682800,34.082682861328124,-3.2099997997283936,2.0460000038146973,6.467199802398682
1702218154664682800,34.142682861328126,-4.184299945831299,-3.1970999240875244,-2.2509000301361084
1702218154724682800,34.20268286132813,-4.200399875640869,-2.0100998878479004,-3.443499803543091
1702218154784682800,34.26268286132812,-2.958699941635132,-0.2303999960422516,1.716399908065796
1702218154844682800,34.322682861328126,-0.17379999160766602,0.11899999529123306,1.1799999475479126
1702218154904682800,34.38268286132813,-0.1890999972820282,1.5881999731063843,-0.8881999850273132
1702218154964682800,34.44268286132812,-0.13439999520778656,1.5650999546051025,-3.0070998668670654
1702218155024682800,34.502682861328125,0.6345999836921692,1.161199927330017,-1.80239999294281
1702218155084682800,34.56268286132813,2.1231000423431396,-1.5202999114990234,-1.5717999935150146
1702218155144682800,34.62268286132812,1.733699917793274,-2.329699993133545,-1.8750998973846436
1702218155204682800,34.682682861328125,4.877399921417236,-1.6373000144958496,-2.3676998615264893
1702218155264682800,34.74268286132813,-6.519099712371826,0.032899998128414154,-3.6095998287200928
1702218155324682800,34.80268286132812,-0.5633999705314636,-1.675399899482727,-4.093299865722656
1702218155384682800,34.862682861328125,-3.2605998516082764,-2.8053998947143555,3.2089998722076416
1702218155444682800,34.92268286132813,-2.425299882888794,0.5777999758720398,2.4144999980926514
1702218155504682800,34.98268286132812,-3.0325000286102295,1.511699914932251,1.4687999486923218
1702218155564682800,35.042682861328124,-3.106299877166748,1.4778000116348267,4.1890997886657715
1702218155624682800,35.10268286132813,0.8344999551773071,1.5025999546051025,-1.1272000074386597
1702218155684682800,35.16268286132812,-2.0528998374938965,2.9736998081207275,-6.968099594116211
1702218155744682800,35.222682861328124,3.683199882507324,-5.7967000007629395,-4.375400066375732
1702218155804682800,35.28268286132813,-4.491300106048584,0.56659996509552,9.675000190734863
1702218155864682800,35.34268286132812,-6.136499881744385,-2.159600019454956,-2.6750998497009277
1702218155924682800,35.402682861328124,-3.84689998626709,-0.001999999862164259,-1.9514999389648438
1702218155984682800,35.462682861328126,-3.9430999755859375,0.01209999993443489,1.0812000036239624
1702218156044682800,35.52268286132813,-0.8313999772071838,0.1306999921798706,0.4659999907016754
1702218156104682800,35.582682861328124,-0.965499997138977,1.125,-0.27950000762939453
1702218156164682800,35.642682861328126,-0.343099981546402,1.153499960899353,-1.2811999320983887
1702218156224682800,35.70268286132813,0.5720999836921692,0.8385999798774719,-1.1638000011444092
1702218156284682800,35.76268286132812,3.502699851989746,-1.59499990940094,-2.2500998973846436
1702218156344682800,35.822682861328126,3.01039981842041,-1.5604000091552734,-0.7024999856948853
1702218156404682800,35.88268286132813,2.4467999935150146,-1.5346999168395996,-6.253200054168701
1702218156464682800,35.94268286132812,-2.810499906539917,0.805899977684021,-3.017699956893921
1702218156524682800,36.002682861328125,-1.0906000137329102,-5.6082000732421875,-0.8572999835014343
1702218156584682800,36.06268286132813,-4.750799655914307,-0.3668999969959259,2.537799835205078
1702218156644682800,36.12268286132812,-4.9380998611450195,1.5812000036239624,1.0503000020980835
1702218156704682800,36.182682861328125,-3.4515998363494873,0.5504999756813049,1.1959999799728394
1702218156764682800,36.24268286132813,-3.3153998851776123,0.7193999886512756,4.8053998947143555
1702218156824682800,36.30268286132812,4.470900058746338,0.351500004529953,-1.4642000198364258
1702218156884682800,36.362682861328125,-0.868399977684021,3.204399824142456,-6.052499771118164
1702218156944682800,36.42268286132813,0.7609999775886536,-1.2904999256134033,-2.7829999923706055
1702218157004682800,36.48268286132812,-5.779799938201904,-1.4759999513626099,4.488399982452393
1702218157064682800,36.542682861328124,-5.892499923706055,-1.8025999069213867,3.200899839401245
1702218157124682800,36.60268286132813,-2.9694998264312744,-3.588099956512451,-2.0348000526428223
1702218157184682800,36.66268286132812,-3.6619999408721924,0.46230000257492065,-0.7825999855995178
1702218157244682800,36.722682861328124,0.3264999985694885,-0.027400000020861626,0.7565999627113342
1702218157304682800,36.78268286132813,0.3166999816894531,0.948199987411499,0.26479998230934143
1702218157364682800,36.84268286132812,-1.3141999244689941,1.4474999904632568,-2.966399908065796
1702218157424682800,36.902682861328124,-0.615399956703186,1.2208999395370483,-1.6632999181747437
1702218157484682800,36.962682861328126,1.740299940109253,-0.7752000093460083,-1.2041000127792358
1702218157544682800,37.02268286132813,3.138700008392334,-1.6128000020980835,-2.1366000175476074
1702218157604682800,37.082682861328124,1.1865999698638916,-2.4213998317718506,-2.651399850845337
1702218157664682800,37.142682861328126,3.149399995803833,0.1348000019788742,-1.8909999132156372
1702218157724682800,37.20268286132813,-8.420100212097168,-2.3494999408721924,-2.9624998569488525
1702218157784682800,37.26268286132812,-1.7953999042510986,-2.4457998275756836,-1.2001999616622925
1702218157844682800,37.322682861328126,-5.785099983215332,0.4964999854564667,2.1908998489379883
1702218157904682800,37.38268286132813,-4.569200038909912,0.5277999639511108,2.422499895095825
1702218157964682800,37.44268286132812,-3.685999870300293,1.45169997215271,2.581199884414673
1702218158024682800,37.502682861328125,-0.19999998807907104,0.8824999928474426,5.267299652099609
1702218158084682800,37.56268286132813,7.760599613189697,-1.4635999202728271,-6.066799640655518
1702218158144682800,37.62268286132812,-2.8860998153686523,3.475799798965454,-4.741300106048584
1702218158204682800,37.682682861328125,-2.9868998527526855,-3.015699863433838,0.911300003528595
1702218158264682800,37.74268286132813,1.6256999969482422,-0.870199978351593,2.6786999702453613
1702218158324682800,37.80268286132812,-6.252899646759033,-0.2735999822616577,3.2839999198913574
1702218158384682800,37.862682861328125,-2.540099859237671,-3.655900001525879,-3.4183998107910156
1702218158444682800,37.92268286132813,-0.8727999925613403,2.5792999267578125,0.2683999836444855
1702218158504682800,37.98268286132812,0.6804999709129333,-1.4918999671936035,0.2777000069618225
1702218158564682800,38.042682861328124,-1.7292999029159546,1.4530999660491943,-0.864799976348877
1702218158624682800,38.10268286132813,-0.63919997215271,2.6129000186920166,-1.190500020980835
1702218158684682800,38.16268286132812,3.1815998554229736,-0.5098999738693237,-1.291700005531311
1702218158744682800,38.222682861328124,0.4982999861240387,-0.20679999887943268,-0.41179999709129333
1702218158804682800,38.28268286132813,5.378799915313721,-0.840999960899353,-1.3739999532699585
1702218158864682800,38.34268286132812,-1.5204999446868896,-0.25839999318122864,-5.556399822235107
1702218158924682800,38.402682861328124,-3.3334999084472656,-3.259699821472168,-1.659999966621399
1702218158984682800,38.462682861328126,-1.2654999494552612,-4.754199981689453,-0.01730000041425228
1702218159044682800,38.52268286132813,-3.9091999530792236,0.46699997782707214,0.727400004863739
1702218159104682800,38.582682861328124,-5.077699661254883,0.6121999621391296,1.9530999660491943
1702218159164682800,38.642682861328126,-2.9158999919891357,0.07499999552965164,3.3629000186920166
1702218159224682800,38.70268286132813,-2.4014999866485596,0.1251000016927719,3.7428998947143555
1702218159284682800,38.76268286132812,2.7632999420166016,-0.0835999995470047,-0.1436000019311905
1702218159344682800,38.822682861328126,0.9767999649047852,2.879499912261963,-5.816699981689453
1702218159404682800,38.88268286132813,-1.5392999649047852,2.635499954223633,-1.2443000078201294
1702218159464682800,38.94268286132812,-1.8890999555587769,-2.4494998455047607,-0.13300000131130219
1702218159524682800,39.002682861328125,-4.717700004577637,-0.5564999580383301,1.2875999212265015
1702218159584682800,39.06268286132813,-5.499399662017822,0.08320000022649765,3.1673998832702637
1702218159644682800,39.12268286132812,-3.3213000297546387,-2.8897998332977295,-2.915299892425537
1702218159704682800,39.182682861328125,-0.9213999509811401,1.726599931716919,-0.9746999740600586
1702218159764682800,39.24268286132813,-0.8113999962806702,-0.6517999768257141,-0.9757999777793884
1702218159824682800,39.30268286132812,-0.507099986076355,1.4046999216079712,-1.1579999923706055
1702218159884682800,39.362682861328125,-1.107100009918213,1.7108999490737915,-0.6211000084877014
1702218159944682800,39.42268286132813,-0.21289999783039093,1.3744999170303345,0.6258999705314636
1702218160004682800,39.48268286132812,3.159600019454956,-1.390299916267395,-1.4708999395370483
1702218160064682800,39.542682861328124,2.6338999271392822,-0.09609999507665634,-2.542799949645996
1702218160124682800,39.60268286132813,0.29339998960494995,-0.07129999995231628,-5.025099754333496
1702218160184682800,39.66268286132812,2.05079984664917,-0.17809998989105225,-6.114999771118164
1702218160244682800,39.722682861328124,-3.2020998001098633,-2.6768999099731445,-2.221400022506714
1702218160304682800,39.78268286132813,-0.22709999978542328,-6.133699893951416,1.751599907875061
1702218160364682800,39.84268286132812,-2.7035999298095703,0.9459999799728394,1.281000018119812
1702218160424682800,39.902682861328124,-5.626899719238281,1.128499984741211,2.506500005722046
1702218160484682800,39.962682861328126,-3.6937999725341797,0.7019000053405762,2.9844000339508057
1702218160544682800,40.02268286132813,-1.6473000049591064,1.956399917602539,3.6694998741149902
1702218160604682800,40.082682861328124,6.603499889373779,-0.7583999633789062,-6.251899719238281
1702218160664682800,40.142682861328126,-1.3935999870300293,1.9627000093460083,-3.5404000282287598
1702218160724682800,40.20268286132813,2.0892999172210693,-2.7167999744415283,0.7990999817848206
1702218160784682800,40.26268286132812,-6.783299922943115,-2.3069000244140625,2.358799934387207
1702218160844682800,40.322682861328126,-5.863499641418457,-2.338899850845337,-1.0691999197006226
1702218160904682800,40.38268286132813,-4.793399810791016,-1.4225999116897583,-2.0795998573303223
1702218160964682800,40.44268286132812,1.3004999160766602,1.2934999465942383,2.1917998790740967
1702218161024682800,40.502682861328125,-0.736799955368042,0.003999999724328518,0.5981999635696411
1702218161084682800,40.56268286132813,-2.1566998958587646,2.118799924850464,-1.4875999689102173
1702218161144682800,40.62268286132812,-0.20600000023841858,1.5824999809265137,-3.342899799346924
1702218161204682800,40.682682861328125,3.663800001144409,-0.9914999604225159,-1.931399941444397
1702218161264682800,40.74268286132813,-1.7544000148773193,0.13939999043941498,-2.710099935531616
1702218161324682800,40.80268286132812,8.82409954071045,-1.233699917793274,-2.4652998447418213
1702218161384682800,40.862682861328125,0.665399968624115,-0.7172999978065491,-3.359099864959717
1702218161444682800,40.92268286132813,-5.763000011444092,-3.0147998332977295,-2.6878998279571533
1702218161504682800,40.98268286132812,-0.8928999900817871,-6.419299602508545,0.37539997696876526
1702218161564682800,41.042682861328124,-3.6350998878479004,0.9774999618530273,2.0571000576019287
1702218161624682800,41.10268286132813,-5.572199821472168,1.1588000059127808,1.8395999670028687
1702218161684682800,41.16268286132812,-4.200399875640869,0.8440999984741211,4.933700084686279
1702218161744682800,41.222682861328124,-1.1588000059127808,0.6322999596595764,4.723400115966797
1702218161804682800,41.28268286132813,4.280999660491943,-2.142199993133545,-6.490099906921387
1702218161864682800,41.34268286132812,-2.130699872970581,3.038599967956543,-3.6863999366760254
1702218161924682800,41.402682861328124,-1.4739999771118164,1.972499966621399,3.598599910736084
1702218161984682800,41.462682861328126,-4.353099822998047,-9.314099311828613,-5.430999755859375
1702218162044682800,41.52268286132813,-6.798500061035156,1.9391999244689941,2.947199821472168
1702218162104682800,41.582682861328124,-4.957200050354004,-3.5667998790740967,-2.9007999897003174
1702218162164682800,41.642682861328126,-4.3750996589660645,1.0413999557495117,-1.392199993133545
1702218162224682800,41.70268286132813,3.4062998294830322,-0.6929999589920044,2.6713998317718506
1702218162284682800,41.76268286132812,-2.247799873352051,0.8460999727249146,-0.7700999975204468
1702218162344682800,41.822682861328126,-0.4092999994754791,2.256899833679199,-2.073499917984009
1702218162404682800,41.88268286132813,1.5282999277114868,1.8838999271392822,-1.1542999744415283
1702218162464682800,41.94268286132812,1.1815999746322632,-1.4160000085830688,-2.756899833679199
1702218162524682800,42.002682861328125,0.7911999821662903,-2.338399887084961,-2.6898000240325928
1702218162584681200,42.06268115234375,6.853499889373779,-0.9365999698638916,-3.112799882888794
1702218162644682800,42.12268286132812,-3.529599905014038,-0.29659998416900635,-1.1065000295639038
1702218162704682800,42.182682861328125,-5.2540998458862305,-2.6415998935699463,-3.512199878692627
1702218162764682800,42.24268286132813,-4.307699680328369,-2.3237998485565186,1.2383999824523926
1702218162824682800,42.30268286132812,-1.4955999851226807,-0.029199998825788498,2.1064000129699707
1702218162884682800,42.362682861328125,-4.126399993896484,0.6803999543190002,3.5461997985839844
1702218162944682800,42.42268286132813,-2.6110999584198,1.0820999145507812,4.543600082397461
1702218163004682800,42.48268286132812,0.6037999987602234,1.71999990940094,1.0532000064849854
1702218163064682800,42.542682861328124,1.0318999290466309,2.735499858856201,-7.995100021362305
1702218163124682800,42.60268286132813,0.8183000087738037,-2.2365000247955322,-3.1407999992370605
1702218163184682800,42.66268286132812,-6.6890997886657715,-1.430799961090088,5.001899719238281
1702218163244682800,42.722682861328124,-7.603399753570557,-1.75819993019104,2.176499843597412
1702218163304682800,42.78268286132813,-4.033400058746338,-3.211199998855591,-3.6240999698638916
1702218163364682800,42.84268286132812,-2.5702998638153076,1.0949000120162964,-0.15150000154972076
1702218163424682800,42.902682861328124,-0.8789999485015869,0.43639999628067017,0.9248999953269958
1702218163484682800,42.962682861328126,-0.5342000126838684,1.2249000072479248,-0.3271999955177307
1702218163544682800,43.02268286132813,-1.3265999555587769,1.1440999507904053,-1.5997999906539917
1702218163604682800,43.082682861328124,0.505899965763092,1.0058000087738037,-0.623699963092804
1702218163664682800,43.142682861328126,2.317499876022339,-0.026200000196695328,-2.919800043106079
1702218163724682800,43.20268286132813,1.6857999563217163,0.01489999983459711,-2.1656999588012695
1702218163784682800,43.26268286132812,2.998499870300293,-1.1589999198913574,-4.114099979400635
1702218163844682800,43.322682861328126,-5.310400009155273,-0.3228999972343445,-7.834799766540527
1702218163904682800,43.38268286132813,0.7651000022888184,-4.22629976272583,-1.1597999334335327
1702218163964682800,43.44268286132812,-3.7361998558044434,-3.2941999435424805,3.0175998210906982
1702218164024682800,43.502682861328125,-2.330199956893921,0.852899968624115,1.8496999740600586
1702218164084682800,43.56268286132813,-3.094399929046631,0.2838999927043915,0.4283999800682068
1702218164144682800,43.62268286132812,-4.506400108337402,1.0404000282287598,4.3053998947143555
1702218164204682800,43.682682861328125,-1.298200011253357,2.0088999271392822,6.15310001373291
1702218164264682800,43.74268286132813,6.584699630737305,0.1143999993801117,-10.630499839782715
1702218164324682800,43.80268286132812,-5.8329997062683105,5.753699779510498,-5.165899753570557
1702218164384682800,43.862682861328125,3.42330002784729,-9.722399711608887,-2.8675999641418457
1702218164444682800,43.92268286132813,-1.8430999517440796,-0.8422999978065491,9.152099609375
1702218164504682800,43.98268286132812,-6.912299633026123,0.16169999539852142,0.2928999960422516
1702218164564709400,44.04270947265625,-5.558700084686279,-1.9365999698638916,-3.273200035095215
1702218164624682800,44.10268286132813,1.4621999263763428,1.253600001335144,2.065999984741211
1702218164684682800,44.16268286132812,-0.03519999980926514,-0.9457999467849731,0.9770999550819397
1702218164744682800,44.222682861328124,-1.8804999589920044,1.95989990234375,-0.574999988079071
1702218164804682800,44.28268286132813,-2.6345999240875244,2.354599952697754,-1.6492999792099
1702218164864682800,44.34268286132812,2.4559998512268066,0.2728999853134155,-4.915499687194824
1702218164924682800,44.402682861328124,1.9404000043869019,-1.0782999992370605,-1.4031999111175537
1702218164984682800,44.462682861328126,6.121500015258789,-0.15779998898506165,-3.350399971008301
1702218165044682800,44.52268286132813,-2.6004998683929443,-0.5367000102996826,-6.406599998474121
1702218165104682800,44.582682861328124,-3.1733999252319336,-4.008599758148193,-1.9218999147415161
1702218165164682800,44.642682861328126,-0.8529999852180481,-4.174799919128418,2.0834999084472656
1702218165224682800,44.70268286132813,-4.416199684143066,1.288599967956543,2.169299840927124
1702218165284682800,44.76268286132812,-5.305200099945068,0.6753999590873718,2.159299850463867
1702218165344682800,44.822682861328126,-3.00600004196167,0.5234000086784363,5.727599620819092
1702218165404682800,44.88268286132813,-0.7537999749183655,0.49480000138282776,3.7479000091552734
1702218165464682800,44.94268286132812,4.504499912261963,-0.7935000061988831,-7.920599937438965
1702218165524682800,45.002682861328125,-2.573699951171875,3.5924999713897705,-4.010200023651123
1702218165584682800,45.06268286132813,0.5331000089645386,-1.1150000095367432,2.537600040435791
1702218165644682800,45.12268286132812,-0.7870999574661255,-4.986199855804443,-3.7390999794006348
1702218165704682800,45.182682861328125,-6.313199996948242,-0.3260999917984009,2.605799913406372
1702218165764682800,45.24268286132813,-5.3466997146606445,-3.765899896621704,-1.6588000059127808
1702218165824682800,45.30268286132812,-3.0172998905181885,0.37459999322891235,0.2782000005245209
1702218165884682800,45.362682861328125,2.606299877166748,-0.1678999960422516,-0.004900000058114529
1702218165944682800,45.42268286132813,-3.074699878692627,1.6243000030517578,-1.802899956703186
1702218166004682800,45.48268286132812,-2.144199848175049,2.519199848175049,-2.189499855041504
1702218166064682800,45.542682861328124,5.789700031280518,0.01119999960064888,-2.376499891281128
1702218166124682800,45.60268286132813,-0.07999999821186066,-0.28540000319480896,-2.313499927520752
1702218166184681200,45.66268115234375,1.506500005722046,0.3260999917984009,-2.8773000240325928
1702218166244682800,45.722682861328124,1.9315999746322632,-2.211099863052368,-4.626899719238281
1702218166304682800,45.78268286132813,-3.130999803543091,0.2969000041484833,-2.640199899673462
1702218166364682800,45.84268286132812,-1.5690999031066895,-5.005399703979492,-0.5092999935150146
1702218166424682800,45.902682861328124,-5.571899890899658,-1.048200011253357,3.147199869155884
1702218166484682800,45.962682861328126,-5.534899711608887,0.8393999934196472,0.16869999468326569
1702218166544682800,46.02268286132813,-3.547999858856201,0.6554999947547913,0.2557999789714813
1702218166604682800,46.082682861328124,-1.7795000076293945,-0.29649999737739563,5.898099899291992
1702218166664682800,46.142682861328126,2.842599868774414,-0.009099999442696571,2.0428998470306396
1702218166724682800,46.20268286132813,1.5062999725341797,2.506999969482422,-8.097899436950684
1702218166784682800,46.26268286132812,-1.4117999076843262,2.41129994392395,-0.6191999912261963
1702218166844682800,46.322682861328126,-1.382599949836731,-9.7947998046875,-6.273599624633789
1702218166904682800,46.38268286132813,0.444599986076355,1.286199927330017,6.761099815368652
1702218166964682800,46.44268286132812,-5.931299686431885,-3.619999885559082,1.7117999792099
1702218167024682800,46.502682861328125,-4.021599769592285,-2.441999912261963,-2.002500057220459
1702218167084682800,46.56268286132813,-1.0302000045776367,1.3288999795913696,1.580299973487854
1702218167144682800,46.62268286132812,-1.097000002861023,0.07639999687671661,-1.399399995803833
1702218167204682800,46.682682861328125,-2.751499891281128,2.4846999645233154,-2.000200033187866
1702218167264682800,46.74268286132813,0.8780999779701233,1.528899908065796,-3.2581000328063965
1702218167324682800,46.80268286132812,2.1612000465393066,-0.8113999962806702,-1.6068999767303467
1702218167384682800,46.862682861328125,0.3287999927997589,0.20419999957084656,-1.5978000164031982
1702218167444682800,46.92268286132813,0.04399999976158142,-1.0192999839782715,-3.609799861907959
1702218167504682800,46.98268286132812,2.266700029373169,-2.4038000106811523,-4.698699951171875
1702218167564682800,47.042682861328124,-3.470899820327759,-1.7835999727249146,-0.5895999670028687
1702218167624682800,47.10268286132813,0.6645999550819397,-6.342700004577637,-1.7977999448776245
1702218167684682800,47.16268286132812,-1.8990999460220337,-0.5126000046730042,2.165099859237671
1702218167744682800,47.222682861328124,-4.304800033569336,0.6331999897956848,3.049299955368042
1702218167804682800,47.28268286132813,-3.685999870300293,0.7860999703407288,2.311300039291382
1702218167864682800,47.34268286132812,-2.4004998207092285,1.6389999389648438,4.542599678039551
1702218167924682800,47.402682861328124,1.222100019454956,1.6576999425888062,-2.2231998443603516
1702218167984682800,47.462682861328126,-3.408399820327759,3.07889986038208,-6.833600044250488
1702218168044682800,47.52268286132813,-1.0841000080108643,-3.371999979019165,-2.1387999057769775
1702218168104682800,47.582682861328124,-0.8330000042915344,-5.689399719238281,8.860799789428711
1702218168164682800,47.642682861328126,-5.34060001373291,-3.549499988555908,3.103799819946289
1702218168224681200,47.70268115234375,-6.282599925994873,-1.1549999713897705,-5.440299987792969
1702218168284682800,47.76268286132812,-0.8517999649047852,2.2291998863220215,-0.6678000092506409
1702218168344682800,47.822682861328126,-1.9750999212265015,-0.15760000050067902,1.7013999223709106
1702218168404682800,47.88268286132813,1.7120000123977661,1.2695999145507812,-2.461599826812744
1702218168464682800,47.94268286132812,-1.548799991607666,1.9744999408721924,-2.102799892425537
1702218168524682800,48.002682861328125,-1.2635999917984009,1.0839999914169312,-1.7005999088287354
1702218168584682800,48.06268286132813,1.1797000169754028,0.6345999836921692,-1.3026000261306763
1702218168644682800,48.12268286132812,3.8778998851776123,-1.5819000005722046,-1.345099925994873
1702218168704682800,48.182682861328125,-0.628600001335144,-3.8212997913360596,-5.635499954223633
1702218168764682800,48.24268286132813,2.687000036239624,0.4624999761581421,-1.539099931716919
1702218168824682800,48.30268286132812,-4.8993000984191895,-3.1534998416900635,-2.821499824523926
1702218168884682800,48.362682861328125,-0.8527999520301819,-3.6571998596191406,-0.14639998972415924
1702218168944682800,48.42268286132813,-4.783899784088135,0.21729999780654907,2.464099884033203
1702218169004682800,48.48268286132812,-5.432699680328369,1.3388999700546265,2.906399965286255
1702218169064682800,48.542682861328124,-3.601099967956543,1.3496999740600586,2.1521999835968018
1702218169124682800,48.60268286132813,-2.338899850845337,0.8316999673843384,4.154200077056885
1702218169184682800,48.66268286132812,3.6969997882843018,0.6245999932289124,-3.8920998573303223
1702218169244682800,48.722682861328124,-1.3586000204086304,3.015199899673462,-7.172399997711182
1702218169304682800,48.78268286132813,2.3914999961853027,-4.66949987411499,-1.1629999876022339
1702218169364682800,48.84268286132812,1.6953999996185303,-0.778499960899353,5.663899898529053
1702218169424682800,48.902682861328124,-6.3831000328063965,-4.777400016784668,0.5270999670028687
1702218169484682800,48.962682861328126,-5.081899642944336,-1.3476999998092651,-1.2010999917984009
1702218169544682800,49.02268286132813,-0.36730000376701355,1.0654000043869019,-0.07849999517202377
1702218169604682800,49.082682861328124,-0.349700003862381,0.42170000076293945,2.1736998558044434
1702218169664682800,49.142682861328126,-1.5562999248504639,1.6550999879837036,-0.48669999837875366
1702218169724682800,49.20268286132813,0.3888999819755554,1.4520000219345093,-3.098599910736084
1702218169784682800,49.26268286132812,-0.08419999480247498,1.2793999910354614,-2.121000051498413
1702218169844682800,49.322682861328126,0.6875999569892883,-0.5304999947547913,-2.1233999729156494
1702218169904682800,49.38268286132813,6.19379997253418,-0.7793999910354614,-2.657899856567383
1702218169964682800,49.44268286132812,1.0131999254226685,-0.5461999773979187,-6.360300064086914
1702218170024682800,49.502682861328125,-5.747699737548828,-2.1807000637054443,-2.2051000595092773
1702218170084682800,49.56268286132813,0.2599000036716461,-6.946599960327148,0.41769999265670776
1702218170144682800,49.62268286132812,-4.269000053405762,0.9418999552726746,2.948699951171875
1702218170204682800,49.682682861328125,-4.69350004196167,1.2308999300003052,1.28249990940094
1702218170264682800,49.74268286132813,-4.592899799346924,1.1517999172210693,4.59559965133667
1702218170324682800,49.80268286132812,-2.5247998237609863,0.682699978351593,3.8715999126434326
1702218170384682800,49.862682861328125,7.904699802398682,-1.9300999641418457,-8.460999488830566
1702218170444682800,49.92268286132813,-2.256500005722046,3.672999858856201,-2.9079999923706055
1702218170504682800,49.98268286132812,-0.13449999690055847,-3.4598000049591064,0.35999998450279236
1702218170564682800,50.042682861328124,9.904799461364746,-0.29729998111724854,0.5396999716758728
1702218170624682800,50.10268286132813,-7.619899749755859,-2.4378998279571533,2.2207999229431152
1702218170684682800,50.16268286132812,-5.3796000480651855,-2.603799819946289,-2.8561999797821045
1702218170744682800,50.222682861328124,2.366999864578247,1.8221999406814575,1.2430999279022217
1702218170804682800,50.28268286132813,-0.8784999847412109,-0.047199998050928116,1.055899977684021
1702218170864682800,50.34268286132812,-1.230799913406372,2.297299861907959,-0.08980000019073486
1702218170924682800,50.402682861328124,-0.7737999558448792,1.2760999202728271,-2.2558000087738037
1702218170984682800,50.462682861328126,4.01200008392334,0.06449999660253525,-2.131899833679199
1702218171044682800,50.52268286132813,1.1870999336242676,-0.5913000106811523,-2.697499990463257
1702218171104682800,50.582682861328124,5.003799915313721,-0.6845999956130981,-4.133899688720703
1702218171164682800,50.642682861328126,0.7227999567985535,-0.3385999798774719,-3.6462998390197754
1702218171224682800,50.70268286132813,-4.236400127410889,-4.44980001449585,-2.938199996948242
1702218171284682800,50.76268286132812,-0.937999963760376,-7.024499893188477,2.156599998474121
1702218171344682800,50.822682861328126,-4.619499683380127,1.39329993724823,2.226300001144409
1702218171404682800,50.88268286132813,-4.981800079345703,1.8075000047683716,1.7381999492645264
1702218171464682800,50.94268286132812,-3.7908999919891357,0.843999981880188,4.467199802398682
1702218171524682800,51.002682861328125,-2.3308000564575195,0.8783999681472778,3.2772998809814453
1702218171584682800,51.06268286132813,3.7311999797821045,-0.5181999802589417,-6.54640007019043
1702218171644682800,51.12268286132812,-0.4934999942779541,1.7579998970031738,-2.4659998416900635
1702218171704682800,51.182682861328125,-1.4706000089645386,-0.1005999967455864,2.9495999813079834
1702218171764682800,51.24268286132813,-5.515399932861328,-6.486999988555908,-2.980799913406372
1702218171824682800,51.30268286132812,-5.834699630737305,0.35819998383522034,1.4465999603271484
1702218171884682800,51.362682861328125,-5.403500080108643,-3.08489990234375,-2.9940998554229736
1702218171944682800,51.42268286132813,-0.761199951171875,1.0181000232696533,-0.32909998297691345
1702218172004682800,51.48268286132812,1.445199966430664,-0.7523999810218811,2.0588998794555664
1702218172064682800,51.542682861328124,-2.908900022506714,1.3207999467849731,-0.15950000286102295
1702218172124682800,51.60268286132813,-1.402899980545044,1.4809999465942383,-1.8046998977661133
1702218172184682800,51.66268286132812,5.57450008392334,-0.030799999833106995,-2.6963000297546387
1702218172244682800,51.722682861328124,-0.048499997705221176,0.2581999897956848,-3.1812000274658203
1702218172304682800,51.78268286132813,5.972399711608887,-0.7245000004768372,-3.860299825668335
1702218172364682800,51.84268286132812,0.21159999072551727,-2.125999927520752,-5.234899997711182
1702218172424682800,51.902682861328124,-4.254799842834473,-2.7754998207092285,-2.7372000217437744
1702218172484682800,51.962682861328126,-0.20909999310970306,-7.244199752807617,1.0210999250411987
1702218172544682800,52.02268286132813,-3.421299934387207,1.0995999574661255,2.2867000102996826
1702218172604682800,52.082682861328124,-5.866600036621094,1.0461000204086304,2.88539981842041
1702218172664682800,52.142682861328126,-3.7407000064849854,0.5288999676704407,4.918900012969971
1702218172724682800,52.20268286132813,-1.0152000188827515,1.313499927520752,2.6355998516082764
1702218172784682800,52.26268286132812,5.711299896240234,-1.136099934577942,-4.7602996826171875
1702218172844682800,52.322682861328126,-2.02620005607605,1.2657999992370605,-3.3788998126983643
1702218172904682800,52.38268286132813,4.516900062561035,-7.265599727630615,-3.399600028991699
1702218172964682800,52.44268286132812,-0.3797000050544739,0.9620999693870544,4.9579997062683105
1702218173024682800,52.502682861328125,-7.335000038146973,-2.3920998573303223,-0.31049999594688416
1702218173084682800,52.56268286132813,-4.694799900054932,-1.805299997329712,-3.670599937438965
1702218173144682800,52.62268286132812,-0.024899998679757118,1.5942999124526978,0.8725999593734741
1702218173204682800,52.682682861328125,-2.525899887084961,-0.02979999966919422,-0.19409999251365662
1702218173264682800,52.74268286132813,1.6337000131607056,2.201200008392334,-0.9668999910354614
1702218173324682800,52.80268286132812,-1.441999912261963,0.05889999866485596,-1.6023999452590942
1702218173384682800,52.862682861328125,-0.6690999865531921,-1.379699945449829,-1.2512999773025513
1702218173444682800,52.92268286132813,4.866399765014648,-1.4526000022888184,-0.7432000041007996
1702218173504682800,52.98268286132812,-0.4733999967575073,-1.2431999444961548,-3.9291999340057373
1702218173564682800,53.042682861328124,2.732300043106079,1.1938999891281128,-2.2704999446868896
1702218173624682800,53.10268286132813,-6.027199745178223,-2.0427000522613525,-2.989799976348877
1702218173684682800,53.16268286132812,-0.9050999879837036,-4.058499813079834,-1.7973999977111816
1702218173744682800,53.222682861328124,-3.428499937057495,0.6940000057220459,1.6480998992919922
1702218173804682800,53.28268286132813,-3.1984000205993652,0.15549999475479126,1.5899999141693115
1702218173864682800,53.34268286132812,-3.0401999950408936,-0.2638999819755554,1.5916999578475952
1702218173924682800,53.402682861328124,-1.8849999904632568,-0.26510000228881836,3.9534997940063477
1702218173984682800,53.462682861328126,0.4056999981403351,1.7640999555587769,-0.6164999604225159
1702218174044682800,53.52268286132813,-2.7797000408172607,4.78249979019165,-7.174599647521973
1702218174104682800,53.582682861328124,-1.2702999114990234,-4.564799785614014,-4.795199871063232
1702218174164682800,53.642682861328126,-2.8195998668670654,1.6337999105453491,5.844799995422363
1702218174224682800,53.70268286132813,-5.4191999435424805,-2.761199951171875,5.324399948120117
1702218174284682800,53.76268286132812,4.325399875640869,-5.345999717712402,-4.625899791717529
1702218174344682800,53.822682861328126,-7.315099716186523,0.002099999925121665,1.0645999908447266
1702218174404682800,53.88268286132813,-1.8446999788284302,0.13369999825954437,-2.2172000408172607
1702218174464682800,53.94268286132812,-0.0908999964594841,1.0850999355316162,-0.6402999758720398
1702218174524682800,54.002682861328125,-1.9799000024795532,0.821899950504303,0.6437999606132507
1702218174584682800,54.06268286132813,1.5108000040054321,0.582099974155426,-0.5033999681472778
1702218174644682800,54.12268286132812,3.194700002670288,0.8308999538421631,-2.625999927520752
1702218174704682800,54.182682861328125,1.2060999870300293,0.3050999939441681,-0.8877999782562256
1702218174764682800,54.24268286132813,-0.2978000044822693,-1.5535999536514282,-3.2328999042510986
1702218174824682800,54.30268286132812,3.9796998500823975,1.124899983406067,-3.4914000034332275
1702218174884682800,54.362682861328125,-5.136699676513672,-3.7963998317718506,-2.0513999462127686
1702218174944682800,54.42268286132813,-1.437399983406067,-2.8289999961853027,-2.5817999839782715
1702218175004682800,54.48268286132812,-0.6390999555587769,-1.198199987411499,0.9382999539375305
1702218175064682800,54.542682861328124,-3.710099935531616,0.08999999612569809,2.404899835586548
1702218175124682800,54.60268286132813,-3.224799871444702,1.3848999738693237,2.317199945449829
1702218175184682800,54.66268286132812,-3.178799867630005,1.583799958229065,2.7261998653411865
1702218175244682800,54.722682861328124,-1.9714999198913574,1.5232999324798584,3.6641998291015625
1702218175304682800,54.78268286132813,7.50499963760376,0.6489999890327454,-9.869500160217285
1702218175364682800,54.84268286132812,-1.5347999334335327,3.3341000080108643,-2.0571000576019287
1702218175424681200,54.90268115234375,-0.9860000014305115,-2.4210000038146973,3.6194000244140625
1702218175484681200,54.96268115234375,5.737400054931641,-4.681699752807617,-6.237199783325195
1702218175544681200,55.02268115234375,-8.24590015411377,-2.192999839782715,0.684499979019165
1702218175604682800,55.082682861328124,-6.438299655914307,-2.1815998554229736,-1.8106999397277832
1702218175664682800,55.142682861328126,-1.5473999977111816,1.0871999263763428,0.2003999948501587
1702218175724682800,55.20268286132813,1.4937999248504639,-1.07069993019104,0.7062999606132507
1702218175784682800,55.26268286132812,-2.3920998573303223,1.8782999515533447,-0.5252999663352966
1702218175844682800,55.322682861328126,-0.7106999754905701,0.8977999687194824,-2.812299966812134
1702218175904682800,55.38268286132813,6.532399654388428,-0.9783999919891357,-3.6965999603271484
1702218175964682800,55.44268286132812,-1.688599944114685,-1.0232999324798584,-3.7760000228881836
1702218176024682800,55.502682861328125,8.208000183105469,-1.952799916267395,-4.637199878692627
1702218176084682800,55.56268286132813,-5.745999813079834,0.6355999708175659,-1.4325000047683716
1702218176144682800,55.62268286132812,-0.7626000046730042,-5.11870002746582,-2.535799980163574
1702218176204682800,55.682682861328125,-5.319699764251709,-0.8352999687194824,3.4731998443603516
1702218176264682800,55.74268286132813,-2.9545998573303223,0.7945999503135681,1.2668999433517456
1702218176324682800,55.80268286132812,-4.366099834442139,0.837399959564209,2.102299928665161
1702218176384682800,55.862682861328125,-2.6424999237060547,1.1485999822616577,4.719699859619141
1702218176444682800,55.92268286132813,2.7235000133514404,0.2727999985218048,0.4648999869823456
1702218176504682800,55.98268286132812,1.5370999574661255,3.5611000061035156,-6.230999946594238
1702218176564682800,56.042682861328124,-1.643899917602539,2.0634000301361084,-1.2515000104904175
1702218176624682800,56.10268286132813,2.6044998168945312,-11.91249942779541,-1.8107999563217163
1702218176684682800,56.16268286132812,-6.259999752044678,1.5514999628067017,4.683599948883057
1702218176744682800,56.222682861328124,-6.683899879455566,-2.883699893951416,-2.702399969100952
1702218176804682800,56.28268286132813,-3.6601998805999756,0.06629999727010727,-1.1962999105453491
1702218176864682800,56.34268286132812,3.363999843597412,-0.9887999892234802,2.5032999515533447
1702218176924682800,56.402682861328124,-2.251499891281128,0.43869999051094055,0.18959999084472656
1702218176984682800,56.462682861328126,-1.520799994468689,2.3842999935150146,-0.4368000030517578
1702218177044682800,56.52268286132813,0.635699987411499,1.1445999145507812,-1.9951999187469482
1702218177104682800,56.582682861328124,3.8949999809265137,-1.357800006866455,-2.5600998401641846
1702218177164682800,56.642682861328126,-0.6341999769210815,0.6827999949455261,-1.940999984741211
1702218177224682800,56.70268286132813,3.1096999645233154,-1.4591999053955078,-6.0142998695373535
1702218177284682800,56.76268286132812,-5.437399864196777,-2.8282999992370605,0.0616999976336956
1702218177344682800,56.822682861328126,0.1881999969482422,-7.0889997482299805,-2.237799882888794
1702218177404682800,56.88268286132813,-3.901899814605713,0.12359999865293503,0.8517999649047852
1702218177464682800,56.94268286132812,-4.4375,0.9943999648094177,3.0304999351501465
1702218177524682800,57.002682861328125,-3.292099952697754,1.2721999883651733,3.552500009536743
1702218177584682800,57.06268286132813,-2.1088998317718506,0.819599986076355,3.179499864578247
1702218177644682800,57.12268286132812,0.7324000000953674,1.323199987411499,-1.4077999591827393
1702218177704682800,57.182682861328125,0.0843999981880188,2.1967999935150146,-6.152599811553955
1702218177764682800,57.24268286132813,-1.40749990940094,1.5329999923706055,1.871999979019165
1702218177824682800,57.30268286132812,-1.1887999773025513,-10.740699768066406,-2.9931998252868652
1702218177884682800,57.362682861328125,-6.085999965667725,1.1655999422073364,3.0727999210357666
1702218177944682800,57.42268286132813,-4.244199752807617,-3.0309998989105225,-0.6834999918937683
1702218178004682800,57.48268286132812,-2.4677999019622803,1.267799973487854,-1.7070999145507812
1702218178064682800,57.542682861328124,0.645799994468689,-0.44259998202323914,0.8021000027656555
1702218178124682800,57.60268286132813,-2.7065999507904053,1.1664999723434448,-1.6527999639511108
1702218178184682800,57.66268286132812,-0.6416999697685242,1.7894999980926514,-1.8513000011444092
1702218178244681200,57.72268115234375,-1.9114999771118164,1.4306999444961548,-1.3478000164031982
1702218178304681200,57.78268115234375,0.9461999535560608,0.4875999987125397,-1.8809999227523804
1702218178364682800,57.84268286132812,1.927299976348877,-0.351500004529953,-1.0959999561309814
1702218178424682800,57.902682861328124,1.511799931526184,-0.3140999972820282,-1.616499900817871
1702218178484682800,57.962682861328126,0.029899999499320984,-0.8476999998092651,-4.867599964141846
1702218178544682800,58.02268286132813,-2.3160998821258545,-1.62309992313385,-3.304999828338623
1702218178604682800,58.082682861328124,-1.1740999221801758,-4.0777997970581055,-0.4071999788284302
1702218178664682800,58.142682861328126,-3.099299907684326,-0.2775000035762787,1.017199993133545
1702218178724682800,58.20268286132813,-3.2637999057769775,-1.1323999166488647,2.0434000492095947
1702218178784682800,58.26268286132812,-3.1390998363494873,0.17739999294281006,2.128700017929077
1702218178844682800,58.322682861328126,-4.913300037384033,1.3772000074386597,4.293799877166748
1702218178904682800,58.38268286132813,-0.2937999963760376,3.213899850845337,2.878700017929077
1702218178964682800,58.44268286132812,1.8432999849319458,2.6431000232696533,-11.52649974822998
1702218179024682800,58.502682861328125,-0.23659999668598175,-7.517299652099609,-7.9564995765686035
1702218179084682800,58.56268286132813,-4.201499938964844,1.4280999898910522,11.371299743652344
1702218179144682800,58.62268286132812,-1.8944000005722046,-6.2154998779296875,-4.7947998046875
1702218179204682800,58.682682861328125,-4.2978997230529785,-0.3102000057697296,-0.13210000097751617
1702218179264682800,58.74268286132813,-2.6347999572753906,0.3107999861240387,-0.131400004029274
1702218179324682800,58.80268286132812,0.9953999519348145,-0.30379998683929443,0.1030999943614006
1702218179384682800,58.862682861328125,-1.881500005722046,1.6675999164581299,-1.1338000297546387
1702218179444682800,58.92268286132813,0.2101999968290329,2.5153000354766846,-1.2750999927520752
1702218179504682800,58.98268286132812,-2.218899965286255,1.4294999837875366,-1.9838999509811401
1702218179564709400,59.04270947265625,2.2283999919891357,-0.505299985408783,-3.3905999660491943
1702218179624682800,59.10268286132813,7.46429967880249,-1.9387999773025513,-0.5559999942779541
1702218179684682800,59.16268286132812,-1.3145999908447266,-0.5060999989509583,-5.142600059509277
1702218179744682800,59.222682861328124,-7.140399932861328,-0.7168999910354614,-6.0680999755859375
1702218179804682800,59.28268286132813,-0.32659998536109924,-6.242799758911133,-5.093699932098389
1702218179864682800,59.34268286132812,-6.758599758148193,-0.374099999666214,3.9263999462127686
1702218179924682800,59.402682861328124,-3.3681998252868652,0.8621999621391296,2.462899923324585
1702218179984682800,59.462682861328126,-4.45959997177124,1.2843999862670898,3.253700017929077
1702218180044682800,59.52268286132813,-3.57289981842041,0.15410000085830688,4.38569974899292
1702218180104682800,59.582682861328124,3.9382998943328857,0.0471000000834465,-0.8064999580383301
1702218180164682800,59.642682861328126,2.4544999599456787,3.446699857711792,-6.658799648284912
1702218180224682800,59.70268286132813,-0.16699999570846558,2.6940999031066895,-1.2950999736785889
1702218180284682800,59.76268286132812,-6.186800003051758,-10.193399429321289,-3.9144999980926514
1702218180344682800,59.822682861328126,-6.534299850463867,1.3996999263763428,5.124199867248535
1702218180404682800,59.88268286132813,-5.522599697113037,-5.423999786376953,-3.2654998302459717
1702218180464682800,59.94268286132812,-3.883699893951416,0.1356000006198883,-1.4621999263763428
1702218180524682800,60.002682861328125,1.3840999603271484,0.2093999981880188,1.9756999015808105
1702218180584682800,60.06268286132813,-2.031899929046631,1.0342999696731567,-0.3416000008583069
1702218180644682800,60.12268286132812,-0.1881999969482422,2.8287999629974365,-1.2062000036239624
1702218180704682800,60.182682861328125,0.56659996509552,0.7318999767303467,-2.4422998428344727
1702218180764682800,60.24268286132813,3.640199899673462,-1.0167999267578125,-1.9608999490737915
1702218180824682800,60.30268286132812,0.34129998087882996,-1.0860999822616577,-2.5892999172210693
1702218180884682800,60.362682861328125,4.574100017547607,-2.1594998836517334,-6.2855000495910645
1702218180944682800,60.42268286132813,-3.3967998027801514,0.5609999895095825,-2.288599967956543
1702218181004682800,60.48268286132812,-2.873999834060669,-4.394899845123291,-3.3439998626708984
1702218181064682800,60.542682861328124,-3.5264999866485596,-3.4089999198913574,2.40120005607605
1702218181124682800,60.60268286132813,-3.5844998359680176,1.1374999284744263,1.2798999547958374
1702218181184682800,60.66268286132812,-4.311699867248535,1.2657999992370605,1.2930999994277954
1702218181244682800,60.722682861328124,-3.97379994392395,1.4113999605178833,5.542299747467041
1702218181304682800,60.78268286132813,1.7202999591827393,0.5884999632835388,2.0785999298095703
1702218181364682800,60.84268286132812,2.2002999782562256,2.0713000297546387,-8.348699569702148
1702218181424682800,60.902682861328124,-1.1096999645233154,1.7045999765396118,-0.06109999865293503
1702218181484682800,60.962682861328126,-3.614499807357788,-7.2947998046875,-2.979599952697754
1702218181544681200,61.02268115234375,-2.5800998210906982,0.765500009059906,3.3371999263763428
1702218181604682800,61.082682861328124,-6.449999809265137,-1.2249000072479248,1.8499000072479248
1702218181664682800,61.142682861328126,-5.842599868774414,-2.662400007247925,-2.275899887084961
1702218181724682800,61.20268286132813,-0.7214999794960022,0.7305999994277954,0.9550999999046326
1702218181784682800,61.26268286132812,-1.0260000228881836,0.02419999986886978,-1.3960999250411987
1702218181844682800,61.322682861328126,-1.5450999736785889,1.680999994277954,-2.1078999042510986
1702218181904682800,61.38268286132813,1.1693999767303467,1.8034999370574951,-2.9814000129699707
1702218181964682800,61.44268286132812,-0.9126999974250793,-0.0746999979019165,-1.536199927330017
1702218182024682800,61.502682861328125,1.126099944114685,-0.38259997963905334,-3.3036999702453613
1702218182084682800,61.56268286132813,5.251899719238281,-0.41759997606277466,-3.788100004196167
1702218182144682800,61.62268286132812,0.23539999127388,0.4755999743938446,-2.0483999252319336
1702218182204682800,61.682682861328125,-7.682299613952637,-2.5807998180389404,-3.225600004196167
1702218182264682800,61.74268286132813,3.8372998237609863,-6.287799835205078,-2.2367000579833984
1702218182324682800,61.80268286132812,-5.18120002746582,0.0681999996304512,1.8988999128341675
1702218182384682800,61.862682861328125,-4.4380998611450195,0.37299999594688416,2.616799831390381
1702218182444682800,61.92268286132813,-2.2467000484466553,0.35519999265670776,4.0177998542785645
1702218182504682800,61.98268286132812,-2.536900043487549,0.9950999617576599,3.4848999977111816
1702218182564682800,62.042682861328124,3.296299934387207,0.9932999610900879,-2.0637998580932617
1702218182624682800,62.10268286132813,-2.589099884033203,3.8432998657226562,-6.164700031280518
1702218182684682800,62.16268286132812,1.249400019645691,-0.6958999633789062,0.36079999804496765
1702218182744682800,62.222682861328124,-10.89579963684082,-2.304999828338623,2.3912999629974365
1702218182804682800,62.28268286132813,-8.217599868774414,0.9758999943733215,2.2732999324798584
1702218182864682800,62.34268286132812,-6.042599678039551,-3.8026998043060303,-3.060299873352051
1702218182924682800,62.402682861328124,-3.9024999141693115,0.22360000014305115,-1.5062999725341797
1702218182984682800,62.462682861328126,-0.8804000020027161,-0.7355999946594238,0.8348999619483948
1702218183044682800,62.52268286132813,-0.9488999843597412,1.7764999866485596,-0.3852999806404114
1702218183104682800,62.582682861328124,-0.15719999372959137,1.5795999765396118,-1.7908999919891357
1702218183164682800,62.642682861328126,-0.0510999970138073,1.8930999040603638,-1.7069000005722046
1702218183224682800,62.70268286132813,0.5299000144004822,0.5860999822616577,-1.9174000024795532
1702218183284682800,62.76268286132812,1.9346998929977417,-0.512499988079071,-2.333699941635132
1702218183344682800,62.822682861328126,6.329699993133545,-1.4649999141693115,-1.136799931526184
1702218183404682800,62.88268286132813,-0.5167999863624573,-1.227199912071228,-4.797800064086914
1702218183464682800,62.94268286132812,-5.34559965133667,0.13429999351501465,-4.202300071716309
1702218183524682800,63.002682861328125,-0.39559999108314514,-4.537899971008301,-2.7040998935699463
1702218183584682800,63.06268286132813,-5.883399963378906,-1.6943999528884888,2.5872998237609863
1702218183644682800,63.12268286132812,-3.1823999881744385,0.4179999828338623,2.0636000633239746
1702218183704682800,63.182682861328125,-3.716099977493286,0.7798999547958374,1.594499945640564
1702218183764682800,63.24268286132813,-3.5182998180389404,1.7638999223709106,5.787799835205078
1702218183824682800,63.30268286132812,1.2689999341964722,0.8193999528884888,0.20109999179840088
1702218183884682800,63.362682861328125,0.25209999084472656,2.86299991607666,-7.460899829864502
1702218183944682800,63.42268286132813,-0.3617999851703644,2.9179999828338623,1.1607999801635742
1702218184004682800,63.48268286132812,-7.657599925994873,-9.683300018310547,-2.2407000064849854
1702218184064682800,63.542682861328124,-3.9254000186920166,-0.21939998865127563,2.540099859237671
1702218184124682800,63.60268286132813,-5.103499889373779,-2.760699987411499,-0.863099992275238
1702218184184682800,63.66268286132812,-2.7216999530792236,0.7030999660491943,0.12150000035762787
1702218184244682800,63.722682861328124,3.160599946975708,-0.19820000231266022,2.9038000106811523
1702218184304682800,63.78268286132813,-1.3722000122070312,0.776199996471405,-1.9257999658584595
1702218184364682800,63.84268286132812,-1.3539999723434448,2.7405998706817627,-1.740899920463562
1702218184424682800,63.902682861328124,-0.8626999855041504,1.0497000217437744,-2.3618998527526855
1702218184484682800,63.962682861328126,4.075699806213379,-0.04959999769926071,-3.28629994392395
1702218184544682800,64.02268286132812,1.566100001335144,-1.1304999589920044,-2.2254998683929443
1702218184604682800,64.08268286132812,3.3252999782562256,-1.9368000030517578,-4.9156999588012695
1702218184664682800,64.14268286132813,-1.7882999181747437,0.9329999685287476,-3.4076998233795166
1702218184724682800,64.20268286132813,-2.760699987411499,-4.07289981842041,-3.084399938583374
1702218184784682800,64.26268286132813,-3.9835000038146973,-2.7913999557495117,2.267199993133545
1702218184844682800,64.32268286132812,-3.1621999740600586,1.379499912261963,2.615299940109253
1702218184904682800,64.38268286132812,-3.2435998916625977,1.4600999355316162,1.2138999700546265
1702218184964682800,64.44268286132812,-4.216599941253662,1.5667999982833862,4.658899784088135
1702218185024682800,64.50268286132813,-0.034699998795986176,2.188699960708618,4.037499904632568
1702218185084682800,64.56268286132813,2.458899974822998,-0.03739999979734421,-10.873000144958496
1702218185144682800,64.62268286132813,-2.0272998809814453,1.581399917602539,0.21289999783039093
1702218185204682800,64.68268286132812,0.5782999992370605,-10.656999588012695,-6.09060001373291
1702218185264682800,64.74268286132812,-8.692899703979492,1.6755999326705933,10.126099586486816
1702218185324682800,64.80268286132812,-3.705699920654297,-4.416199684143066,-2.3385000228881836
1702218185384682800,64.86268286132812,-2.4874000549316406,1.8559999465942383,-2.4072999954223633
1702218185444682800,64.92268286132813,-0.30239999294281006,0.3003000020980835,1.1856999397277832
1702218185504682800,64.98268286132813,-1.701200008392334,0.4997999966144562,-0.22280000150203705
1702218185564682800,65.04268286132813,0.9314999580383301,1.9062999486923218,-1.7532999515533447
1702218185624682800,65.10268286132812,0.12459999322891235,1.341499924659729,-1.5853999853134155
1702218185684682800,65.16268286132812,0.1614999920129776,-0.4514999985694885,-2.241499900817871
1702218185744682800,65.22268286132812,1.841499924659729,0.009200000204145908,-1.7019999027252197
1702218185804682800,65.28268286132813,0.8133999705314636,0.6748999953269958,-3.929799795150757
1702218185864682800,65.34268286132813,0.32829999923706055,0.05379999801516533,-5.615299701690674
1702218185924682800,65.40268286132813,-2.7316999435424805,-3.0132999420166016,-1.6001999378204346
1702218185984682800,65.46268286132812,0.9674999713897705,-5.878299713134766,1.160099983215332
1702218186044682800,65.52268286132812,-6.191799640655518,0.4388999938964844,1.4569000005722046
1702218186104682800,65.58268286132812,-3.6138999462127686,0.3610999882221222,1.8903999328613281
1702218186164682800,65.64268286132813,-3.2577998638153076,1.4943000078201294,2.196500062942505
1702218186224682800,65.70268286132813,-4.0808000564575195,1.5937999486923218,5.158699989318848
1702218186284682800,65.76268286132813,2.756899833679199,0.8507999777793884,0.16189999878406525
1702218186344682800,65.82268286132812,-0.18119999766349792,3.2590999603271484,-8.309000015258789
1702218186404682800,65.88268286132812,0.6297000050544739,-6.81689977645874,-5.249799728393555
1702218186464682800,65.94268286132812,-1.715999960899353,-0.6110999584197998,8.649499893188477
1702218186524682800,66.00268286132813,-4.748899936676025,-5.207599639892578,-1.9204999208450317
1702218186584682800,66.06268286132813,-4.84529972076416,-0.3001999855041504,-1.5362999439239502
1702218186644682800,66.12268286132813,-0.280599981546402,0.609499990940094,0.7936999797821045
1702218186704682800,66.18268286132812,-0.9824999570846558,0.6308000087738037,-0.010900000110268593
1702218186764682800,66.24268286132812,-0.8008999824523926,1.7515000104904175,-1.9153999090194702
1702218186824682800,66.30268286132812,-0.31279999017715454,1.472999930381775,-1.8710999488830566
1702218186884682800,66.36268286132812,0.646399974822998,2.0170998573303223,0.2126999944448471
1702218186944682800,66.42268286132813,-0.31619998812675476,-0.2581999897956848,-3.700500011444092
1702218187004682800,66.48268286132813,5.528199672698975,0.04039999842643738,-2.0290000438690186
1702218187064682800,66.54268286132813,3.6066999435424805,-1.2073999643325806,-2.658099889755249
1702218187124682800,66.60268286132812,-10.963299751281738,-2.3718998432159424,-5.626899719238281
1702218187184682800,66.66268286132812,1.6584999561309814,-5.686399936676025,-2.401399850845337
1702218187244682800,66.72268286132812,-8.00059986114502,-0.2377999871969223,4.183499813079834
1702218187304682800,66.78268286132813,-4.617799758911133,1.781599998474121,1.9378999471664429
1702218187364682800,66.84268286132813,-2.5025999546051025,1.4527000188827515,2.1596999168395996
1702218187424682800,66.90268286132813,-0.2586999833583832,-0.13989999890327454,3.0934998989105225
1702218187484682800,66.96268286132812,1.2175999879837036,0.013299999758601189,-2.9350998401641846
1702218187544682800,67.02268286132812,-1.2066999673843384,4.091399669647217,-5.500699996948242
1702218187604682800,67.08268286132812,-2.7563998699188232,0.6416999697685242,0.13439999520778656
1702218187664682800,67.14268286132813,6.195699691772461,-7.498499870300293,-5.103799819946289
1702218187724682800,67.20268286132813,-5.751100063323975,-0.6897000074386597,4.345900058746338
1702218187784682800,67.26268286132813,-5.726399898529053,-2.2836999893188477,-1.4728999137878418
1702218187844682800,67.32268286132812,-0.6108999848365784,1.6495000123977661,-2.3225998878479004
1702218187904682800,67.38268286132812,1.6007999181747437,-0.7981999516487122,0.6304000020027161
1702218187964682800,67.44268286132812,-2.7021000385284424,1.5328999757766724,-0.18140000104904175
1702218188024682800,67.50268286132813,-1.070099949836731,1.4187999963760376,-0.7964999675750732
1702218188084682800,67.56268286132813,0.8337000012397766,0.4745999872684479,-3.0576000213623047
1702218188144682800,67.62268286132813,2.604300022125244,-0.3886999785900116,-2.492300033569336
1702218188204682800,67.68268286132812,-1.869399905204773,-1.1347999572753906,-4.326200008392334
1702218188264682800,67.74268286132812,5.004899978637695,2.769199848175049,-1.414199948310852
1702218188324682800,67.80268286132812,-7.979599952697754,-2.126800060272217,-7.144599914550781
1702218188384682800,67.86268286132812,1.0306999683380127,-4.4816999435424805,-0.46719998121261597
1702218188444751400,67.92275146484376,-3.6639997959136963,-1.5827999114990234,2.248499870300293
1702218188504682800,67.98268286132813,-3.539299964904785,0.5859000086784363,0.9407999515533447
1702218188564682800,68.04268286132813,-3.397599935531616,1.6073999404907227,1.1083999872207642
1702218188624682800,68.10268286132812,-2.724799871444702,2.264899969100952,7.3125996589660645
1702218188684682800,68.16268286132812,2.249300003051758,0.6284999847412109,-0.562999963760376
1702218188744682800,68.22268286132812,-3.5416998863220215,3.6369998455047607,-8.320099830627441
1702218188804682800,68.28268286132813,-0.24769999086856842,-0.2606000006198883,2.017400026321411
1702218188864682800,68.34268286132813,-4.786099910736084,-8.134499549865723,-3.0135998725891113
1702218188924682800,68.40268286132813,-7.887499809265137,1.9440999031066895,0.7239999771118164
1702218188984682800,68.46268286132812,-5.693999767303467,-3.789799928665161,-4.673799991607666
1702218189044682800,68.52268286132812,1.0276999473571777,2.2124998569488525,1.2835999727249146
1702218189104682800,68.58268286132812,0.16009999811649323,-0.5823999643325806,2.0939998626708984
1702218189164682800,68.64268286132813,-1.618399977684021,1.7818999290466309,-0.761900007724762
1702218189224682800,68.70268286132813,1.0987999439239502,1.1313999891281128,-3.351300001144409
1702218189284682800,68.76268286132813,-0.11379999667406082,1.5091999769210815,-2.424799919128418
1702218189344682800,68.82268286132812,1.5189999341964722,-0.49480000138282776,-2.632200002670288
1702218189404682800,68.88268286132812,6.358599662780762,-0.5762999653816223,-2.59309983253479
1702218189464682800,68.94268286132812,3.8945999145507812,0.4504999816417694,-5.208600044250488
1702218189524682800,69.00268286132813,-6.236499786376953,-3.9182000160217285,-3.0999999046325684
1702218189584682800,69.06268286132813,-0.3400000035762787,-4.195699691772461,-0.7601999640464783
1702218189644682800,69.12268286132813,-6.057299613952637,0.46779999136924744,2.6601998805999756
1702218189704682800,69.18268286132812,-4.057699680328369,1.1349999904632568,2.5153000354766846
1702218189764682800,69.24268286132812,-3.7988998889923096,2.2753000259399414,3.2675998210906982
1702218189824682800,69.30268286132812,0.22010000050067902,0.915399968624115,4.218800067901611
1702218189884682800,69.36268286132812,5.398699760437012,-0.1964000016450882,-8.544599533081055
1702218189944682800,69.42268286132813,-1.9855999946594238,1.5126999616622925,-1.5310999155044556
1702218190004682800,69.48268286132813,-1.6261999607086182,-0.9213999509811401,2.7971999645233154
1702218190064682800,69.54268286132813,-6.728799819946289,-2.330399990081787,-3.228099822998047
1702218190124682800,69.60268286132812,-6.9166998863220215,1.6825999021530151,3.0535998344421387
1702218190184682800,69.66268286132812,-5.396399974822998,-4.3917999267578125,-3.5857999324798584
1702218190244682800,69.72268286132812,-0.5374000072479248,3.0515999794006348,0.7764999866485596
1702218190304682800,69.78268286132813,0.3779999911785126,-0.38040000200271606,0.03759999945759773
1702218190364682800,69.84268286132813,-0.14919999241828918,1.7131999731063843,-0.7940999865531921
1702218190424682800,69.90268286132813,0.9235999584197998,0.4781000018119812,-2.515899896621704
1702218190484682800,69.96268286132812,1.2269999980926514,-0.792199969291687,-2.8625998497009277
1702218190544682800,70.02268286132812,2.856799840927124,0.2915000021457672,-3.454699993133545
1702218190604682800,70.08268286132812,2.900599956512451,-0.9581999778747559,-5.002099990844727
1702218190664682800,70.14268286132813,-7.529699802398682,-2.935999870300293,-0.7694000005722046
1702218190724682800,70.20268286132813,1.6383999586105347,-6.486299991607666,-2.666800022125244
1702218190784682800,70.26268286132813,-4.921000003814697,-0.022499999031424522,1.9713000059127808
1702218190844682800,70.32268286132812,-6.291899681091309,1.299799919128418,2.4831998348236084
1702218190904682800,70.38268286132812,-4.497099876403809,1.5994999408721924,2.7500998973846436
1702218190964682800,70.44268286132812,-4.01639986038208,2.2539000511169434,5.026599884033203
1702218191024682800,70.50268286132813,8.52769947052002,-0.7509999871253967,-6.330599784851074
1702218191084682800,70.56268286132813,-1.7012999057769775,5.030600070953369,-3.3287999629974365
1702218191144682800,70.62268286132813,-1.5707999467849731,-6.239500045776367,-3.535399913787842
1702218191204682800,70.68268286132812,-5.531399726867676,0.39640000462532043,3.0363998413085938
1702218191264682800,70.74268286132812,-5.392499923706055,-3.6168999671936035,-1.8675999641418457
1702218191324682800,70.80268286132812,-5.529799938201904,-0.36879998445510864,0.01769999973475933
1702218191384682800,70.86268286132812,0.4779999852180481,0.32099997997283936,0.9459999799728394
1702218191444682800,70.92268286132813,-0.9581999778747559,1.155900001525879,-0.661300003528595
1702218191504682800,70.98268286132813,-0.9553999900817871,1.9666999578475952,-1.3212999105453491
1702218191564682800,71.04268286132813,1.4113999605178833,0.3197999894618988,-3.1726999282836914
1702218191624682800,71.10268286132812,0.4268999993801117,-0.20799998939037323,-2.259399890899658
1702218191684682800,71.16268286132812,-0.36079999804496765,1.198599934577942,-3.6603000164031982
1702218191744682800,71.22268286132812,5.427499771118164,-2.3100998401641846,-5.4141998291015625
1702218191804682800,71.28268286132813,-3.358299970626831,1.0388000011444092,-3.8657000064849854
1702218191864682800,71.34268286132813,-2.1248998641967773,-3.202199935913086,-4.6489996910095215
1702218191924682800,71.40268286132813,-2.536799907684326,-3.398399829864502,2.1236000061035156
1702218191984682800,71.46268286132812,-3.9380998611450195,0.2402999997138977,1.1172000169754028
1702218192044682800,71.52268286132812,-3.9235999584198,0.5539999604225159,1.2330999374389648
1702218192104682800,71.58268286132812,-3.5917999744415283,0.8766999840736389,5.274600028991699
1702218192164682800,71.64268286132813,-0.9023999571800232,1.2633999586105347,5.626100063323975
1702218192224682800,71.70268286132813,3.938499927520752,0.9003999829292297,-9.429800033569336
1702218192284682800,71.76268286132813,-3.3107998371124268,4.060299873352051,-4.438699722290039
1702218192344682800,71.82268286132812,-0.6189999580383301,-3.8036999702453613,1.4737999439239502
1702218192404682800,71.88268286132812,-5.1006999015808105,-2.3949999809265137,0.8422999978065491
1702218192464682800,71.94268286132812,-6.697099685668945,0.6301000118255615,2.188499927520752
1702218192524682800,72.00268286132813,-5.814699649810791,-4.258299827575684,-4.599999904632568
1702218192584682800,72.06268286132813,2.2165000438690186,2.4068000316619873,0.8637999892234802
1702218192644682800,72.12268286132813,0.04209999740123749,-0.24459999799728394,0.22259999811649323
1702218192704682800,72.18268286132812,-2.640899896621704,1.6837999820709229,-1.0850999355316162
1702218192764682800,72.24268286132812,0.37129998207092285,1.3598999977111816,-3.073199987411499
1702218192824682800,72.30268286132812,1.3923999071121216,-0.5081999897956848,-3.690199851989746
1702218192884682800,72.36268286132812,1.052299976348877,-0.4805999994277954,-1.9128999710083008
1702218192944682800,72.42268286132813,5.720900058746338,-2.327399969100952,-3.3237998485565186
1702218193004682800,72.48268286132813,-2.926999807357788,-0.6061999797821045,-2.1429998874664307
1702218193064682800,72.54268286132813,-3.7136998176574707,-2.617799997329712,-3.2819998264312744
1702218193124682800,72.60268286132812,-3.0814998149871826,-2.7309999465942383,1.3776999711990356
1702218193184682800,72.66268286132812,-2.871999979019165,0.04339999705553055,2.3035998344421387
1702218193244682800,72.72268286132812,-4.313499927520752,0.7493000030517578,2.4323999881744385
1702218193304682800,72.78268286132813,-3.0253000259399414,1.5347999334335327,3.8051998615264893
1702218193364682800,72.84268286132813,-1.1104999780654907,1.3400999307632446,3.5834999084472656
1702218193424682800,72.90268286132813,5.658400058746338,0.6254000067710876,-10.57129955291748
1702218193484682800,72.96268286132812,-1.6146999597549438,2.4047999382019043,-1.4390000104904175
1702218193544682800,73.02268286132812,0.6026999950408936,-7.210000038146973,-0.7709999680519104
1702218193604682800,73.08268286132812,-5.154699802398682,0.9932999610900879,1.5708999633789062
1702218193664682800,73.14268286132813,-6.15339994430542,-0.5841000080108643,-1.5865999460220337
1702218193724682800,73.20268286132813,-4.182499885559082,-1.6026999950408936,-3.2281999588012695
1702218193784682800,73.26268286132813,-0.8971999883651733,0.5356999635696411,0.9959999918937683
1702218193844682800,73.32268286132812,-2.4447999000549316,0.13779999315738678,0.07490000128746033
1702218193904682800,73.38268286132812,-0.4584999978542328,2.313699960708618,-1.3762999773025513
1702218193964682800,73.44268286132812,-0.8845999836921692,0.745199978351593,-2.3315999507904053
1702218194024682800,73.50268286132813,2.575899839401245,-0.5877000093460083,-1.8174999952316284
1702218194084682800,73.56268286132813,1.5504999160766602,-1.3459999561309814,-3.096799850463867
1702218194144682800,73.62268286132813,3.9387998580932617,0.22699999809265137,-5.75439977645874
1702218194204682800,73.68268286132812,-2.935499906539917,0.02969999983906746,-1.4010999202728271
1702218194264682800,73.74268286132812,-1.8370999097824097,-4.661799907684326,-2.4286999702453613
1702218194324682800,73.80268286132812,-4.158699989318848,-1.271899938583374,1.6847000122070312
1702218194384682800,73.86268286132812,-3.5399999618530273,-0.6961999535560608,1.8221999406814575
1702218194444682800,73.92268286132813,-3.3404998779296875,1.8506999015808105,2.4049999713897705
1702218194504682800,73.98268286132813,-3.4308998584747314,3.0107998847961426,5.7816996574401855
1702218194564709400,74.04270947265626,0.45509999990463257,0.7708999514579773,0.2336999922990799
1702218194624682800,74.10268286132812,0.38339999318122864,2.4661998748779297,-7.862799644470215
1702218194684682800,74.16268286132812,-0.46889999508857727,1.3055999279022217,3.232100009918213
1702218194744682800,74.22268286132812,-3.183199882507324,-10.175399780273438,-4.6402997970581055
1702218194804682800,74.28268286132813,-6.65910005569458,3.0416998863220215,1.8042999505996704
1702218194864682800,74.34268286132813,-3.747499942779541,-3.618799924850464,-4.197199821472168
1702218194924682800,74.40268286132813,0.19859999418258667,2.3824000358581543,0.6624000072479248
1702218194984682800,74.46268286132812,-0.8490999937057495,-0.6024999618530273,2.02810001373291
1702218195044682800,74.52268286132812,-0.7196999788284302,1.7869999408721924,-0.15039999783039093
1702218195104682800,74.58268286132812,-0.6796999573707581,1.9935998916625977,-2.051300048828125
1702218195164682800,74.64268286132813,-0.08399999886751175,0.7432999610900879,-1.7417999505996704
1702218195224682800,74.70268286132813,1.9943000078201294,-1.567699909210205,-3.750499963760376
1702218195284682800,74.76268286132813,5.899099826812744,-0.734499990940094,-4.343400001525879
1702218195344682800,74.82268286132812,-1.4263999462127686,-0.08240000158548355,-3.958599805831909
1702218195404682800,74.88268286132812,-4.156199932098389,-3.441200017929077,-4.588399887084961
