time,seconds_elapsed,z,y,x
1702686763398219300,0.05921923828125,0.16359999775886536,-0.21400000154972076,0.11739999800920486
1702686763458219300,0.11921923828125,0.12849999964237213,0.054499998688697815,-0.08889999985694885
1702686763518219300,0.17921923828125,0.06610000133514404,0.013700000010430813,-0.038100000470876694
1702686763578219300,0.23921923828125,-0.05769999697804451,0.05900000035762787,-0.17970000207424164
1702686763638219300,0.29921923828125,-0.19119998812675476,-0.09730000048875809,0.08689999580383301
1702686763698219300,0.35921923828125,0.07530000060796738,-0.04470000043511391,0.0471000000834465
1702686763758219300,0.41921923828125,0.1736999899148941,-0.08699999749660492,0.11140000075101852
1702686763818219300,0.47921923828125,0.0032999999821186066,0.15889999270439148,-0.012199999764561653
1702686763878219300,0.53921923828125,-0.036399997770786285,0.065700002014637,-0.03929999843239784
1702686763938219300,0.59921923828125,-0.19139999151229858,0.07400000095367432,0.21199999749660492
1702686763998219300,0.65921923828125,-0.13899999856948853,-0.08659999817609787,0.14589999616146088
1702686764058219300,0.71921923828125,0.004299999680370092,0.02410000003874302,0.032600000500679016
1702686764118219300,0.77921923828125,-0.016999999061226845,0.0705999955534935,-0.08179999887943268
1702686764178219300,0.83921923828125,-0.1899999976158142,0.18979999423027039,-0.4080999791622162
1702686764238219300,0.89921923828125,-0.3634999990463257,0.25429999828338623,-0.09640000015497208
1702686764298219300,0.95921923828125,-0.6771000027656555,0.1826999932527542,0.37469998002052307
1702686764358219300,1.01921923828125,-0.09549999982118607,0.27309998869895935,0.04479999840259552
1702686764418219300,1.07921923828125,0.20080000162124634,-0.14959999918937683,1.0058000087738037
1702686764478219300,1.13921923828125,0.045099999755620956,-0.499099999666214,0.6053000092506409
1702686764538219300,1.19921923828125,0.27140000462532043,-0.2773999869823456,0.9334999918937683
1702686764598219300,1.25921923828125,0.07239999622106552,0.07050000131130219,0.3718999922275543
1702686764658219300,1.31921923828125,-0.3718000054359436,0.27410000562667847,0.24300000071525574
1702686764718219300,1.37921923828125,-0.5586000084877014,-0.09439999610185623,-0.8938999772071838
1702686764778219300,1.43921923828125,-0.34129998087882996,-0.04179999977350235,-0.0616999976336956
1702686764838219300,1.49921923828125,-0.24809999763965607,-0.1673000007867813,0.3361999988555908
1702686764898219300,1.55921923828125,0.2874000072479248,0.24219998717308044,-0.412200003862381
1702686764958219300,1.61921923828125,-0.6960999965667725,-0.1889999955892563,-0.9377999901771545
1702686765018219300,1.67921923828125,0.06929999589920044,-0.3968999981880188,0.07050000131130219
1702686765078219300,1.73921923828125,0.23029999434947968,0.11669999361038208,-0.280599981546402
1702686765138219300,1.79921923828125,-0.7263000011444092,0.11229999363422394,-0.5212999582290649
1702686765198219300,1.85921923828125,-0.8533999919891357,0.24740000069141388,-0.035499997437000275
1702686765258219300,1.91921923828125,0.17790000140666962,-0.2717999815940857,1.0052999258041382
1702686765318219300,1.97921923828125,0.661300003528595,0.24369999766349792,0.9092999696731567
1702686765378219300,2.03921923828125,0.30140000581741333,-0.008499999530613422,1.0852999687194824
1702686765438219300,2.09921923828125,0.6248999834060669,0.10239999741315842,-0.023599999025464058
1702686765498220800,2.159220703125,-0.2087000012397766,-0.024799998849630356,-0.32199999690055847
1702686765558219300,2.21921923828125,-0.10089999437332153,-0.00559999980032444,0.009499999694526196
1702686765618219300,2.27921923828125,0.4189999997615814,0.0568000003695488,0.3141999840736389
1702686765678219300,2.33921923828125,-0.5094000101089478,-0.15729999542236328,0.2287999987602234
1702686765738219300,2.39921923828125,-0.5604000091552734,-0.4050999879837036,-0.3986999988555908
1702686765798219300,2.45921923828125,-0.044499997049570084,0.38349997997283936,-0.17399999499320984
1702686765858219300,2.51921923828125,-0.21369999647140503,-0.12299999594688416,-0.30219998955726624
1702686765918219300,2.57921923828125,-0.10949999839067459,0.1825999915599823,-0.3321000039577484
1702686765978219300,2.63921923828125,-0.23499999940395355,0.1046999990940094,-0.6451999545097351
1702686766038219300,2.69921923828125,-1.1274999380111694,0.06340000033378601,-1.0572999715805054
1702686766098219300,2.75921923828125,-1.1237999200820923,0.4560000002384186,-0.44290000200271606
1702686766158219300,2.81921923828125,-0.5519999861717224,-0.37790000438690186,0.7810999751091003
1702686766218219300,2.87921923828125,0.09369999915361404,0.1363999992609024,1.1079000234603882
1702686766278219300,2.93921923828125,0.6922999620437622,-0.19859999418258667,1.5556999444961548
1702686766338219300,2.99921923828125,0.3125999867916107,-0.10119999945163727,0.8003000020980835
1702686766398219300,3.05921923828125,0.6579999923706055,-0.02449999935925007,0.568399965763092
1702686766458219300,3.11921923828125,-0.05209999904036522,0.05769999697804451,0.02459999918937683
1702686766518219300,3.17921923828125,-0.3730999827384949,0.1014999970793724,0.26319998502731323
1702686766578219300,3.23921923828125,-0.3646000027656555,-0.4341999888420105,-0.7188000082969666
1702686766638219300,3.29921923828125,-0.4284999966621399,-0.10740000009536743,-0.22919999063014984
1702686766698219300,3.35921923828125,0.16269999742507935,0.1305999904870987,0.4513999819755554
1702686766758219300,3.41921923828125,-0.28849998116493225,0.14710000157356262,-0.4465999901294708
1702686766818219300,3.47921923828125,-0.12780000269412994,-0.10599999874830246,-0.2985999882221222
1702686766878219300,3.53921923828125,-0.03059999831020832,-0.19519999623298645,-0.004399999976158142
1702686766938219300,3.59921923828125,0.10830000042915344,-0.02199999988079071,-0.1842999905347824
1702686766998219300,3.65921923828125,0.028999999165534973,-0.034699998795986176,-0.28599998354911804
1702686767058219300,3.71921923828125,-0.8794999718666077,0.20309999585151672,-0.7263999581336975
1702686767118219300,3.77921923828125,-1.3830000162124634,0.22689999639987946,-0.6151999831199646
1702686767178219300,3.83921923828125,-0.9684999585151672,0.598800003528595,0.15189999341964722
1702686767238219300,3.89921923828125,-0.010400000028312206,-0.06059999763965607,0.7073999643325806
1702686767298219300,3.95921923828125,0.45069998502731323,-0.3483999967575073,2.000499963760376
1702686767358219300,4.01921923828125,0.5680999755859375,-0.2639999985694885,0.9494999647140503
1702686767418219300,4.07921923828125,0.8369999527931213,0.19219999015331268,0.4875999987125397
1702686767478219300,4.13921923828125,-0.04820000007748604,-0.04839999973773956,-0.09510000050067902
1702686767538219300,4.19921923828125,-0.45339998602867126,-0.0502999983727932,-0.2565999925136566
1702686767598219300,4.25921923828125,-0.3188999891281128,0.17289999127388,0.4090999960899353
1702686767658219300,4.31921923828125,-0.31540000438690186,-0.08889999985694885,-0.29499998688697815
1702686767718219300,4.37921923828125,-0.8392999768257141,-0.06269999593496323,-0.6786999702453613
1702686767778219300,4.43921923828125,-0.29170000553131104,-0.03579999879002571,-0.0925000011920929
1702686767838219300,4.49921923828125,-0.36469998955726624,0.07369999587535858,-0.3854999840259552
1702686767898219300,4.55921923828125,-0.12029999494552612,-0.26589998602867126,-0.48589998483657837
1702686767958219300,4.61921923828125,-0.22179999947547913,-0.013599999248981476,0.060099996626377106
1702686768018219300,4.67921923828125,-0.5151000022888184,0.20829999446868896,-0.6022999882698059
1702686768078219300,4.73921923828125,-0.585599958896637,-0.4935999810695648,0.14350000023841858
1702686768138219300,4.79921923828125,0.09789999574422836,0.28329998254776,0.712399959564209
1702686768198219300,4.85921923828125,0.06419999897480011,0.09919999539852142,0.4989999830722809
1702686768258219300,4.91921923828125,-0.0551999993622303,-0.1014999970793724,0.9727999567985535
1702686768318219300,4.97921923828125,0.7470999956130981,-0.18289999663829803,0.26100000739097595
1702686768378219300,5.03921923828125,0.21149998903274536,0.03759999945759773,0.5602999925613403
1702686768438219300,5.09921923828125,0.38580000400543213,0.16529999673366547,0.5432999730110168
1702686768498219300,5.15921923828125,-0.16189999878406525,0.4048999845981598,0.6294999718666077
1702686768558219300,5.21921923828125,-0.38819998502731323,-0.17889998853206635,-0.28299999237060547
1702686768618219300,5.27921923828125,-1.2523000240325928,-0.23809999227523804,-0.186599999666214
1702686768678219300,5.33921923828125,0.07009999454021454,0.10509999841451645,-0.009999999776482582
1702686768738219300,5.39921923828125,-0.8234999775886536,0.33550000190734863,-1.4311000108718872
1702686768798219300,5.45921923828125,-0.011500000022351742,-0.3271999955177307,-0.11749999970197678
1702686768858219300,5.51921923828125,-0.11999999731779099,-0.12559999525547028,-0.3127000033855438
1702686768918219300,5.57921923828125,-0.1915999948978424,-0.2125999927520752,-0.3499999940395355
1702686768978219300,5.63921923828125,-0.8729999661445618,0.09529999643564224,-0.6568999886512756
1702686769038219300,5.69921923828125,-0.08540000021457672,-0.280599981546402,0.9802999496459961
1702686769098219300,5.75921923828125,1.354599952697754,-0.23359999060630798,0.796999990940094
1702686769158219300,5.81921923828125,0.3836999833583832,0.43140000104904175,0.3264999985694885
1702686769218219300,5.87921923828125,-0.7960999608039856,0.39899998903274536,-0.15279999375343323
1702686769278219300,5.93921923828125,0.14069999754428864,-0.26510000228881836,0.11989999562501907
1702686769338219300,5.99921923828125,-0.5737999677658081,-0.05739999935030937,0.289000004529953
1702686769398219300,6.05921923828125,-0.06929999589920044,-0.18079999089241028,0.20499999821186066
1702686769458219300,6.11921923828125,0.47189998626708984,0.11409999430179596,0.8234999775886536
1702686769518219300,6.17921923828125,0.21809999644756317,0.17469999194145203,0.9115999937057495
1702686769578219300,6.23921923828125,-0.6814999580383301,-0.1647000014781952,0.5037999749183655
1702686769638219300,6.29921923828125,-0.6886999607086182,0.04569999873638153,-0.7694000005722046
1702686769698219300,6.35921923828125,-0.9425999522209167,0.33709999918937683,-1.3488999605178833
1702686769758219300,6.41921923828125,-0.4732999801635742,-0.148499995470047,-0.7269999980926514
1702686769818219300,6.47921923828125,0.11919999867677689,-0.1021999940276146,-0.027699999511241913
1702686769878219300,6.53921923828125,-0.0071000000461936,0.08829999715089798,-0.10920000076293945
1702686769938219300,6.59921923828125,-0.34059998393058777,-0.05119999870657921,-0.08989999443292618
1702686769998219300,6.65921923828125,-0.05159999802708626,0.17459999024868011,0.17319999635219574
1702686770058219300,6.71921923828125,-0.555400013923645,0.25839999318122864,-0.31209999322891235
1702686770118219300,6.77921923828125,0.01119999960064888,-0.262800008058548,0.3482999801635742
1702686770178219300,6.83921923828125,0.25349998474121094,-0.1670999974012375,0.22029998898506165
1702686770238219300,6.89921923828125,0.007899999618530273,0.05639999732375145,0.2093999981880188
1702686770298219300,6.95921923828125,0.16759999096393585,-0.06989999860525131,0.4153999984264374
1702686770358219300,7.01921923828125,0.04820000007748604,0.07970000058412552,0.1688999980688095
1702686770418219300,7.07921923828125,-0.058799996972084045,-0.05049999803304672,0.28119999170303345
1702686770478219300,7.13921923828125,-0.24249999225139618,-0.03240000084042549,0.035599999129772186
1702686770538219300,7.19921923828125,-0.12559999525547028,-0.053700000047683716,0.08799999952316284
1702686770598219300,7.25921923828125,-0.2947999835014343,-0.14989998936653137,-0.3400000035762787
1702686770658219300,7.31921923828125,-0.027699999511241913,-0.19429999589920044,-0.01769999973475933
1702686770718219300,7.37921923828125,0.05169999971985817,-0.021900000050663948,0.26319998502731323
1702686770778219300,7.43921923828125,-0.02459999918937683,0.0010999999940395355,0.3240000009536743
1702686770838219300,7.49921923828125,-0.08100000023841858,0.07319999486207962,0.23879998922348022
1702686770898219300,7.55921923828125,-0.32899999618530273,0.08169999718666077,-0.41419997811317444
1702686770958219300,7.61921923828125,-0.2619999945163727,-0.05309999734163284,-0.11949999630451202
1702686771018219300,7.67921923828125,-0.1800999939441681,-0.13589999079704285,-0.14880000054836273
1702686771078219300,7.73921923828125,-0.37790000438690186,-0.03099999949336052,0.30820000171661377
1702686771138219300,7.79921923828125,-1.0587999820709229,-0.4884999990463257,0.625
1702686771198219300,7.85921923828125,0.5194000005722046,0.295199990272522,0.42739999294281006
1702686771258219300,7.91921923828125,-0.17219999432563782,0.4843999743461609,-1.2226999998092651
1702686771318219300,7.97921923828125,0.02889999933540821,-0.05920000001788139,-0.12039999663829803
1702686771378219300,8.03921923828125,0.4203999936580658,0.4188999831676483,0.09849999845027924
1702686771438219300,8.09921923828125,0.06929999589920044,0.1014999970793724,0.313400000333786
1702686771498219300,8.15921923828125,-0.34929999709129333,0.22269999980926514,0.6243000030517578
1702686771558219300,8.21921923828125,-0.9662999510765076,-0.43230000138282776,-0.3206999897956848
1702686771618219300,8.27921923828125,-0.7027999758720398,-0.3983999788761139,-0.5460999608039856
1702686771678219300,8.33921923828125,-0.34459999203681946,-0.10109999775886536,-0.5496999621391296
1702686771738219300,8.39921923828125,0.0494999997317791,-0.020399998873472214,-0.28380000591278076
1702686771798219300,8.45921923828125,0.12039999663829803,-0.08980000019073486,0.07639999687671661
1702686771858219300,8.51921923828125,0.14219999313354492,0.004699999932199717,0.10599999874830246
1702686771918219300,8.57921923828125,0.05509999766945839,-0.14090000092983246,0.4169999957084656
1702686771978219300,8.63921923828125,0.24300000071525574,-0.20719999074935913,0.7569999694824219
1702686772038219300,8.69921923828125,-0.3750999867916107,0.09510000050067902,-0.1363999992609024
1702686772098219300,8.75921923828125,0.20260000228881836,-0.05939999967813492,-0.20109999179840088
1702686772158219300,8.81921923828125,0.1670999974012375,0.15070000290870667,0.019600000232458115
1702686772218219300,8.87921923828125,-0.07509999722242355,0.06709999591112137,-0.20669999718666077
1702686772278219300,8.93921923828125,-0.12690000236034393,0.14959999918937683,0.25099998712539673
1702686772338219300,8.99921923828125,0.6103000044822693,0.25599998235702515,0.04189999774098396
