time,seconds_elapsed,z,y,x
1702757274079242500,0.050242431640625,0.48749998211860657,-0.21679998934268951,0.5577999949455261
1702757274139241000,0.110240966796875,0,-0.12099999934434891,-0.33239999413490295
1702757274199241000,0.170240966796875,-0.1476999968290329,-0.011299999430775642,-0.23899999260902405
1702757274259242500,0.230242431640625,-0.41429999470710754,-0.11959999799728394,-0.3003999888896942
1702757274319241000,0.290240966796875,0.2830999791622162,0.05069999769330025,0.28769999742507935
1702757274379241000,0.350240966796875,0.48259997367858887,-0.3481999933719635,0.7752000093460083
1702757274439241000,0.410240966796875,-0.1021999940276146,-0.3732999861240387,0.4950999915599823
1702757274499241000,0.470240966796875,0.12239999324083328,-0.18889999389648438,0.010999999940395355
1702757274559242500,0.530242431640625,0.08349999785423279,-0.0058999997563660145,-0.5935999751091003
1702757274619241000,0.590240966796875,0.06549999862909317,0.3619000017642975,0.028699999675154686
1702757274679242500,0.650242431640625,-0.8895999789237976,0.34790000319480896,0.058799996972084045
1702757274739241000,0.710240966796875,0.430899977684021,0.09879999607801437,0.30079999566078186
1702757274799241000,0.770240966796875,-0.4423999786376953,0.3019999861717224,-0.10869999974966049
1702757274859242500,0.830242431640625,-0.04399999976158142,0.3845999836921692,-0.08209999650716782
1702757274919241000,0.890240966796875,2.3966000080108643,-0.4635999798774719,-0.498199999332428
1702757274979241000,0.950240966796875,0.2821999788284302,0.09730000048875809,-0.057999998331069946
1702757275039241000,1.010240966796875,-0.9177999496459961,0.27539998292922974,-0.9124999642372131
1702757275099241000,1.070240966796875,-0.397599995136261,-0.9817999601364136,-0.9616999626159668
1702757275159242500,1.130242431640625,-1.059999942779541,0.23889999091625214,-0.8211999535560608
1702757275219241000,1.190240966796875,-0.9681999683380127,0.3828999996185303,-1.2276999950408936
1702757275279241000,1.250240966796875,-1.0033999681472778,0.444599986076355,-1.6908999681472778
1702757275339241000,1.310240966796875,-0.8379999995231628,-0.0616999976336956,0.9850999712944031
1702757275399241000,1.370240966796875,2.2375998497009277,-0.4098999798297882,3.4923999309539795
1702757275459242500,1.430242431640625,0.8739999532699585,0.37369999289512634,1.7415999174118042
1702757275519241000,1.490240966796875,-0.5436999797821045,-0.3021000027656555,-0.40299999713897705
1702757275579281700,1.55028173828125,0.1509999930858612,0.21289999783039093,-0.536300003528595
1702757275639242500,1.610242431640625,1.1942999362945557,0.04809999838471413,0.7137999534606934
1702757275699241000,1.670240966796875,-1.2832000255584717,-0.10659999400377274,0.43869999051094055
1702757275759242500,1.730242431640625,0.007699999958276749,-0.12289999425411224,0.6021999716758728
1702757275819241000,1.790240966796875,-0.4667999744415283,0.07589999586343765,-0.08720000088214874
1702757275879241000,1.850240966796875,-0.6304000020027161,-0.2750999927520752,-0.6782999634742737
1702757275939241000,1.910240966796875,0.5891000032424927,0.22169999778270721,-1.1187000274658203
1702757275999241000,1.970240966796875,-0.9157999753952026,-0.19999998807907104,-1.4599000215530396
1702757276059242500,2.030242431640625,-0.8197999596595764,-0.2639999985694885,-1.0893999338150024
1702757276119241000,2.090240966796875,-1.3411999940872192,-0.1996999979019165,-0.05609999969601631
1702757276179241000,2.150240966796875,-0.4761999845504761,0.861299991607666,0.26339998841285706
1702757276239241000,2.210240966796875,-0.04270000010728836,0.09809999912977219,1.678399920463562
1702757276299241000,2.270240966796875,0.24740000069141388,-0.011599999852478504,1.240899920463562
1702757276359242500,2.330242431640625,1.393399953842163,0.3127000033855438,2.271399974822998
1702757276419241000,2.390240966796875,-0.3626999855041504,-0.17430000007152557,0.09860000014305115
1702757276479241000,2.450240966796875,0.3621000051498413,-0.11159999668598175,0.2459999918937683
1702757276539242500,2.510242431640625,-0.2824999988079071,0.1761000007390976,0.7604999542236328
1702757276599241000,2.570240966796875,-0.4569000005722046,0.05849999934434891,-0.2793000042438507
1702757276659242500,2.630242431640625,-0.911899983882904,-0.3243999779224396,-1.0707999467849731
1702757276719241000,2.690240966796875,-2.3810999393463135,-0.6344000101089478,-1.3537999391555786
1702757276779241000,2.750240966796875,-1.9495999813079834,0.44189998507499695,-1.3344999551773071
1702757276839242500,2.810242431640625,-1.0550999641418457,-0.026200000196695328,-0.8896999955177307
1702757276899241000,2.870240966796875,0.10119999945163727,-0.19119998812675476,0.09079999476671219
1702757276959241000,2.930240966796875,-0.5109999775886536,-0.20979999005794525,1.0118999481201172
1702757277019241000,2.990240966796875,-0.5361999869346619,0.4026999771595001,1.2884999513626099
1702757277079241000,3.050240966796875,0.6714000105857849,-0.6997999548912048,1.2344999313354492
1702757277139241000,3.110240966796875,-0.26249998807907104,0.15309999883174896,1.480199933052063
1702757277199241000,3.170240966796875,1.0650999546051025,-0.24639999866485596,0.8024999499320984
1702757277259242500,3.230242431640625,-0.5166999697685242,0.3896999955177307,0.1665000021457672
1702757277319241000,3.290240966796875,-0.2498999983072281,0.2636999785900116,0.2822999954223633
1702757277379241000,3.350240966796875,-0.5566999912261963,0.19169999659061432,-0.11919999867677689
1702757277439241000,3.410240966796875,-0.4324999749660492,0.17639999091625214,0.16869999468326569
1702757277499241000,3.470240966796875,-0.3260999917984009,-0.13189999759197235,-0.6703999638557434
1702757277559242500,3.530242431640625,-0.5049999952316284,-0.40799999237060547,-1.3042999505996704
1702757277619241000,3.590240966796875,-0.5806999802589417,-0.2945999801158905,-1.5539000034332275
1702757277679242500,3.650242431640625,-0.9633999466896057,-0.36579999327659607,-1.1089999675750732
1702757277739241000,3.710240966796875,0.4610999822616577,-0.13699999451637268,-0.3051999807357788
1702757277799241000,3.770240966796875,-0.19669999182224274,0.28779998421669006,1.0899999141693115
1702757277859242500,3.830242431640625,0.3012000024318695,-0.31279999017715454,1.7103999853134155
1702757277919241000,3.890240966796875,0.6954999566078186,-0.11169999837875366,1.7680000066757202
1702757277979241000,3.950240966796875,0.11129999905824661,0.46769997477531433,1.326200008392334
1702757278039241000,4.010240966796875,-0.34379997849464417,0.3238999843597412,0.3707999885082245
1702757278099241000,4.070240966796875,-0.6291999816894531,0.44929999113082886,-0.24319998919963837
1702757278159242500,4.130242431640625,-0.5954999923706055,0.07779999822378159,-0.30709999799728394
1702757278219241000,4.190240966796875,-0.6274999976158142,-0.020600000396370888,-0.5375999808311462
1702757278279242500,4.250242431640625,-0.9993999600410461,-0.23809999227523804,-1.2775999307632446
1702757278339241000,4.310240966796875,-0.8723999857902527,-0.5002999901771545,-1.7081999778747559
1702757278399241000,4.370240966796875,0.43059998750686646,-0.46869999170303345,-0.45729997754096985
1702757278459242500,4.430242431640625,-1.63319993019104,0.38349997997283936,-0.5935999751091003
1702757278519241000,4.490240966796875,0.3529999852180481,-0.7224999666213989,1.3097999095916748
1702757278579278600,4.550278564453125,0.8539999723434448,0.4814999997615814,2.0307998657226562
1702757278639241000,4.610240966796875,-0.7993999719619751,-0.12019999325275421,0.7376999855041504
1702757278699241000,4.670240966796875,0.15060000121593475,-0.5320999622344971,1.2185999155044556
1702757278759241000,4.730240966796875,0.053199999034404755,0.5242999792098999,0.8032000064849854
1702757278819241000,4.790240966796875,0.093299999833107,-0.35659998655319214,0.08969999849796295
1702757278879241000,4.850240966796875,-0.027799999341368675,0.3730999827384949,0.5776999592781067
1702757278939242500,4.910242431640625,-0.7391999959945679,0.5618000030517578,-0.03920000046491623
1702757278999241000,4.970240966796875,-0.6087999939918518,0.06129999831318855,-0.8043999671936035
1702757279059242500,5.030242431640625,-1.7588999271392822,-0.2635999917984009,-1.7352999448776245
1702757279119241000,5.090240966796875,-0.12029999494552612,0.08649999648332596,-1.6657999753952026
1702757279179241000,5.150240966796875,-1.2006999254226685,-0.25110000371932983,-0.5029999613761902
1702757279239241000,5.210240966796875,0.6646999716758728,-0.7064999938011169,0.2874000072479248
1702757279299241000,5.270240966796875,0.6399999856948853,0.15279999375343323,1.6211999654769897
1702757279359242500,5.330242431640625,0.33629998564720154,0.022699998691678047,0.9506999850273132
1702757279419241000,5.390240966796875,-0.538599967956543,-0.026999998837709427,-0.22759999334812164
1702757279479241000,5.450240966796875,-0.12459999322891235,0.09829999506473541,0.7371999621391296
1702757279539241000,5.510240966796875,1.327299952507019,0.21059998869895935,1.1780999898910522
1702757279599241000,5.570240966796875,-0.5443999767303467,0.27549999952316284,0.22269999980926514
1702757279659241000,5.630240966796875,-0.10700000077486038,0.2028999924659729,-0.08529999852180481
1702757279719241000,5.690240966796875,-0.6266999840736389,0.1078999936580658,-0.11289999634027481
1702757279779241000,5.750240966796875,-0.27649998664855957,0.14710000157356262,0.012799999676644802
1702757279839241000,5.810240966796875,-0.1298999935388565,-0.07159999758005142,-0.17399999499320984
1702757279899242500,5.870242431640625,-1.3950999975204468,-0.46059998869895935,-1.2132999897003174
1702757279959241000,5.930240966796875,-0.5532999634742737,-0.16869999468326569,-1.0282000303268433
1702757280019241000,5.990240966796875,-0.6872999668121338,-0.34860000014305115,-0.9010999798774719
1702757280079241000,6.050240966796875,-0.41269999742507935,-0.3107999861240387,-0.5701999664306641
1702757280139241000,6.110240966796875,-0.30309998989105225,-0.3596999943256378,0.42339998483657837
1702757280199241000,6.170240966796875,0.3211999833583832,0.07829999923706055,1.07669997215271
1702757280259242500,6.230242431640625,0.5916999578475952,0.06700000166893005,1.536099910736084
1702757280319241000,6.290240966796875,-0.4284999966621399,-0.0013000000035390258,0.44839999079704285
1702757280379241000,6.350240966796875,0.09359999746084213,0.30969998240470886,0.7364999651908875
1702757280439241000,6.410240966796875,0.15959998965263367,0.19829998910427094,0.39649999141693115
1702757280499241000,6.470240966796875,-0.6929999589920044,0.3854999840259552,-0.007499999832361937
1702757280559241000,6.530240966796875,-0.5,0.3637999892234802,-0.3865000009536743
1702757280619241000,6.590240966796875,-0.4235999882221222,0.031700000166893005,-0.19779999554157257
1702757280679241000,6.650240966796875,-0.28759998083114624,-0.12889999151229858,-0.7418000102043152
1702757280739241000,6.710240966796875,-0.4813999831676483,-0.2621999979019165,-0.696399986743927
1702757280799241000,6.770240966796875,0.12960000336170197,-0.24379999935626984,-0.0348999984562397
1702757280859241000,6.830240966796875,0.21799999475479126,0.05729999765753746,0.6164000034332275
1702757280919241000,6.890240966796875,-0.1597999930381775,0.06480000168085098,-0.05119999870657921
1702757280979241000,6.950240966796875,-0.26829999685287476,0.14409999549388885,-0.04779999703168869
1702757281039241000,7.010240966796875,-0.2110999971628189,-0.05130000039935112,-0.03199999779462814
1702757281099241000,7.070240966796875,0.21979999542236328,-0.0737999975681305,0.33480000495910645
1702757281159241000,7.130240966796875,-0.3278000056743622,-0.32839998602867126,0.07209999859333038
1702757281219241000,7.190240966796875,0.16359999775886536,0.09609999507665634,-0.08529999852180481
1702757281279241000,7.250240966796875,-0.004600000102072954,-0.0004999999655410647,0.31349998712539673
1702757281339241000,7.310240966796875,-0.31139999628067017,-0.19460000097751617,-0.08889999985694885
1702757281399241000,7.370240966796875,-0.02410000003874302,-0.1565999984741211,0.20179998874664307
1702757281459242500,7.430242431640625,-0.07039999961853027,-0.056599996984004974,0.029399998486042023
1702757281519241000,7.490240966796875,0.051500000059604645,0.20669999718666077,0.05069999769330025
1702757281579281700,7.55028173828125,0.16369999945163727,-0.3779999911785126,0.30809998512268066
1702757281639241000,7.610240966796875,-0.037699997425079346,0.29249998927116394,-0.24219998717308044
1702757281699241000,7.670240966796875,0.06859999895095825,-0.27140000462532043,0.30230000615119934
1702757281759241000,7.730240966796875,-0.5521000027656555,-0.4050999879837036,-0.6531999707221985
1702757281819241000,7.790240966796875,-0.2345999926328659,-0.22909998893737793,-0.6571999788284302
1702757281879241000,7.850240966796875,-0.2149999886751175,-0.11789999902248383,-0.4757999777793884
1702757281939241000,7.910240966796875,0.3215000033378601,-0.0786999985575676,0.5619999766349792
1702757281999241000,7.970240966796875,0.24449999630451202,-0.003399999812245369,0.7353000044822693
1702757282059241000,8.030240966796875,-0.2883000075817108,0.16349999606609344,0.2248999923467636
1702757282119242500,8.090242431640625,-0.24169999361038208,0.06079999729990959,-0.09629999846220016
1702757282179241000,8.150240966796876,0.022699998691678047,0.13490000367164612,0.08150000125169754
1702757282239241000,8.210240966796874,-0.5533999800682068,-0.2927999794483185,0.05889999866485596
