time,seconds_elapsed,z,y,x
1702691437008155600,0.04715576171875,0.00019999999494757503,0.004699999932199717,-0.17809998989105225
1702691437068154000,0.107154052734375,-0.037299998104572296,0.035999998450279236,0.0284000001847744
1702691437128154000,0.167154052734375,-0.03830000013113022,0.01529999915510416,-0.10669999569654465
1702691437188154000,0.227154052734375,-0.1266999989748001,-0.1453000009059906,-0.10249999910593033
1702691437248154000,0.287154052734375,-0.0052999998442828655,-0.02719999849796295,0.006399999838322401
1702691437308154000,0.347154052734375,0.0032999999821186066,-0.05049999803304672,-0.12950000166893005
1702691437368154000,0.407154052734375,0.03189999982714653,0.06650000065565109,-0.1256999969482422
1702691437428154000,0.467154052734375,-0.06969999521970749,0.15330000221729279,-0.15369999408721924
1702691437488154000,0.527154052734375,-0.08329999446868896,0.1647000014781952,0.08829999715089798
1702691437548154000,0.587154052734375,0.0885000005364418,0.12839999794960022,0.1735999882221222
1702691437608154000,0.647154052734375,0.11089999973773956,0.012000000104308128,0.15539999306201935
1702691437668154000,0.707154052734375,0.2994000017642975,-0.10409999638795853,0.019700000062584877
1702691437728154000,0.767154052734375,0.03709999844431877,-0.029999999329447746,-0.3125
1702691437788154000,0.827154052734375,0.06529999524354935,-0.08009999990463257,-0.07429999858140945
1702691437848154000,0.887154052734375,0.32269999384880066,0.026499999687075615,-0.09209999442100525
1702691437908154000,0.947154052734375,-0.06069999933242798,-0.3263999819755554,0.3431999981403351
1702691437968154000,1.007154052734375,-0.39899998903274536,-0.12870000302791595,0.3409999907016754
1702691438028154000,1.067154052734375,-0.2514999806880951,0.3780999779701233,-0.07589999586343765
1702691438088154000,1.127154052734375,-0.21959999203681946,0.09679999947547913,0.2491999864578247
1702691438148154000,1.187154052734375,-0.10419999808073044,0.28139999508857727,-0.23579999804496765
1702691438208154000,1.247154052734375,0.10339999943971634,0.19749999046325684,0.06340000033378601
1702691438268154000,1.307154052734375,0.010900000110268593,0.0050999997183680534,-0.015399999916553497
1702691438328154000,1.367154052734375,0.36719998717308044,0.08449999988079071,0.13849999010562897
1702691438388154000,1.427154052734375,-0.040699999779462814,-0.14790000021457672,-0.15889999270439148
1702691438448154000,1.487154052734375,-0.24469999969005585,-0.0851999968290329,-0.4398999810218811
1702691438508154000,1.547154052734375,0.020999999716877937,-0.1314999908208847,-0.13279999792575836
1702691438568154000,1.607154052734375,0.13459999859333038,0.09259999543428421,-0.23249998688697815
1702691438628154000,1.667154052734375,0.054499998688697815,0.13599999248981476,-0.1550000011920929
1702691438688154000,1.727154052734375,0.05979999899864197,0.10729999840259552,-0.04349999874830246
1702691438748154000,1.787154052734375,0.09839999675750732,0.0608999989926815,0.29739999771118164
1702691438808154000,1.847154052734375,-0.15770000219345093,-0.20179998874664307,0.25380000472068787
1702691438868154000,1.907154052734375,0.1973000019788742,0.01589999906718731,0.19209998846054077
1702691438928154000,1.967154052734375,-0.2919999957084656,-0.002300000051036477,0.5062000155448914
1702691438988154000,2.027154052734375,0.15609999001026154,0.17919999361038208,0.19359999895095825
1702691439048154000,2.087154052734375,0.361299991607666,0.2773999869823456,-0.09910000115633011
1702691439108154000,2.147154052734375,-0.09459999948740005,0.050999999046325684,-0.28919997811317444
1702691439168154000,2.207154052734375,0.04879999905824661,-0.04270000010728836,0.044099997729063034
1702691439228154000,2.267154052734375,0.11459999531507492,-0.11369999498128891,0.13419999182224274
1702691439288154000,2.327154052734375,-0.2671000063419342,-0.18159998953342438,-0.2222999930381775
1702691439348154000,2.387154052734375,0.17319999635219574,-0.14469999074935913,-0.40039998292922974
1702691439408154000,2.447154052734375,-0.3018999993801117,0.03749999776482582,-0.9533999562263489
1702691439468154000,2.507154052734375,0.30159997940063477,0.02029999904334545,0.16979999840259552
1702691439528154000,2.567154052734375,-0.5572999715805054,0.16120000183582306,-0.24379999935626984
1702691439588154000,2.627154052734375,0.48399999737739563,-0.0803999975323677,0.4731999933719635
1702691439648154000,2.687154052734375,-0.08179999887943268,0.017400000244379044,0.5616999864578247
1702691439708154000,2.747154052734375,0.10109999775886536,0.04559999704360962,0.5771999955177307
1702691439768154000,2.807154052734375,0.16030000150203705,0.2830999791622162,-0.037699997425079346
1702691439828154000,2.867154052734375,0.01719999872148037,-0.1875,0.07660000026226044
1702691439888154000,2.927154052734375,0.35819998383522034,0.017500000074505806,0.06129999831318855
1702691439948154000,2.987154052734375,0.08959999680519104,0.017899999395012856,-0.40309998393058777
1702691440008154000,3.047154052734375,-0.5120999813079834,-0.14409999549388885,-0.8305999636650085
1702691440068154000,3.107154052734375,-0.10639999806880951,-0.21739999949932098,-0.3619000017642975
1702691440128154000,3.167154052734375,-0.13729999959468842,0.08509999513626099,-0.5881999731063843
1702691440188154000,3.227154052734375,0.1298999935388565,0.032899998128414154,0.010099999606609344
1702691440248154000,3.287154052734375,-0.10889999568462372,0.23179998993873596,0.04529999941587448
1702691440308154000,3.347154052734375,-0.008499999530613422,0.17829999327659607,0.25939998030662537
1702691440368154000,3.407154052734375,-0.21209999918937683,0.012899999506771564,0.3325999975204468
1702691440428154000,3.467154052734375,-0.15850000083446503,0.14139999449253082,0.1776999980211258
1702691440488154000,3.527154052734375,-0.12690000236034393,0.02879999950528145,0.5115000009536743
1702691440548154000,3.587154052734375,-0.05819999799132347,-0.11219999939203262,0.30239999294281006
1702691440608154000,3.647154052734375,0.16110000014305115,0.1127999946475029,0.02539999969303608
1702691440668154000,3.707154052734375,-0.008700000122189522,-0.07279999554157257,-0.23879998922348022
1702691440728154000,3.767154052734375,0.28119999170303345,-0.1298999935388565,0.0754999965429306
1702691440788154000,3.827154052734375,0.29109999537467957,0.08619999885559082,-0.10999999940395355
1702691440848154000,3.887154052734375,-0.3465999960899353,-0.2442999929189682,-0.4901999831199646
1702691440908154000,3.947154052734375,-0.21040000021457672,-0.11459999531507492,-0.4592999815940857
1702691440968154000,4.007154052734375,-0.2272999882698059,0.13930000364780426,-0.7247999906539917
1702691441028154000,4.067154052734375,-0.10520000010728836,0.1096000000834465,-0.18769998848438263
1702691441088154000,4.127154052734375,0.2418999969959259,-0.05089999735355377,0.2847000062465668
1702691441148154000,4.187154052734375,-0.4016000032424927,0.0429999977350235,0.2760999798774719
1702691441208154000,4.247154052734375,0.3414999842643738,0.028999999165534973,0.4203999936580658
1702691441268154000,4.307154052734375,-0.1622999906539917,0.10379999876022339,0.48829999566078186
1702691441328154000,4.367154052734375,-0.27719998359680176,-0.01809999905526638,0.4936999976634979
1702691441388154000,4.427154052734375,0.2685999870300293,0.3360999822616577,0.4375999867916107
1702691441448154000,4.487154052734375,0.10260000079870224,-0.04699999839067459,-0.10429999977350235
1702691441508154000,4.547154052734375,0.20029999315738678,0.04230000078678131,-0.11409999430179596
1702691441568154000,4.607154052734375,-0.17819999158382416,0.12379999458789825,-0.5539999604225159
1702691441628154000,4.667154052734375,-0.5963000059127808,-0.18279999494552612,-0.8369999527931213
1702691441688154000,4.727154052734375,0.1899999976158142,-0.20399999618530273,-0.3236999809741974
1702691441748154000,4.787154052734375,0.07279999554157257,-0.07759999483823776,-0.25529998540878296
1702691441808154000,4.847154052734375,0.24239999055862427,0.046299997717142105,-0.012999999336898327
1702691441868154000,4.907154052734375,-0.45350000262260437,0.18719999492168427,0.15399999916553497
1702691441928154000,4.967154052734375,0.12389999628067017,0.07519999891519547,0.7261999845504761
1702691441988154000,5.027154052734375,0.08370000123977661,-0.12229999899864197,0.5313000082969666
1702691442048154000,5.087154052734375,-0.5626999735832214,0.008899999782443047,-0.040300000458955765
1702691442108154000,5.147154052734375,0.2728999853134155,-0.08370000123977661,0.370199978351593
1702691442168154000,5.207154052734375,0.14710000157356262,0.05249999836087227,-0.1987999975681305
1702691442228154000,5.267154052734375,-0.1469999998807907,-0.014399999752640724,-0.5679999589920044
1702691442288154000,5.327154052734375,0.01489999983459711,-0.027799999341368675,-0.3707999885082245
1702691442348154000,5.387154052734375,-0.03449999913573265,-0.08399999886751175,-0.09449999779462814
1702691442408154000,5.447154052734375,0.02239999920129776,0.025499999523162842,-0.3538999855518341
1702691442468154000,5.507154052734375,0.37459999322891235,-0.17409999668598175,0.21779999136924744
1702691442528154000,5.567154052734375,0.19679999351501465,-0.17239999771118164,-0.11099999397993088
1702691442588154000,5.627154052734375,-0.19329999387264252,0.06439999490976334,-0.1322999894618988
1702691442648154000,5.687154052734375,0.3596999943256378,-0.016699999570846558,0.6040999889373779
1702691442708154000,5.747154052734375,-0.20340000092983246,0.22100000083446503,-0.28529998660087585
1702691442768154000,5.807154052734375,-0.05719999969005585,-0.21549999713897705,0.2611999809741974
1702691442828154000,5.867154052734375,-0.4916999936103821,0.0802999958395958,-0.2838999927043915
1702691442888154000,5.927154052734375,0.05159999802708626,-0.2272000014781952,0.00029999998514540493
1702691442948154000,5.987154052734375,-0.12399999797344208,0.024899998679757118,-0.07889999449253082
1702691443008154000,6.047154052734375,-0.24279999732971191,0.008200000040233135,-0.16210000216960907
1702691443068154000,6.107154052734375,-0.004799999762326479,0.20469999313354492,-0.10929999500513077
1702691443128154000,6.167154052734375,-0.09919999539852142,0.03460000082850456,-0.0786999985575676
1702691443188154000,6.227154052734375,0.14919999241828918,-0.05999999865889549,0.2522999942302704
1702691443248154000,6.287154052734375,-0.38329997658729553,-0.21069999039173126,-0.19429999589920044
1702691443308154000,6.347154052734375,0.32429999113082886,-0.10619999468326569,0.0575999990105629
1702691443368154000,6.407154052734375,0.3968999981880188,-0.16380000114440918,-0.08399999886751175
1702691443428154000,6.467154052734375,0.0038999998942017555,0.04189999774098396,-0.06549999862909317
1702691443488154000,6.527154052734375,-0.02019999921321869,-0.02879999950528145,0.09269999712705612
1702691443548154000,6.587154052734375,-0.2978000044822693,-0.05260000005364418,0.057099997997283936
1702691443608154000,6.647154052734375,-0.19489999115467072,-0.0867999941110611,-0.026099998503923416
1702691443668154000,6.707154052734375,-0.0997999981045723,-0.08429999649524689,0.0009999999310821295
1702691443728154000,6.767154052734375,0.055799998342990875,-0.13199999928474426,0.056599996984004974
1702691443788154000,6.827154052734375,0.0010999999940395355,-0.10520000010728836,-0.04569999873638153
1702691443848154000,6.887154052734375,0.035999998450279236,-0.0016999999061226845,-0.013100000098347664
1702691443908154000,6.947154052734375,0.5137999653816223,0.10459999740123749,0.3865000009536743
