time,seconds_elapsed,z,y,x
1702210480188824800,0.034824951171875,0.7436999678611755,-0.6553999781608582,0.08139999955892563
1702210480248817200,0.094817138671875,-0.14299999177455902,0.1630999892950058,0.11580000072717667
1702210480308817200,0.154817138671875,-0.23240000009536743,0.050200000405311584,0.05169999971985817
1702210480368817200,0.214817138671875,-0.10480000078678131,-0.03869999945163727,0.125
1702210480428817200,0.274817138671875,-0.6090999841690063,-0.09389999508857727,-0.006799999624490738
1702210480488817200,0.334817138671875,-0.24949999153614044,0.013899999670684338,0.2784999907016754
1702210480548843500,0.394843505859375,-0.9984999895095825,-0.08789999783039093,0.33159998059272766
1702210480608817200,0.454817138671875,-1.792699933052063,-0.5309000015258789,-0.5586999654769897
1702210480668817200,0.514817138671875,0.9681999683380127,-1.3355000019073486,-1.0016000270843506
1702210480728817200,0.574817138671875,-1.1129999160766602,0.6542999744415283,1.4596999883651733
1702210480788817200,0.634817138671875,2.149199962615967,-0.1468999981880188,1.146299958229065
1702210480848817200,0.694817138671875,0.4220999777317047,0.22669999301433563,-0.10349999368190765
1702210480908817200,0.754817138671875,0.8416000008583069,0.22599999606609344,-0.003499999875202775
1702210480968817200,0.814817138671875,-1.3370999097824097,-0.3977999985218048,-2.281100034713745
1702210481028817200,0.874817138671875,1.7282999753952026,0.70169997215271,0.337799996137619
1702210481088817200,0.934817138671875,0.10249999910593033,-0.3553999960422516,-0.07729999721050262
1702210481148817200,0.994817138671875,-1.8997999429702759,-0.6025999784469604,1.6715999841690063
1702210481208817200,1.054817138671875,-2.0952000617980957,0.10559999942779541,-0.002699999837204814
1702210481268817200,1.114817138671875,-1.3377999067306519,-0.2402999997138977,0.16859999299049377
1702210481328817200,1.174817138671875,-3.019899845123291,0.48499998450279236,-1.8112999200820923
1702210481388817200,1.234817138671875,3.261699914932251,-0.47259998321533203,-0.6428999900817871
1702210481448817200,1.294817138671875,-2.8788998126983643,-0.5925999879837036,-1.7910999059677124
1702210481508817200,1.354817138671875,-0.29739999771118164,-0.29899999499320984,-0.0568000003695488
1702210481568817200,1.414817138671875,2.72979998588562,-0.19869999587535858,-1.2730000019073486
1702210481628817200,1.474817138671875,-1.8955999612808228,1.9993999004364014,1.520900011062622
1702210481688817200,1.534817138671875,1.3823000192642212,1.1212999820709229,3.0058999061584473
1702210481748817200,1.594817138671875,1.4000999927520752,-1.6542999744415283,-4.583600044250488
1702210481808817200,1.654817138671875,-4.695799827575684,-1.5376999378204346,0.6110000014305115
1702210481868817200,1.714817138671875,1.6955000162124634,-4.825799942016602,6.408999919891357
1702210481928817200,1.774817138671875,-4.827300071716309,-2.77020001411438,0.984499990940094
1702210481988817200,1.834817138671875,-1.9377999305725098,1.46999990940094,3.291599988937378
1702210482048817200,1.894817138671875,5.3979997634887695,5.0183000564575195,-2.4644999504089355
1702210482108817200,1.954817138671875,-1.3014999628067017,2.885200023651123,0.7166999578475952
1702210482168817200,2.014817138671875,-2.7585999965667725,-0.9617999792098999,-1.3888999223709106
1702210482228817200,2.074817138671875,-1.7644999027252197,-0.32580000162124634,-0.9578999876976013
1702210482288817200,2.134817138671875,-2.34660005569458,0.3220999836921692,1.6560999155044556
1702210482348817200,2.194817138671875,3.4972000122070312,2.694000005722046,-2.608599901199341
1702210482408817200,2.254817138671875,2.136699914932251,-1.5606999397277832,0.10729999840259552
1702210482468817200,2.314817138671875,-1.6825000047683716,0.9878999590873718,0.6884999871253967
1702210482528817200,2.374817138671875,-2.0806000232696533,-1.2029999494552612,-0.1817999929189682
1702210482588817200,2.434817138671875,-2.164799928665161,-0.876800000667572,0.623199999332428
1702210482648817200,2.494817138671875,0.09299999475479126,-0.5561999678611755,-4.031199932098389
1702210482708817200,2.554817138671875,-0.12600000202655792,-0.801099956035614,-2.2826998233795166
1702210482768817200,2.614817138671875,-0.25040000677108765,-1.1837999820709229,2.552000045776367
1702210482828817200,2.674817138671875,0.1111999973654747,-1.1394000053405762,-0.11339999735355377
1702210482888817200,2.734817138671875,0.5270999670028687,0.08989999443292618,1.1974999904632568
1702210482948817200,2.794817138671875,-1.3116999864578247,-0.890999972820282,-0.7567999958992004
1702210483008817200,2.854817138671875,1.8988999128341675,3.0281999111175537,3.687999963760376
1702210483068817200,2.914817138671875,-0.48539999127388,0.29420000314712524,-0.527999997138977
1702210483128817200,2.974817138671875,0.001999999862164259,-1.4764999151229858,-2.128700017929077
1702210483188817200,3.034817138671875,1.0038999319076538,0.7919999957084656,2.631899833679199
1702210483248817200,3.094817138671875,-0.30300000309944153,0.2637999951839447,0.7787999510765076
1702210483308817200,3.154817138671875,0.008799999952316284,-0.9301999807357788,-3.0611000061035156
1702210483368817200,3.214817138671875,-1.9548999071121216,-0.007499999832361937,-2.82669997215271
1702210483428817200,3.274817138671875,0.23989999294281006,0.5048999786376953,7.029699802398682
1702210483488817200,3.334817138671875,-0.7441999912261963,-1.75,-5.4928998947143555
1702210483548817200,3.394817138671875,0.11699999868869781,1.3910999298095703,-0.14339999854564667
1702210483608817200,3.454817138671875,3.248699903488159,2.51039981842041,1.9747999906539917
1702210483668817200,3.514817138671875,-2.7319998741149902,-3.205699920654297,1.1263999938964844
1702210483728817200,3.574817138671875,1.01010000705719,0.5525999665260315,-2.673099994659424
1702210483788817200,3.634817138671875,0.35679998993873596,0.9298999905586243,1.767300009727478
1702210483848817200,3.694817138671875,0.45229998230934143,0.32089999318122864,3.1390998363494873
1702210483908817200,3.754817138671875,-0.7538999915122986,-0.7626000046730042,-4.042099952697754
1702210483968817200,3.814817138671875,0.7426999807357788,-0.19529999792575836,-0.483599990606308
1702210484028817200,3.874817138671875,-1.32260000705719,0.5895999670028687,-1.0299999713897705
1702210484088817200,3.934817138671875,-0.7402999997138977,-0.6028000116348267,0.6468999981880188
1702210484148818700,3.994818603515625,-2.3344998359680176,-0.4610999822616577,-1.1239999532699585
1702210484208817200,4.054817138671875,4.595699787139893,-2.9530999660491943,1.08079993724823
1702210484268817200,4.114817138671875,-0.8569999933242798,1.9103999137878418,3.608299970626831
1702210484328817200,4.174817138671875,0.6762999892234802,0.9138000011444092,1.6272999048233032
1702210484388817200,4.234817138671875,3.4290997982025146,0.7892999649047852,0.3797000050544739
1702210484448817200,4.294817138671875,-3.0683999061584473,-0.7354999780654907,-3.0951998233795166
1702210484508817200,4.354817138671875,-1.0583000183105469,-1.7662999629974365,-1.83489990234375
1702210484568817200,4.414817138671875,-1.684999942779541,-0.70169997215271,1.3734999895095825
1702210484628817200,4.474817138671875,4.7932000160217285,-1.6209999322891235,-2.1766998767852783
1702210484688817200,4.534817138671875,1.1937999725341797,1.2769999504089355,-2.5381999015808105
1702210484748817200,4.594817138671875,1.6337000131607056,2.081399917602539,-5.35759973526001
1702210484808817200,4.654817138671875,-1.4520999193191528,-3.306999921798706,0.5533999800682068
1702210484868817200,4.714817138671875,3.8123998641967773,0.7292999625205994,0.13239999115467072
1702210484928817200,4.774817138671875,0.039000000804662704,-0.31200000643730164,3.7863998413085938
1702210484988817200,4.834817138671875,-1.0210000276565552,1.4351999759674072,0.16189999878406525
1702210485048817200,4.894817138671875,0.5583999752998352,-0.1573999971151352,0.8586999773979187
1702210485108817200,4.954817138671875,-1.9233999252319336,-0.2583000063896179,-0.7057999968528748
1702210485168817200,5.014817138671875,-0.08419999480247498,-1.1626999378204346,-0.14149999618530273
1702210485228817200,5.074817138671875,0.6959999799728394,-0.9083999991416931,-1.5690999031066895
1702210485288817200,5.134817138671875,0.5916999578475952,-0.5133000016212463,0.7364999651908875
1702210485348817200,5.194817138671875,1.5303999185562134,-0.10329999774694443,2.386699914932251
1702210485408817200,5.254817138671875,3.8866000175476074,-1.6258000135421753,1.1495000123977661
1702210485468817200,5.314817138671875,0.1907999962568283,0.7306999564170837,-0.14559999108314514
1702210485528817200,5.374817138671875,0.3870999813079834,0.002099999925121665,-0.3034999966621399
1702210485588817200,5.434817138671875,-0.39309999346733093,-0.21229998767375946,-0.1833999902009964
1702210485648817200,5.494817138671875,0.9881999492645264,-1.2644000053405762,0.08229999989271164
1702210485708817200,5.554817138671875,-1.2172999382019043,0.029899999499320984,-0.023799998685717583
1702210485768817200,5.614817138671875,-1.3686000108718872,0.07539999485015869,0.5733999609947205
1702210485828817200,5.674817138671875,-1.11899995803833,-0.6911999583244324,-0.778499960899353
1702210485888817200,5.734817138671875,-1.1294000148773193,-0.3025999963283539,-0.44759997725486755
1702210485948817200,5.794817138671875,-1.0497000217437744,-0.26739999651908875,-0.23070000112056732
1702210486008817200,5.854817138671875,-0.07409999519586563,-0.13699999451637268,-0.19269999861717224
1702210486068817200,5.914817138671875,0.5293999910354614,-0.016499999910593033,0.1647000014781952
1702210486128817200,5.974817138671875,0.7405999898910522,0.06619999557733536,0.4504999816417694
1702210486188817200,6.034817138671875,1.1469999551773071,-0.147599995136261,0.33219999074935913
1702210486248817200,6.094817138671875,0.5651999711990356,0.08150000125169754,0.14579999446868896
1702210486308817200,6.154817138671875,0.19409999251365662,-0.4034999907016754,-0.12549999356269836
1702210486368817200,6.214817138671875,-0.4934999942779541,-0.2289000004529953,-0.17249999940395355
1702210486428817200,6.274817138671875,-0.29099997878074646,-0.41119998693466187,-0.1264999955892563
1702210486488817200,6.334817138671875,-0.04699999839067459,-0.6862999796867371,-0.0892999991774559
1702210486548817200,6.394817138671875,-0.4486999809741974,-0.3675999939441681,-0.22219999134540558
1702210486608817200,6.454817138671875,0.0139999995008111,0.16339999437332153,-0.4296000003814697
1702210486668817200,6.514817138671875,0.41519999504089355,0.675599992275238,-0.20349998772144318
1702210486728817200,6.574817138671875,0.289000004529953,-0.3677999973297119,-0.2919999957084656
1702210486788817200,6.634817138671875,0.27219998836517334,-0.6071000099182129,0.14819999039173126
1702210486848817200,6.694817138671875,-0.25619998574256897,-0.6008999943733215,0.026499999687075615
1702210486908817200,6.754817138671875,-0.39259999990463257,-0.7860999703407288,-0.15299999713897705
1702210486968817200,6.814817138671875,-0.7121999859809875,-0.630899965763092,-0.018799999728798866
1702210487028817200,6.874817138671875,-0.42899999022483826,-0.6025999784469604,0.01679999940097332
1702210487088817200,6.934817138671875,-0.19679999351501465,-0.38419997692108154,0.08989999443292618
1702210487148817200,6.994817138671875,-0.12319999933242798,-0.25699999928474426,0.03059999831020832
1702210487208817200,7.054817138671875,0.032499998807907104,-0.3249000012874603,0.22129999101161957
1702210487268817200,7.114817138671875,-0.1621999889612198,-0.16129998862743378,0.10099999606609344
1702210487328817200,7.174817138671875,-0.19509999454021454,-0.34849998354911804,-0.05889999866485596
1702210487388817200,7.234817138671875,-0.11329999566078186,-0.33709999918937683,-0.12229999899864197
1702210487448817200,7.294817138671875,-0.09079999476671219,-0.41110000014305115,-0.08529999852180481
1702210487508817200,7.354817138671875,-0.13009999692440033,-0.26969999074935913,0.16279999911785126
1702210487568817200,7.414817138671875,-0.4099999964237213,-0.19759999215602875,0.17880000174045563
1702210487628817200,7.474817138671875,-0.2505999803543091,-0.2434999942779541,0.0348999984562397
1702210487688817200,7.534817138671875,0.19110000133514404,-0.36569997668266296,-0.22280000150203705
1702210487748817200,7.594817138671875,0.18369999527931213,-0.25939998030662537,-0.13859999179840088
1702210487808817200,7.654817138671875,-0.24139998853206635,-0.22349999845027924,-0.1356000006198883
1702210487868817200,7.714817138671875,-1.6764999628067017,-0.12690000236034393,-0.23629999160766602
1702210487928817200,7.774817138671875,-1.858799934387207,-0.35409998893737793,0.18050000071525574
1702210487988817200,7.834817138671875,-0.6218999624252319,-0.8431999683380127,-0.23420000076293945
1702210488048817200,7.894817138671875,-0.1607999950647354,-0.739799976348877,-0.3854999840259552
1702210488108817200,7.954817138671875,1.1231999397277832,-1.3429999351501465,1.017899990081787
1702210488168817200,8.014817138671875,0.2915000021457672,0.9158999919891357,2.191699981689453
1702210488228817200,8.074817138671875,-0.5374000072479248,0.10769999772310257,0.9881999492645264
1702210488288817200,8.134817138671876,0.5514000058174133,-0.5936999917030334,0.8452999591827393
1702210488348817200,8.194817138671874,0.06199999898672104,1.7608999013900757,0.5460000038146973
1702210488408817200,8.254817138671875,-0.39719998836517334,-2.8355000019073486,-0.4583999812602997
1702210488468817200,8.314817138671875,-1.5841000080108643,1.2114999294281006,3.5134999752044678
1702210488528817200,8.374817138671874,-1.164199948310852,0.08839999884366989,2.481099843978882
1702210488588817200,8.434817138671875,-0.7786999940872192,-2.1240999698638916,-0.20759999752044678
1702210488648817200,8.494817138671875,-1.823199987411499,-1.563599944114685,-1.1151000261306763
1702210488708817200,8.554817138671876,-1.0303999185562134,0.8406999707221985,-1.7335999011993408
1702210488768817200,8.614817138671874,0.2879999876022339,1.19159996509552,0.11509999632835388
1702210488828817200,8.674817138671875,1.125999927520752,1.129699945449829,0.023399999365210533
1702210488888817200,8.734817138671875,2.0291998386383057,0.6017000079154968,-0.49239999055862427
1702210488948817200,8.794817138671876,1.1121000051498413,0.39319998025894165,-0.36910000443458557
1702210489008817200,8.854817138671875,0.46299999952316284,0.7378000020980835,-0.7024999856948853
1702210489068817200,8.914817138671875,0.5167999863624573,0.8786999583244324,-0.8144999742507935
1702210489128817200,8.974817138671876,0.560699999332428,0.9262999892234802,-1.5162999629974365
1702210489188817200,9.034817138671874,1.0540999174118042,-0.36239999532699585,-0.7658999562263489
1702210489248817200,9.094817138671875,2.3080999851226807,-0.6985999941825867,0.9197999835014343
1702210489308817200,9.154817138671875,2.280900001525879,0.3471999764442444,1.2732999324798584
1702210489368817200,9.214817138671876,-0.08669999986886978,1.022499918937683,1.087999939918518
1702210489428817200,9.274817138671875,-0.2157999873161316,0.1233999952673912,0.4258999824523926
1702210489488817200,9.334817138671875,-1.3768999576568604,1.0276999473571777,0.4870999753475189
1702210489548817200,9.394817138671876,-0.3852999806404114,0.899399995803833,0.11659999936819077
1702210489608817200,9.454817138671874,0.11989999562501907,0.23929999768733978,-1.6121000051498413
1702210489668817200,9.514817138671875,-0.6395999789237976,0.8772000074386597,-0.5550999641418457
1702210489728817200,9.574817138671875,-0.3969999849796295,1.0261999368667603,-0.8655999898910522
1702210489788817200,9.634817138671876,-1.1258000135421753,0.17970000207424164,-1.399999976158142
1702210489848817200,9.694817138671874,-1.6335999965667725,0.0543999969959259,-1.0418999195098877
1702210489908817200,9.754817138671875,-0.8527999520301819,-0.19489999115467072,-0.6791999936103821
1702210489968817200,9.814817138671875,1.0013999938964844,-4.294600009918213,2.801100015640259
1702210490028817200,9.874817138671874,3.6576998233795166,-2.968400001525879,4.459700107574463
1702210490088817200,9.934817138671875,1.8037999868392944,-0.7610999941825867,0.748699963092804
1702210490148817200,9.994817138671875,-4.178999900817871,2.534099817276001,-0.2987000048160553
1702210490208817200,10.054817138671876,-10.55739974975586,3.7814998626708984,-1.3595999479293823
1702210490268817200,10.114817138671874,-7.3566999435424805,-1.5686999559402466,-3.3130998611450195
1702210490328817200,10.174817138671875,-5.31220006942749,-5.13569974899292,-4.296499729156494
1702210490388817200,10.234817138671875,-2.46370005607605,-8.317299842834473,-4.200699806213379
1702210490448817200,10.294817138671876,-0.49399998784065247,-12.3641996383667,-1.9965999126434326
1702210490508817200,10.354817138671875,3.5226998329162598,-12.224199295043945,3.727599859237671
1702210490568817200,10.414817138671875,5.6215996742248535,-9.232099533081055,4.319699764251709
1702210490628817200,10.474817138671876,4.9217000007629395,-4.429199695587158,4.9741997718811035
1702210490688817200,10.534817138671874,5.5702996253967285,-2.680999994277954,6.68120002746582
1702210490748817200,10.594817138671875,5.138700008392334,0.5302000045776367,8.89989948272705
1702210490808817200,10.654817138671875,3.695199966430664,4.175300121307373,8.628499984741211
1702210490868817200,10.714817138671876,1.8320999145507812,5.202600002288818,9.588299751281738
1702210490928817200,10.774817138671875,-0.3182999789714813,3.274899959564209,10.769499778747559
1702210490988817200,10.834817138671875,0.23600000143051147,-0.36820000410079956,8.69320011138916
1702210491048817200,10.894817138671876,2.11080002784729,-2.6723999977111816,6.781799793243408
1702210491108817200,10.954817138671874,2.5088999271392822,-5.849999904632568,5.072099685668945
1702210491168817200,11.014817138671875,1.5561999082565308,-8.513199806213379,3.8427000045776367
1702210491228817200,11.074817138671875,1.0362999439239502,-11.144599914550781,3.2211999893188477
1702210491288817200,11.134817138671876,1.5504999160766602,-8.859600067138672,-1.4943000078201294
1702210491348817200,11.194817138671874,2.1703999042510986,-4.874599933624268,-4.154999732971191
1702210491408817200,11.254817138671875,1.079699993133545,-3.87749981880188,-5.774299621582031
1702210491468817200,11.314817138671875,-0.32839998602867126,-4.8059000968933105,-7.781299591064453
1702210491528817200,11.374817138671874,-0.5809999704360962,-3.5896999835968018,-10.807099342346191
1702210491588817200,11.434817138671875,-1.4866999387741089,-3.5708999633789062,-11.676799774169922
1702210491648817200,11.494817138671875,-2.010499954223633,-7.9838995933532715,-9.015799522399902
1702210491708817200,11.554817138671876,-2.571899890899658,-11.927599906921387,-3.316999912261963
1702210491768817200,11.614817138671874,-3.570199966430664,-13.916899681091309,1.8249999284744263
1702210491828817200,11.674817138671875,0.1501999944448471,-8.748600006103516,8.02180004119873
1702210491888817200,11.734817138671875,0.12879998981952667,-1.1101000308990479,4.545899868011475
1702210491948817200,11.794817138671876,1.99399995803833,0.9916999936103821,2.8386998176574707
1702210492008817200,11.854817138671875,2.659299850463867,-0.8628000020980835,5.947000026702881
1702210492068817200,11.914817138671875,4.157400131225586,-1.2518999576568604,11.983599662780762
1702210492128817200,11.974817138671876,3.5188000202178955,0.8159999847412109,12.581999778747559
1702210492188817200,12.034817138671874,3.44569993019104,-0.34860000014305115,13.592199325561523
1702210492248817200,12.094817138671875,1.587499976158142,-3.6327998638153076,9.088500022888184
1702210492308817200,12.154817138671875,1.741499900817871,-8.049300193786621,8.469399452209473
1702210492368817200,12.214817138671876,1.636199951171875,-8.853400230407715,5.553999900817871
1702210492428817200,12.274817138671875,0.59579998254776,-6.295599937438965,0.09789999574422836
1702210492488817200,12.334817138671875,0.2938999831676483,-5.196700096130371,-2.5530998706817627
1702210492548817200,12.394817138671876,-0.28619998693466187,-6.134399890899658,-5.280799865722656
1702210492608817200,12.454817138671874,1.0305999517440796,-5.461199760437012,-12.814899444580078
1702210492668817200,12.514817138671875,-2.2712998390197754,-6.32859992980957,-15.823399543762207
1702210492728817200,12.574817138671875,-0.6814999580383301,-5.712100028991699,-4.281599998474121
1702210492788817200,12.634817138671876,-1.6068999767303467,-9.478799819946289,-5.693299770355225
1702210492848817200,12.694817138671874,-1.6420999765396118,-8.515799522399902,-3.9348998069763184
1702210492908817200,12.754817138671875,0.8783999681472778,-4.597099781036377,-1.434999942779541
1702210492968817200,12.814817138671875,0.44669997692108154,-1.990899920463562,2.259999990463257
1702210493028817200,12.874817138671874,0.32600000500679016,-2.9656999111175537,5.397799968719482
1702210493088817200,12.934817138671875,2.3232998847961426,-3.653899908065796,8.26669979095459
1702210493148818700,12.994818603515625,0.5415999889373779,-0.07569999992847443,12.655499458312988
1702210493208817200,13.054817138671876,-1.2180999517440796,2.145900011062622,14.568900108337402
1702210493268817200,13.114817138671874,-1.7750999927520752,1.9030998945236206,13.156299591064453
1702210493328817200,13.174817138671875,-2.074399948120117,-4.617700099945068,12.006699562072754
1702210493388817200,13.234817138671875,-0.6162999868392944,-8.648900032043457,8.300899505615234
1702210493448817200,13.294817138671876,1.1196999549865723,-6.349899768829346,3.7553999423980713
1702210493508817200,13.354817138671875,2.4350998401641846,-5.222300052642822,-0.6780999898910522
1702210493568817200,13.414817138671875,1.6972999572753906,-5.745800018310547,-3.2112998962402344
1702210493628817200,13.474817138671876,2.7932000160217285,-8.142199516296387,-5.025899887084961
1702210493688817200,13.534817138671874,5.743099689483643,-7.5548996925354,-9.619500160217285
1702210493748817200,13.594817138671875,1.1964999437332153,-9.104299545288086,-13.386199951171875
1702210493808817200,13.654817138671875,-1.517799973487854,-7.945399761199951,-9.933300018310547
1702210493868817200,13.714817138671876,-3.516700029373169,-11.010199546813965,-3.333400011062622
1702210493928817200,13.774817138671875,-0.07419999688863754,-7.4701995849609375,1.4378999471664429
1702210493988817200,13.834817138671875,0.696399986743927,-3.0486998558044434,3.9498000144958496
1702210494048817200,13.894817138671876,0.25360000133514404,-3.131700038909912,4.369899749755859
1702210494108817200,13.954817138671874,0.7699999809265137,-3.3698999881744385,8.05270004272461
1702210494168817200,14.014817138671875,-0.9034000039100647,0.006899999920278788,13.949899673461914
1702210494228817200,14.074817138671875,-3.5120999813079834,1.8013999462127686,14.584599494934082
1702210494288817200,14.134817138671876,-5.486099720001221,0.9462999701499939,12.186200141906738
1702210494348817200,14.194817138671874,-5.003900051116943,-2.1621999740600586,10.545000076293945
1702210494408817200,14.254817138671875,-2.5226998329162598,-5.633299827575684,8.351799964904785
1702210494468817200,14.314817138671875,-0.15299999713897705,-4.898299694061279,4.9639997482299805
1702210494528817200,14.374817138671874,1.542099952697754,-3.0827999114990234,1.7221999168395996
1702210494588817200,14.434817138671875,2.351799964904785,-4.9293999671936035,-0.6205999851226807
1702210494648817200,14.494817138671875,4.138599872589111,-7.07859992980957,-1.2391999959945679
1702210494708817200,14.554817138671876,5.736099720001221,-9.114899635314941,-4.316400051116943
1702210494768817200,14.614817138671874,6.068999767303467,-7.391599655151367,-7.93019962310791
1702210494828817200,14.674817138671875,2.4321000576019287,-7.033499717712402,-8.843799591064453
1702210494888817200,14.734817138671875,-1.0461000204086304,-9.63129997253418,-6.042599678039551
1702210494948817200,14.794817138671876,-0.6383999586105347,-6.308199882507324,-3.82919979095459
1702210495008817200,14.854817138671875,-1.2770999670028687,-1.0757999420166016,-1.8782999515533447
1702210495068817200,14.914817138671875,-0.06579999625682831,-0.8813999891281128,1.3629000186920166
1702210495128817200,14.974817138671876,-1.2232999801635742,-4.843999862670898,4.771199703216553
1702210495188817200,15.034817138671874,-0.7717999815940857,-1.8300999402999878,11.391200065612793
1702210495248817200,15.094817138671875,-3.7652997970581055,1.431399941444397,9.984899520874023
1702210495308817200,15.154817138671875,-4.467899799346924,-0.257099986076355,10.450499534606934
1702210495368817200,15.214817138671876,-4.959399700164795,-1.1381999254226685,11.400599479675293
1702210495428817200,15.274817138671875,-3.6024999618530273,-3.7867000102996826,9.442299842834473
1702210495488817200,15.334817138671875,-0.9053999781608582,-2.6599998474121094,5.687399864196777
1702210495548843500,15.394843505859376,0.24079999327659607,-1.0264999866485596,2.2026000022888184
1702210495608817200,15.454817138671874,1.2055000066757202,-3.1710000038146973,-0.8652999997138977
1702210495668817200,15.514817138671875,2.0680999755859375,-6.1514997482299805,-2.2455999851226807
1702210495728817200,15.574817138671875,2.235299825668335,-8.331099510192871,-3.0699000358581543
1702210495788817200,15.634817138671876,3.7119998931884766,-7.497299671173096,-6.60129976272583
1702210495848817200,15.694817138671874,1.9825999736785889,-4.572999954223633,-9.131400108337402
1702210495908817200,15.754817138671875,-2.123199939727783,-6.552700042724609,-7.597999572753906
1702210495968817200,15.814817138671875,-0.8057000041007996,-6.263400077819824,-7.047199726104736
1702210496028817200,15.874817138671874,0.8069999814033508,-2.70770001411438,-2.5551998615264893
1702210496088817200,15.934817138671875,-0.09919999539852142,-1.4852999448776245,0.6688999533653259
1702210496148818700,15.994818603515625,-1.1561999320983887,-2.699899911880493,4.669600009918213
1702210496208817200,16.054817138671876,0.21679998934268951,-3.0124998092651367,6.404999732971191
1702210496268817200,16.114817138671874,-2.2939999103546143,-0.30559998750686646,6.153500080108643
1702210496328817200,16.174817138671877,-4.883699893951416,-0.08419999480247498,6.106100082397461
1702210496388817200,16.234817138671875,-3.7540998458862305,0.5062999725341797,8.452199935913086
1702210496448817200,16.294817138671874,-4.279699802398682,-1.9361000061035156,13.36520004272461
1702210496508817200,16.354817138671876,-1.906999945640564,-2.4584999084472656,9.126500129699707
1702210496568817200,16.414817138671875,0.28619998693466187,-1.191999912261963,5.456199645996094
1702210496628817200,16.474817138671874,0.9188999533653259,-0.8432999849319458,1.9021999835968018
1702210496688817200,16.534817138671876,1.7898999452590942,-2.962100028991699,-0.6525999903678894
1702210496748817200,16.594817138671875,1.681399941444397,-7.2342000007629395,-1.4168000221252441
1702210496808817200,16.654817138671874,4.302999973297119,-7.482499599456787,-5.441199779510498
1702210496868817200,16.714817138671876,2.8178999423980713,-7.356299877166748,-11.251799583435059
1702210496928817200,16.774817138671875,0.7087999582290649,-5.019000053405762,-7.338199615478516
1702210496988817200,16.834817138671873,-1.2477999925613403,-7.48259973526001,-4.444999694824219
1702210497048817200,16.894817138671876,2.2056000232696533,-4.688799858093262,-0.6764999628067017
1702210497108817200,16.954817138671874,1.7894999980926514,-0.8220999836921692,1.55649995803833
1702210497168817200,17.014817138671877,0.6861000061035156,-0.6969999670982361,2.995499849319458
1702210497228817200,17.074817138671875,0.6886000037193298,-1.0332999229431152,6.352299690246582
1702210497288817200,17.134817138671874,-2.0070998668670654,0.38929998874664307,8.96049976348877
1702210497348817200,17.194817138671876,-3.6512999534606934,1.6962000131607056,10.410599708557129
1702210497408817200,17.254817138671875,-4.863399982452393,0.4129999876022339,9.732199668884277
1702210497468817200,17.314817138671874,-4.51669979095459,-0.6538999676704407,10.231900215148926
1702210497528817200,17.374817138671876,-3.4803998470306396,-5.542900085449219,9.093199729919434
1702210497588817200,17.434817138671875,-0.519599974155426,-5.378900051116943,5.316499710083008
1702210497648817200,17.494817138671873,1.8559999465942383,-3.7308998107910156,1.1373999118804932
1702210497708817200,17.554817138671876,2.8163998126983643,-2.995299816131592,-1.4850000143051147
1702210497768817200,17.614817138671874,3.6711997985839844,-4.842899799346924,-3.705199956893921
1702210497828817200,17.674817138671877,4.328399658203125,-7.0782999992370605,-4.748300075531006
1702210497888817200,17.734817138671875,5.271399974822998,-6.370800018310547,-6.954999923706055
1702210497948817200,17.794817138671874,2.8239998817443848,-6.220399856567383,-7.450399875640869
1702210498008817200,17.854817138671876,0.6947999596595764,-5.923199653625488,-3.804299831390381
1702210498068817200,17.914817138671875,-0.012899999506771564,-8.063599586486816,-2.221299886703491
1702210498128817200,17.974817138671874,0.786899983882904,-4.054800033569336,0.4478999972343445
1702210498188817200,18.034817138671876,-0.45350000262260437,0.13759998977184296,3.218400001525879
1702210498248817200,18.094817138671875,-1.7803999185562134,0.4527999758720398,4.225100040435791
1702210498308817200,18.154817138671874,-2.0200998783111572,-0.3360999822616577,6.282099723815918
1702210498368817200,18.214817138671876,-4.949100017547607,0.11209999769926071,8.558899879455566
1702210498428817200,18.274817138671875,-7.362199783325195,2.5332000255584717,9.592899322509766
1702210498488817200,18.334817138671873,-7.242300033569336,2.259899854660034,7.7256999015808105
1702210498548817200,18.394817138671876,-6.384899616241455,-2.327899932861328,7.22659969329834
1702210498608817200,18.454817138671874,-2.8100998401641846,-5.400099754333496,7.718999862670898
1702210498668817200,18.514817138671877,0.8784999847412109,-3.87719988822937,4.051599979400635
1702210498728817200,18.574817138671875,2.7540998458862305,-1.604099988937378,1.560499906539917
1702210498788817200,18.634817138671874,2.8973000049591064,-2.190700054168701,-1.0097999572753906
1702210498848817200,18.694817138671876,3.187199831008911,-5.081599712371826,-2.332399845123291
1702210498908817200,18.754817138671875,4.02679967880249,-8.054299354553223,-6.207399845123291
1702210498968817200,18.814817138671874,4.34529972076416,-6.319799900054932,-10.315400123596191
1702210499028817200,18.874817138671876,0.37369999289512634,-6.028899669647217,-8.4197998046875
1702210499088817200,18.934817138671875,-1.592099905014038,-7.429599761962891,-3.6711997985839844
1702210499148817200,18.994817138671873,0.9594999551773071,-7.176799774169922,0.26899999380111694
1702210499208817200,19.054817138671876,0.5432000160217285,-1.2213000059127808,2.249500036239624
1702210499268817200,19.114817138671874,-1.2766000032424927,1.8264999389648438,3.208400011062622
1702210499328817200,19.174817138671877,-0.13899999856948853,-0.35599997639656067,6.145099639892578
1702210499388817200,19.234817138671875,-1.0026999711990356,0.36239999532699585,8.407699584960938
1702210499448817200,19.294817138671874,-3.035599946975708,2.036099910736084,9.509900093078613
1702210499508817200,19.354817138671876,-3.8546998500823975,0.47429999709129333,9.798799514770508
1702210499568817200,19.414817138671875,-3.094899892807007,-0.5273999571800232,8.827499389648438
1702210499628817200,19.474817138671874,-3.120999813079834,-6.317800045013428,7.631399631500244
1702210499688817200,19.534817138671876,0.7766000032424927,-5.06089973449707,3.120800018310547
1702210499748817200,19.594817138671875,2.4658000469207764,-1.58079993724823,-0.18379999697208405
1702210499808817200,19.654817138671874,1.9328999519348145,0.27300000190734863,-2.7660999298095703
1702210499868817200,19.714817138671876,1.5714999437332153,-0.9004999995231628,-4.253799915313721
1702210499928817200,19.774817138671875,0.9523999691009521,-6.251399993896484,-3.7487998008728027
1702210499988817200,19.834817138671873,0.28519999980926514,-7.687399864196777,-2.1995999813079834
1702210500048817200,19.894817138671876,2.0147998332977295,-7.108500003814697,-5.468199729919434
1702210500108817200,19.954817138671874,3.7366998195648193,-3.7047998905181885,-5.451900005340576
1702210500168817200,20.014817138671877,0.932699978351593,-4.16349983215332,-4.794899940490723
1702210500228817200,20.074817138671875,2.575000047683716,-3.5040998458862305,-2.099900007247925
1702210500288817200,20.134817138671874,2.472399950027466,-2.3966000080108643,1.6684999465942383
1702210500348817200,20.194817138671876,-0.01850000023841858,-2.2358999252319336,6.621500015258789
1702210500408817200,20.254817138671875,0.04519999772310257,0.02239999920129776,11.184499740600586
1702210500468817200,20.314817138671874,-2.4351999759674072,1.7881999015808105,5.791500091552734
1702210500528817200,20.374817138671876,-2.66759991645813,1.7109999656677246,7.999300003051758
1702210500588817200,20.434817138671875,-2.7953999042510986,0.3427000045776367,11.060199737548828
1702210500648817200,20.494817138671873,-3.32069993019104,-2.3617000579833984,8.455900192260742
1702210500708817200,20.554817138671876,-1.9490000009536743,-4.1975998878479,7.265399932861328
1702210500768817200,20.614817138671874,0.2639999985694885,-2.7303998470306396,4.243099689483643
1702210500828817200,20.674817138671877,1.4603999853134155,-0.45569998025894165,1.3637999296188354
1702210500888817200,20.734817138671875,1.8525999784469604,-1.563599944114685,-1.2731000185012817
1702210500948817200,20.794817138671874,2.5678000450134277,-5.190899848937988,-3.134699821472168
1702210501008817200,20.854817138671876,2.7435998916625977,-8.69849967956543,-5.458799839019775
1702210501068817200,20.914817138671875,4.311299800872803,-6.022799968719482,-8.479299545288086
1702210501128817200,20.974817138671874,0.9232999682426453,-4.967700004577637,-9.135799407958984
1702210501188817200,21.034817138671876,-1.4931999444961548,-7.366299629211426,-3.8152999877929688
1702210501248817200,21.094817138671875,1.5794999599456787,-6.874499797821045,-0.30570000410079956
1702210501308817200,21.154817138671874,1.3276000022888184,-1.5710999965667725,2.5916998386383057
1702210501368817200,21.214817138671876,-0.8745999932289124,2.248800039291382,4.8526997566223145
1702210501428817200,21.274817138671875,-0.22779999673366547,0.3418000042438507,5.083399772644043
1702210501488817200,21.334817138671873,0.915399968624115,-0.7896999716758728,7.571099758148193
1702210501548817200,21.394817138671876,-2.0546998977661133,-0.25049999356269836,11.286600112915039
1702210501608817200,21.454817138671874,-2.847299814224243,-0.18879999220371246,9.554100036621094
1702210501668817200,21.514817138671877,-4.130499839782715,-1.37909996509552,8.617300033569336
1702210501728817200,21.574817138671875,-3.0762999057769775,-4.674599647521973,7.296999931335449
1702210501788817200,21.634817138671874,0.37700000405311584,-2.8046998977661133,3.1384999752044678
1702210501848817200,21.694817138671876,1.4329999685287476,0.31369999051094055,0.6743999719619751
1702210501908817200,21.754817138671875,1.8091999292373657,0.3407999873161316,-1.1584999561309814
1702210501968817200,21.814817138671874,2.9385998249053955,-2.333099842071533,-2.3927998542785645
1702210502028817200,21.874817138671876,2.6335999965667725,-7.077600002288818,-4.25629997253418
1702210502088817200,21.934817138671875,4.633599758148193,-8.174399375915527,-7.519999980926514
1702210502148817200,21.994817138671873,0.8108999729156494,-8.588099479675293,-11.98699951171875
1702210502208817200,22.054817138671876,-3.3815999031066895,-9.326199531555176,-4.410999774932861
1702210502268817200,22.114817138671874,-1.176800012588501,-5.928499698638916,-1.1718999147415161
1702210502328817200,22.174817138671877,0.22689999639987946,-0.4830999970436096,1.753499984741211
1702210502388817200,22.234817138671875,-0.48649999499320984,2.3561999797821045,4.399199962615967
1702210502448817200,22.294817138671874,0.23510000109672546,-0.9287999868392944,6.134699821472168
1702210502508817200,22.354817138671876,2.124799966812134,-1.6733999252319336,10.04889965057373
1702210502568817200,22.414817138671875,-0.5665000081062317,1.26829993724823,12.354499816894531
1702210502628817200,22.474817138671874,-5.146100044250488,-0.21879999339580536,9.834099769592285
1702210502688817200,22.534817138671876,-4.66379976272583,-0.7834999561309814,9.18489933013916
1702210502748817200,22.594817138671875,-3.8914999961853027,-6.2565999031066895,10.363100051879883
1702210502808817200,22.654817138671874,-0.42289999127388,-5.697700023651123,5.8755998611450195
1702210502868817200,22.714817138671876,1.0069999694824219,-2.7595999240875244,1.984299898147583
1702210502928817200,22.774817138671875,1.4785999059677124,-3.3838000297546387,-1.2127000093460083
1702210502988817200,22.834817138671873,2.229099988937378,-5.894999980926514,-3.290099859237671
1702210503048817200,22.894817138671876,3.148399829864502,-7.626799583435059,-4.574100017547607
1702210503108817200,22.954817138671874,3.5560998916625977,-8.30519962310791,-6.954599857330322
1702210503168817200,23.014817138671877,1.840399980545044,-6.100399971008301,-9.048299789428711
1702210503228817200,23.074817138671875,-0.2457999885082245,-5.279799938201904,-9.276599884033203
1702210503288817200,23.134817138671874,-0.26499998569488525,-8.98009967803955,-6.995100021362305
1702210503348817200,23.194817138671876,-1.090499997138977,-7.285999774932861,-1.9793999195098877
1702210503408817200,23.254817138671875,-3.2863998413085938,-3.506500005722046,4.479399681091309
1702210503468817200,23.314817138671874,-0.34049999713897705,-2.368499994277954,8.786799430847168
1702210503528817200,23.374817138671876,0.8906999826431274,-3.690699815750122,5.275199890136719
1702210503588817200,23.434817138671875,-1.4459999799728394,-0.7841999530792236,9.422699928283691
1702210503648817200,23.494817138671873,-5.353099822998047,-0.15770000219345093,14.554899215698242
1702210503708817200,23.554817138671876,-2.549799919128418,-1.3438999652862549,11.071499824523926
1702210503768817200,23.614817138671874,-2.532899856567383,-6.941299915313721,8.160599708557129
1702210503828817200,23.674817138671877,-0.5182999968528748,-9.326700210571289,6.696399688720703
1702210503888817200,23.734817138671875,1.9381999969482422,-6.0879998207092285,3.656599998474121
1702210503948817200,23.794817138671874,2.5657999515533447,-4.634799957275391,0.284199982881546
1702210504008817200,23.854817138671876,1.9071999788284302,-5.779599666595459,-2.5146000385284424
1702210504068817200,23.914817138671875,2.311199903488159,-7.363399982452393,-2.9003000259399414
1702210504128817200,23.974817138671874,5.186699867248535,-8.418399810791016,-4.365900039672852
1702210504188817200,24.034817138671876,6.3703999519348145,-5.869999885559082,-8.98449993133545
1702210504248817200,24.094817138671875,2.5806000232696533,-7.309299945831299,-10.304900169372559
1702210504308817200,24.154817138671874,1.8005999326705933,-7.514199733734131,-9.024399757385254
1702210504368817200,24.214817138671876,-0.4861999750137329,-9.81879997253418,-4.2153000831604
1702210504428817200,24.274817138671875,-2.312299966812134,-8.780499458312988,0.15389999747276306
1702210504488817200,24.334817138671873,-2.6089999675750732,-4.494800090789795,4.1940999031066895
1702210504548817200,24.394817138671876,-1.965999960899353,-2.227299928665161,7.777699947357178
1702210504608817200,24.454817138671874,-2.412299871444702,0.3677999973297119,8.580399513244629
1702210504668817200,24.514817138671877,-5.573899745941162,-0.20919999480247498,9.43589973449707
1702210504728817200,24.574817138671875,-7.325999736785889,-0.7468000054359436,11.5625
1702210504788817200,24.634817138671874,-5.409599781036377,-1.0544999837875366,10.044099807739258
1702210504848817200,24.694817138671876,-3.4189000129699707,-5.120599746704102,6.349599838256836
1702210504908817200,24.754817138671875,0.2685999870300293,-2.624699831008911,4.8877997398376465
1702210504968817200,24.814817138671874,0.8054999709129333,-0.1501999944448471,3.559499979019165
1702210505028817200,24.874817138671876,0.3190000057220459,-0.5273000001907349,0.9632999897003174
1702210505088817200,24.934817138671875,0.932699978351593,-3.565999984741211,-0.20669999718666077
1702210505148818700,24.994818603515625,2.0564000606536865,-8.893799781799316,-1.3393999338150024
1702210505208817200,25.054817138671876,3.8128998279571533,-8.898699760437012,-6.329799652099609
1702210505268817200,25.114817138671874,2.271399974822998,-5.773900032043457,-10.093199729919434
1702210505328817200,25.174817138671877,0.47450000047683716,-4.498300075531006,-8.99429988861084
1702210505388817200,25.234817138671875,-1.3610999584197998,-6.32319974899292,-6.0457000732421875
1702210505448817200,25.294817138671874,0.8500999808311462,-4.055699825286865,-2.4679999351501465
1702210505508817200,25.354817138671876,0.07840000092983246,-0.7006999850273132,2.196699857711792
1702210505568817200,25.414817138671875,-0.9768999814987183,-0.4763000011444092,4.696700096130371
1702210505628817200,25.474817138671874,-1.4422999620437622,0.5148999691009521,7.691799640655518
1702210505688817200,25.534817138671876,-2.580399990081787,2.0627999305725098,8.681499481201172
1702210505748817200,25.594817138671875,-3.2679998874664307,0.5026000142097473,8.58549976348877
1702210505808817200,25.654817138671874,-3.0109000205993652,-1.2426999807357788,8.563399314880371
1702210505868817200,25.714817138671876,-3.446199893951416,-4.041500091552734,7.709699630737305
1702210505928817200,25.774817138671875,-1.2777999639511108,-3.009699821472168,5.340699672698975
1702210505988817200,25.834817138671873,0.5941999554634094,-0.09879999607801437,3.419099807739258
1702210506048817200,25.894817138671876,2.1613998413085938,0.025200000032782555,0.6204999685287476
1702210506108817200,25.954817138671874,3.1467998027801514,-1.4941999912261963,-0.8689000010490417
1702210506168817200,26.014817138671877,2.0464999675750732,-5.5081000328063965,-1.3971999883651733
1702210506228817200,26.074817138671875,2.190000057220459,-6.911399841308594,-2.010999917984009
1702210506288817200,26.134817138671874,3.2826998233795166,-7.39579963684082,-6.235300064086914
1702210506348817200,26.194817138671876,2.8833999633789062,-3.9154999256134033,-5.690299987792969
1702210506408817200,26.254817138671875,-1.3463000059127808,-5.7058000564575195,-5.019000053405762
1702210506468818700,26.314818603515626,0.3434000015258789,-4.607999801635742,-0.9873999953269958
1702210506528817200,26.374817138671876,1.485700011253357,-0.7946999669075012,0.6125999689102173
1702210506588817200,26.434817138671875,2.70770001411438,0.9620999693870544,1.7922999858856201
1702210506648817200,26.494817138671873,2.501499891281128,1.170699954032898,3.4696998596191406
1702210506708817200,26.554817138671876,0.4138999879360199,1.7883999347686768,6.463399887084961
1702210506768817200,26.614817138671874,-3.037600040435791,1.8640999794006348,8.63759994506836
1702210506828817200,26.674817138671877,-2.9069998264312744,2.7095999717712402,8.834799766540527
1702210506888817200,26.734817138671875,-4.991199970245361,-2.734999895095825,10.376500129699707
1702210506948817200,26.794817138671874,-2.2112998962402344,-4.463200092315674,9.468199729919434
1702210507008817200,26.854817138671876,0.08729999512434006,-2.2289998531341553,5.349799633026123
1702210507068817200,26.914817138671875,1.8256999254226685,-0.44739997386932373,1.5822999477386475
1702210507128817200,26.974817138671874,2.658900022506714,-1.1240999698638916,-1.103600025177002
1702210507188817200,27.034817138671876,2.1957998275756836,-4.2393999099731445,-2.209399938583374
1702210507248817200,27.094817138671875,3.2936999797821045,-7.258399963378906,-6.644499778747559
1702210507308817200,27.154817138671874,3.365299940109253,-8.664999961853027,-7.994199752807617
1702210507368817200,27.214817138671876,4.495199680328369,-6.758899688720703,-6.506499767303467
1702210507428817200,27.274817138671875,-0.8398999571800232,-9.206199645996094,-4.332499980926514
1702210507488817200,27.334817138671873,-0.2620999813079834,-7.521199703216553,-0.6692000031471252
1702210507548817200,27.394817138671876,1.0525000095367432,-2.7181999683380127,2.210700035095215
1702210507608817200,27.454817138671874,-0.24859999120235443,0.3662000000476837,4.281799793243408
1702210507668817200,27.514817138671877,-0.007699999958276749,1.543299913406372,6.32349967956543
1702210507728817200,27.574817138671875,-3.3416998386383057,1.4779999256134033,10.200200080871582
1702210507788817200,27.634817138671874,-2.531399965286255,2.3984999656677246,14.477999687194824
1702210507848817200,27.694817138671876,-3.1796000003814697,0.41759997606277466,10.897500038146973
1702210507908817200,27.754817138671875,-3.9856998920440674,-6.606400012969971,9.251599311828613
1702210507968817200,27.814817138671874,-0.3292999863624573,-5.574399948120117,6.428899765014648
1702210508028817200,27.874817138671876,0.9269999861717224,-2.5453999042510986,2.754699945449829
1702210508088817200,27.934817138671875,2.275599956512451,-2.232800006866455,-0.32249999046325684
1702210508148818700,27.994818603515625,3.3671998977661133,-2.428999900817871,-2.5476999282836914
1702210508208817200,28.054817138671876,3.0630998611450195,-5.4807000160217285,-3.86929988861084
1702210508268817200,28.114817138671874,3.1820998191833496,-8.602700233459473,-6.797499656677246
1702210508328817200,28.174817138671877,3.02020001411438,-8.430500030517578,-7.711199760437012
1702210508388817200,28.234817138671875,1.4581999778747559,-5.851399898529053,-5.430599689483643
1702210508448817200,28.294817138671874,-2.022599935531616,-7.830199718475342,-2.8248000144958496
1702210508508817200,28.354817138671876,1.2455999851226807,-4.1703996658325195,0.08209999650716782
1702210508568817200,28.414817138671875,0.27639999985694885,-0.7559999823570251,2.587899923324585
1702210508628817200,28.474817138671874,0.6901999711990356,-0.5322999954223633,5.2846999168396
1702210508688817200,28.534817138671876,-0.7421000003814697,1.3574999570846558,6.8445000648498535
1702210508748817200,28.594817138671875,-2.0220999717712402,3.413800001144409,6.671899795532227
1702210508808817200,28.654817138671874,-3.7246999740600586,1.4815999269485474,8.213399887084961
1702210508868817200,28.714817138671876,-3.987499952316284,1.7486999034881592,9.806599617004395
1702210508928817200,28.774817138671875,-5.611700057983398,-3.0917999744415283,9.104100227355957
1702210508988817200,28.834817138671873,-2.199399948120117,-4.88539981842041,6.173399925231934
1702210509048817200,28.894817138671876,0.5034999847412109,-1.768399953842163,2.8070998191833496
1702210509108817200,28.954817138671874,2.620699882507324,-0.16679999232292175,0.19099999964237213
1702210509168817200,29.014817138671877,1.5666999816894531,-3.7702999114990234,-1.6877999305725098
1702210509228817200,29.074817138671875,2.3940999507904053,-5.836299896240234,-3.1591999530792236
1702210509288817200,29.134817138671874,3.335599899291992,-6.771399974822998,-5.094899654388428
1702210509348817200,29.194817138671876,3.881199836730957,-6.6651997566223145,-6.018199920654297
1702210509408817200,29.254817138671875,2.4184999465942383,-4.213299751281738,-5.0625
1702210509468817200,29.314817138671874,-2.6887998580932617,-4.668600082397461,-3.2553999423980713
1702210509528817200,29.374817138671876,0.7942000031471252,-4.083899974822998,-1.0045000314712524
1702210509588817200,29.434817138671875,-0.18799999356269836,0.27549999952316284,1.5192999839782715
1702210509648817200,29.494817138671873,0.515999972820282,1.9294999837875366,2.7582998275756836
1702210509708817200,29.554817138671876,0.4693000018596649,1.730199933052063,2.6412999629974365
1702210509768817200,29.614817138671874,-0.7303999662399292,3.138000011444092,5.170899868011475
1702210509828817200,29.674817138671877,-2.7063000202178955,4.628399848937988,6.8877997398376465
1702210509888817200,29.734817138671875,-5.134399890899658,0.4948999881744385,8.580399513244629
1702210509948817200,29.794817138671874,-3.269199848175049,-0.15459999442100525,10.821099281311035
1702210510008817200,29.854817138671876,-1.7041999101638794,-2.872299909591675,6.950599670410156
1702210510068817200,29.914817138671875,0.6668999791145325,-0.7670999765396118,5.410999774932861
1702210510128817200,29.974817138671874,1.5636999607086182,-0.8679999709129333,3.018699884414673
1702210510188817200,30.034817138671876,2.4108998775482178,-2.771699905395508,1.0084999799728394
1702210510248817200,30.094817138671875,3.6395998001098633,-4.404399871826172,-0.16859999299049377
1702210510308817200,30.154817138671874,4.082499980926514,-7.355899810791016,-3.297999858856201
1702210510368817200,30.214817138671876,3.617999792098999,-6.157700061798096,-6.639599800109863
1702210510428817200,30.274817138671875,1.9138000011444092,-6.565099716186523,-9.24899959564209
1702210510488817200,30.334817138671873,-2.4313998222351074,-8.471699714660645,-5.40749979019165
1702210510548845300,30.39484521484375,1.230799913406372,-7.399899959564209,-2.0358998775482178
1702210510608817200,30.454817138671874,1.1725000143051147,-2.5946998596191406,-0.10599999874830246
1702210510668817200,30.514817138671877,0.5950999855995178,-1.691999912261963,2.5650999546051025
1702210510728817200,30.574817138671875,0.43129998445510864,-2.694200038909912,6.389699935913086
1702210510788817200,30.634817138671874,-0.9217000007629395,-0.9045999646186829,8.24269962310791
1702210510848817200,30.694817138671876,-2.0708000659942627,2.725299835205078,7.074499607086182
1702210510908817200,30.754817138671875,-2.517699956893921,3.2939999103546143,9.069199562072754
1702210510968817200,30.814817138671874,-4.90369987487793,-0.044599998742341995,12.4128999710083
1702210511028817200,30.874817138671876,-4.146100044250488,-0.8948999643325806,12.845600128173828
1702210511088817200,30.934817138671875,-1.3931999206542969,-4.653599739074707,6.446599960327148
1702210511148817200,30.994817138671873,1.4778999090194702,-2.102099895477295,3.5993998050689697
1702210511208817200,31.054817138671876,1.8476999998092651,-0.2433999925851822,1.362399935722351
1702210511268817200,31.114817138671874,1.2141000032424927,-5.102799892425537,-0.36399999260902405
1702210511328817200,31.174817138671877,1.7182999849319458,-7.873899936676025,0.00139999995008111
1702210511388817200,31.234817138671875,1.0232999324798584,-8.453100204467773,-1.9438999891281128
1702210511448817200,31.294817138671874,2.8550000190734863,-7.131199836730957,-6.685299873352051
1702210511508817200,31.354817138671876,3.119799852371216,-4.831699848175049,-9.217700004577637
1702210511568817200,31.414817138671875,0.9138000011444092,-6.699999809265137,-7.6880998611450195
1702210511628817200,31.474817138671874,0.7351999878883362,-6.163899898529053,-5.27810001373291
1702210511688817200,31.534817138671876,1.028999924659729,-4.218100070953369,-2.3633999824523926
1702210511748817200,31.594817138671875,0.056699998676776886,-3.561699867248535,1.3975999355316162
1702210511808817200,31.654817138671874,-2.1407999992370605,-3.595599889755249,9.411499977111816
1702210511868817200,31.714817138671876,-1.8141999244689941,0.27869999408721924,11.825699806213379
1702210511928817200,31.774817138671875,-3.1755998134613037,1.4688999652862549,7.772500038146973
1702210511988817200,31.834817138671873,-3.3959999084472656,-0.013399999588727951,11.996399879455566
1702210512048817200,31.894817138671876,-4.601500034332275,-0.7001000046730042,8.457099914550781
1702210512108817200,31.954817138671874,-3.41729998588562,-3.343600034713745,6.538599967956543
1702210512168817200,32.01481713867187,-0.7698000073432922,-2.2391998767852783,3.347299814224243
1702210512228817200,32.074817138671875,0.48539999127388,-3.8322999477386475,0.2809999883174896
1702210512288817200,32.13481713867188,2.5911998748779297,-4.726099967956543,-3.1847000122070312
1702210512348817200,32.19481713867187,3.1245999336242676,-4.647200107574463,-5.882099628448486
1702210512408817200,32.254817138671875,3.0149998664855957,-5.021500110626221,-6.4614996910095215
1702210512468817200,32.31481713867188,3.499699831008911,-5.440099716186523,-7.166199684143066
1702210512528817200,32.37481713867187,2.023200035095215,-4.007199764251709,-4.929800033569336
1702210512588817200,32.434817138671875,-1.1603000164031982,-4.999300003051758,-2.3143999576568604
1702210512648817200,32.49481713867188,-1.8982999324798584,-5.519199848175049,1.8499999046325684
1702210512708817200,32.55481713867187,-2.686699867248535,-1.4854999780654907,3.0713000297546387
1702210512768817200,32.614817138671874,-1.7752999067306519,0.998199999332428,3.662599802017212
1702210512828817200,32.67481713867188,-1.3524999618530273,2.867499828338623,4.495100021362305
1702210512888817200,32.73481713867187,-1.3402999639511108,4.019199848175049,4.900899887084961
1702210512948817200,32.794817138671874,-2.5199999809265137,4.073400020599365,4.935100078582764
1702210513008817200,32.854817138671876,-1.1626999378204346,1.4660999774932861,5.665099620819092
1702210513068817200,32.91481713867187,-3.153599977493286,0.5579999685287476,5.468599796295166
1702210513128817200,32.974817138671874,-1.9246999025344849,-4.80049991607666,8.540200233459473
1702210513188817200,33.034817138671876,0.04089999943971634,-4.316100120544434,4.5655999183654785
1702210513248817200,33.09481713867188,1.435499906539917,-0.7736999988555908,-0.7195999622344971
1702210513308817200,33.15481713867187,2.614500045776367,-0.929099977016449,-2.647899866104126
1702210513368817200,33.214817138671876,2.6312999725341797,-2.475800037384033,-3.462100028991699
1702210513428817200,33.27481713867188,1.4532999992370605,-5.65749979019165,-4.298500061035156
1702210513488817200,33.33481713867187,3.489799976348877,-6.025799751281738,-4.829899787902832
1702210513548817200,33.394817138671876,0.9691999554634094,-4.073599815368652,-3.194499969482422
1702210513608817200,33.45481713867188,-1.069700002670288,-4.344399929046631,-1.3634999990463257
1702210513668817200,33.51481713867187,-0.9381999969482422,-2.4385998249053955,0.34109997749328613
1702210513728817200,33.574817138671875,0.16429999470710754,0.6606000065803528,0.35670000314712524
1702210513788817200,33.63481713867188,1.017899990081787,1.6272000074386597,0.6100999712944031
1702210513848817200,33.69481713867187,0.35499998927116394,1.82069993019104,3.2319998741149902
1702210513908817200,33.754817138671875,-1.9673999547958374,2.5346999168395996,5.858999729156494
1702210513968817200,33.81481713867188,-2.980799913406372,3.052999973297119,7.183799743652344
1702210514028817200,33.87481713867187,-2.6810998916625977,0.6922000050544739,5.902599811553955
1702210514088817200,33.934817138671875,-3.9575998783111572,-0.6478999853134155,7.964699745178223
1702210514148818700,33.994818603515625,-3.937699794769287,-2.847899913787842,6.197299957275391
1702210514208817200,34.05481713867187,-0.16599999368190765,-2.630199909210205,4.176799774169922
1702210514268817200,34.114817138671874,2.2391998767852783,0.31540000438690186,1.8615999221801758
1702210514328817200,34.17481713867188,2.4898998737335205,-1.01010000705719,-0.42419999837875366
1702210514388817200,34.23481713867187,3.0662999153137207,-2.81499981880188,-2.0713000297546387
1702210514448817200,34.294817138671874,2.589200019836426,-4.263999938964844,-1.7065999507904053
1702210514508817200,34.354817138671876,1.7339999675750732,-6.643599987030029,-2.246500015258789
1702210514568817200,34.41481713867187,2.93179988861084,-6.550600051879883,-7.654099941253662
1702210514628817200,34.474817138671874,2.006199836730957,-3.4988999366760254,-6.3827996253967285
1702210514688817200,34.534817138671876,-0.5941999554634094,-5.571499824523926,-2.9565999507904053
1702210514748817200,34.59481713867188,2.2781999111175537,-6.779299736022949,-0.5519999861717224
1702210514808817200,34.65481713867187,1.1619999408721924,-3.384199857711792,2.386899948120117
1702210514868817200,34.714817138671876,1.3185999393463135,-0.17019999027252197,4.525799751281738
1702210514928817200,34.77481713867188,0.9828999638557434,0.5440999865531921,5.297499656677246
1702210514988817200,34.83481713867187,-0.7048999667167664,1.0348999500274658,6.066699981689453
1702210515048817200,34.894817138671876,-2.7640998363494873,0.3669999837875366,8.375699996948242
1702210515108817200,34.95481713867188,-3.853599786758423,1.003999948501587,11.490499496459961
1702210515168817200,35.01481713867187,-3.2276999950408936,2.932999849319458,9.18179988861084
1702210515228817200,35.074817138671875,-4.569799900054932,-2.5264999866485596,9.360599517822266
1702210515288817200,35.13481713867188,-2.7246999740600586,-3.8401999473571777,9.186299324035645
1702210515348817200,35.19481713867187,-1.5913000106811523,-5.126399993896484,6.173599720001221
1702210515408817200,35.254817138671875,1.8355998992919922,-4.200799942016602,2.6512999534606934
1702210515468817200,35.31481713867188,1.7384999990463257,-4.1666998863220215,0.1582999974489212
1702210515528817200,35.37481713867187,2.9746999740600586,-6.076999664306641,-0.7762999534606934
1702210515588817200,35.434817138671875,4.711999893188477,-8.622699737548828,-2.3685998916625977
1702210515648817200,35.49481713867188,6.261600017547607,-7.5966997146606445,-6.357500076293945
1702210515708817200,35.55481713867187,3.156599998474121,-8.694999694824219,-12.262099266052246
1702210515768817200,35.614817138671874,0.6164000034332275,-7.805899620056152,-5.913099765777588
1702210515828817200,35.67481713867188,-0.047199998050928116,-7.417099952697754,-5.034299850463867
1702210515888817200,35.73481713867187,1.7669999599456787,-4.810299873352051,-1.8244999647140503
1702210515948817200,35.794817138671874,-1.4405999183654785,-3.1327998638153076,1.597000002861023
1702210516008817200,35.854817138671876,-2.900399923324585,-4.079599857330322,8.187999725341797
1702210516068817200,35.91481713867187,-3.4570999145507812,0.04230000078678131,11.494400024414062
1702210516128817200,35.974817138671874,-5.622699737548828,2.743799924850464,11.482500076293945
1702210516188817200,36.034817138671876,-4.179800033569336,4.496299743652344,13.967999458312988
1702210516248817200,36.09481713867188,-5.247200012207031,1.0786999464035034,10.167299270629883
1702210516308817200,36.15481713867187,-4.343199729919434,-6.224299907684326,8.86870002746582
1702210516368817200,36.214817138671876,0.21379999816417694,-7.8267998695373535,6.127799987792969
1702210516428817200,36.27481713867188,2.7114999294281006,-4.429100036621094,1.8762999773025513
1702210516488817200,36.33481713867187,1.4878000020980835,-4.007599830627441,-1.8841999769210815
1702210516548817200,36.394817138671876,1.924299955368042,-4.6519999504089355,-4.25600004196167
1702210516608817200,36.45481713867188,1.6302999258041382,-6.580999851226807,-5.210599899291992
1702210516668817200,36.51481713867187,1.2336000204086304,-6.474599838256836,-9.300799369812012
1702210516728817200,36.574817138671875,0.9935999512672424,-7.652599811553955,-10.168700218200684
1702210516788817200,36.63481713867188,2.0102999210357666,-6.710399627685547,-6.569699764251709
1702210516848817200,36.69481713867187,-2.515199899673462,-8.843799591064453,-0.3215999901294708
1702210516908817200,36.754817138671875,-1.0572999715805054,-6.179800033569336,4.302099704742432
1702210516968817200,36.81481713867188,-0.16869999468326569,-0.6287999749183655,4.115099906921387
1702210517028817200,36.87481713867187,0.14509999752044678,2.4804999828338623,3.3177998065948486
1702210517088817200,36.934817138671875,0.5239999890327454,2.9639999866485596,5.594399929046631
1702210517148817200,36.99481713867188,0.4941999912261963,3.6409997940063477,8.5447998046875
1702210517208817200,37.05481713867187,0.1946999877691269,2.4003000259399414,9.550199508666992
1702210517268817200,37.114817138671874,-0.8981999754905701,-0.9488999843597412,9.101099967956543
1702210517328817200,37.17481713867188,-2.8882999420166016,-1.142899990081787,8.635899543762207
1702210517388817200,37.23481713867187,-1.9320999383926392,-3.239499807357788,5.3292999267578125
1702210517448817200,37.294817138671874,-0.4398999810218811,-3.6740000247955322,1.1363999843597412
1702210517508817200,37.354817138671876,1.0959999561309814,-2.035599946975708,0.923799991607666
1702210517568817200,37.41481713867187,0.8344999551773071,-3.699199914932251,1.3295999765396118
1702210517628817200,37.474817138671874,1.2898999452590942,-5.651899814605713,4.054599761962891
1702210517688817200,37.534817138671876,0.1614999920129776,-5.785699844360352,4.551300048828125
1702210517748817200,37.59481713867188,0.2222999930381775,-4.283599853515625,3.8785998821258545
1702210517808817200,37.65481713867187,-0.2944999933242798,-3.8573999404907227,1.7692999839782715
1702210517868817200,37.714817138671876,3.126199960708618,-4.40179967880249,0.24729999899864197
1702210517928817200,37.77481713867188,1.8116999864578247,-7.7795000076293945,-4.2342000007629395
1702210517988817200,37.83481713867187,-3.68969988822937,-4.9151997566223145,-6.137899875640869
1702210518048817200,37.894817138671876,-4.267600059509277,-2.7300000190734863,-5.997900009155273
1702210518108817200,37.95481713867188,-0.6467999815940857,1.730699896812439,0.32989999651908875
1702210518168817200,38.01481713867187,2.3069000244140625,-0.16419999301433563,-1.8179999589920044
1702210518228817200,38.074817138671875,-2.080199956893921,-2.172800064086914,-3.679499864578247
1702210518288817200,38.13481713867188,-8.063799858093262,-3.8830997943878174,-1.5331000089645386
1702210518348817200,38.19481713867187,-4.59119987487793,-1.4782999753952026,-0.362199991941452
1702210518408817200,38.254817138671875,6.675699710845947,0.5622999668121338,3.698499917984009
1702210518468817200,38.31481713867188,3.561800003051758,2.9514999389648438,1.4953999519348145
1702210518528817200,38.37481713867187,0.5684999823570251,-0.8779000043869019,-1.420699954032898
1702210518588817200,38.434817138671875,2.012399911880493,-2.2279000282287598,0.4696999788284302
1702210518648817200,38.49481713867188,1.2833999395370483,-1.5307999849319458,-0.8614999651908875
1702210518708817200,38.55481713867187,-0.1631999909877777,-1.1276999711990356,-0.1826999932527542
1702210518768817200,38.614817138671874,-0.5282999873161316,-0.41009998321533203,-0.025499999523162842
1702210518828817200,38.67481713867188,-0.9623000025749207,0.028199998661875725,1.3490999937057495
1702210518888817200,38.73481713867187,1.0805000066757202,-0.6969000101089478,1.434499979019165
1702210518948817200,38.794817138671874,3.0277998447418213,-1.007099986076355,4.056399822235107
1702210519008817200,38.854817138671876,0.649899959564209,-1.8608999252319336,0.7069000005722046
1702210519068817200,38.91481713867187,1.121399998664856,-1.8583999872207642,0.925599992275238
1702210519128817200,38.974817138671874,0.5913999676704407,-1.0312999486923218,0.7942999601364136
1702210519188817200,39.034817138671876,0.7706999778747559,-1.0994999408721924,1.362299919128418
1702210519248817200,39.09481713867188,-0.5264999866485596,-1.6517999172210693,-0.5194999575614929
1702210519308817200,39.15481713867187,1.5995999574661255,-0.28509998321533203,-3.051800012588501
1702210519368817200,39.214817138671876,1.0519999265670776,1.4574999809265137,1.6907999515533447
1702210519428817200,39.27481713867188,-2.171799898147583,-0.6168999671936035,1.7795000076293945
1702210519488817200,39.33481713867187,0.45479997992515564,-0.9386999607086182,-1.3418999910354614
1702210519548817200,39.394817138671876,2.104099988937378,-0.36239999532699585,-1.3995000123977661
1702210519608817200,39.45481713867188,-1.4738999605178833,0.055799998342990875,0.724399983882904
1702210519668817200,39.51481713867187,1.0455999374389648,-0.9361000061035156,-0.011699999682605267
1702210519728817200,39.574817138671875,-0.14000000059604645,0.009399999864399433,-1.2591999769210815
1702210519788817200,39.63481713867188,-0.7932999730110168,0.179299995303154,1.0091999769210815
1702210519848817200,39.69481713867187,-0.07989999651908875,-0.8258999586105347,-0.23749999701976776
1702210519908817200,39.754817138671875,0.19299998879432678,0.5464999675750732,-0.6387999653816223
1702210519968817200,39.81481713867188,0.6182999610900879,-0.06459999829530716,0.38499999046325684
1702210520028817200,39.87481713867187,-0.6725999712944031,0.1996999979019165,-1.2390999794006348
1702210520088817200,39.934817138671875,0.4052000045776367,0.7188000082969666,-0.05570000037550926
1702210520148818700,39.994818603515625,1.0499999523162842,0.6301000118255615,-0.009200000204145908
1702210520208817200,40.05481713867187,-0.02499999850988388,-0.19909998774528503,0.6894999742507935
1702210520268817200,40.114817138671874,0.9975999593734741,-0.3464999794960022,0.16899999976158142
1702210520328817200,40.17481713867188,1.6159999370574951,0.882599949836731,0.8579999804496765
1702210520388817200,40.23481713867187,0.5200999975204468,0.31619998812675476,-0.06909999996423721
1702210520448817200,40.294817138671874,-1.9914000034332275,0.6872999668121338,-1.4221999645233154
1702210520508817200,40.354817138671876,2.7391998767852783,-0.41009998321533203,0.6545999646186829
1702210520568817200,40.41481713867187,0.973800003528595,-0.1899999976158142,-1.542699933052063
1702210520628817200,40.474817138671874,0.12060000002384186,0.0908999964594841,1.4494999647140503
1702210520688817200,40.534817138671876,-0.8001999855041504,-0.21649999916553497,-1.0679999589920044
1702210520748817200,40.59481713867188,-2.322999954223633,-0.3878999948501587,-0.5455999970436096
1702210520808817200,40.65481713867187,-0.30719998478889465,0.1800999939441681,0.6089000105857849
1702210520868817200,40.714817138671876,-2.6034998893737793,-0.31630000472068787,-0.5288999676704407
1702210520928817200,40.77481713867188,0.14569999277591705,0.19659999012947083,0.8095999956130981
1702210520988817200,40.83481713867187,-0.11969999969005585,-0.18619999289512634,-0.4916999936103821
1702210521048817200,40.894817138671876,-0.6621999740600586,0.39959999918937683,-0.3423999845981598
1702210521108817200,40.95481713867188,-0.21409998834133148,-0.2924000024795532,-0.5806999802589417
1702210521168817200,41.01481713867187,-1.2214000225067139,-0.2638999819755554,-0.5485000014305115
1702210521228817200,41.074817138671875,-0.40039998292922974,0.4952999949455261,0.42069998383522034
1702210521288817200,41.13481713867188,-0.21599999070167542,0.13759998977184296,0.27730000019073486
1702210521348817200,41.19481713867187,-0.7548999786376953,-0.3334999978542328,0.16619999706745148
1702210521408817200,41.254817138671875,-0.6215999722480774,-0.23240000009536743,-0.6687999963760376
1702210521468817200,41.31481713867188,0.5837000012397766,-0.20479999482631683,-0.6365999579429626
1702210521528817200,41.37481713867187,1.3025000095367432,-0.21059998869895935,0.057499997317790985
1702210521588817200,41.434817138671875,0.09649999439716339,-0.14429999887943268,-0.5133999586105347
1702210521648817200,41.49481713867188,-0.7536999583244324,-0.25450000166893005,0.031300000846385956
1702210521708817200,41.55481713867187,-0.40950000286102295,-0.350600004196167,0.9393999576568604
1702210521768817200,41.614817138671874,-0.2513999938964844,-0.21769998967647552,0.4777999818325043
1702210521828817200,41.67481713867188,-0.15760000050067902,-0.1687999963760376,-0.2215999960899353
1702210521888817200,41.73481713867187,0.259799987077713,-0.289000004529953,0.13920000195503235
1702210521948817200,41.794817138671874,-0.7786999940872192,-0.0023999998811632395,0.35850000381469727
1702210522008817200,41.854817138671876,-0.6836000084877014,-0.4169999957084656,-0.09950000047683716
1702210522068817200,41.91481713867187,0.0364999994635582,-0.26569998264312744,-0.17289999127388
1702210522128817200,41.974817138671874,0.14579999446868896,0.3958999812602997,0.07090000063180923
1702210522188817200,42.034817138671876,-0.1256999969482422,-0.2708999812602997,0.4976999759674072
1702210522248817200,42.09481713867188,-0.24120000004768372,-0.8565999865531921,-0.00699999975040555
1702210522308817200,42.15481713867187,1.445099949836731,-0.7087000012397766,-0.1923999935388565
1702210522368817200,42.214817138671876,0.7253999710083008,-0.2206999957561493,-0.17739999294281006
1702210522428817200,42.27481713867188,-0.6904000043869019,-0.6818000078201294,-0.4875999987125397
1702210522488817200,42.33481713867187,-1.139699935913086,-0.42179998755455017,0.5063999891281128
1702210522548817200,42.394817138671876,-1.7304999828338623,-0.6933000087738037,-0.5843999981880188
1702210522608817200,42.45481713867188,1.1065999269485474,-0.9506999850273132,-0.2757999897003174
1702210522668817200,42.51481713867187,-1.329699993133545,0.296099990606308,-0.5144000053405762
1702210522728817200,42.574817138671875,-1.9715999364852905,1.042199969291687,-1.0839999914169312
1702210522788817200,42.63481713867188,-0.42879998683929443,0.8841999769210815,-2.2021000385284424
1702210522848817200,42.69481713867187,1.0374000072479248,1.590499997138977,-1.8802999258041382
1702210522908817200,42.754817138671875,0.0026000000070780516,0.976699948310852,-0.20969998836517334
1702210522968817200,42.81481713867188,-1.6733999252319336,0.5529999732971191,1.0717999935150146
1702210523028817200,42.87481713867187,-1.529099941253662,-0.3603000044822693,-0.16019999980926514
1702210523088817200,42.934817138671875,-0.9149999618530273,-0.6880999803543091,-1.3608999252319336
1702210523148817200,42.99481713867188,-1.6204999685287476,0.2793000042438507,-1.9797999858856201
1702210523208817200,43.05481713867187,-1.6050999164581299,0.640999972820282,-1.382200002670288
1702210523268817200,43.114817138671874,-3.269699811935425,0.32519999146461487,-0.8212999701499939
1702210523328817200,43.17481713867188,-1.375999927520752,-1.0608999729156494,0.0648999959230423
1702210523388817200,43.23481713867187,4.91379976272583,-1.5758999586105347,4.638799667358398
1702210523448817200,43.294817138671874,3.8135998249053955,-0.904699981212616,2.0153000354766846
1702210523508817200,43.354817138671876,-3.0398998260498047,-0.6933000087738037,-1.4819999933242798
1702210523568817200,43.41481713867187,-4.576099872589111,-0.44769999384880066,-0.8278999924659729
1702210523628818700,43.47481860351562,-4.783400058746338,-0.7458999752998352,-3.5999999046325684
1702210523688817200,43.534817138671876,-3.853799819946289,-1.9589999914169312,-7.378699779510498
1702210523748817200,43.59481713867188,-3.0699000358581543,-2.4631998538970947,-5.88700008392334
1702210523808817200,43.65481713867187,-0.3790999948978424,-1.8263999223709106,-5.308399677276611
1702210523868817200,43.714817138671876,0.7200999855995178,-3.6201000213623047,-2.662400007247925
1702210523928817200,43.77481713867188,3.422600030899048,-4.853399753570557,0.8858000040054321
1702210523988817200,43.83481713867187,-4.458399772644043,-13.711699485778809,5.888700008392334
1702210524048817200,43.894817138671876,-5.346299648284912,-6.738800048828125,22.5851993560791
1702210524108817200,43.95481713867188,-1.7086999416351318,-0.5363999605178833,10.601799964904785
1702210524168817200,44.01481713867187,-0.17389999330043793,1.678999900817871,1.7804999351501465
1702210524228817200,44.074817138671875,-0.09070000052452087,3.5292999744415283,0.7727999687194824
1702210524288817200,44.13481713867188,-0.7849999666213989,2.2166998386383057,0.861799955368042
1702210524348817200,44.19481713867187,-1.4276999235153198,-0.44679999351501465,1.6110999584197998
1702210524408817200,44.254817138671875,-3.3595998287200928,-4.835400104522705,0.5090999603271484
1702210524468817200,44.31481713867188,1.0864999294281006,-8.308300018310547,-3.010999917984009
1702210524528817200,44.37481713867187,4.291500091552734,-5.84089994430542,-6.324499607086182
1702210524588817200,44.434817138671875,1.3044999837875366,-5.778199672698975,-6.835700035095215
1702210524648817200,44.49481713867188,0.5375999808311462,-5.322099685668945,-6.510799884796143
1702210524708817200,44.55481713867187,1.6977999210357666,-3.2500998973846436,-2.9665000438690186
1702210524768817200,44.614817138671874,-0.045899998396635056,0.471699982881546,1.2102999687194824
1702210524828817200,44.67481713867188,-2.873800039291382,-0.6031000018119812,2.099900007247925
1702210524888817200,44.73481713867187,1.7574999332427979,-2.613100051879883,13.104599952697754
1702210524948817200,44.794817138671874,4.490900039672852,-0.6922000050544739,13.9399995803833
1702210525008817200,44.854817138671876,1.0168999433517456,-1.281499981880188,8.91819953918457
1702210525068817200,44.91481713867187,-2.197700023651123,-0.6495000123977661,9.735699653625488
1702210525128817200,44.974817138671874,-2.836599826812744,-2.1542999744415283,9.48960018157959
1702210525188817200,45.034817138671876,-2.427299976348877,-6.889699935913086,6.550600051879883
1702210525248817200,45.09481713867188,-0.03680000081658363,-4.660799980163574,3.358099937438965
1702210525308817200,45.15481713867187,0.40950000286102295,-3.1821999549865723,1.6089999675750732
1702210525368817200,45.214817138671876,2.3903000354766846,-4.182600021362305,-0.2721000015735626
1702210525428817200,45.27481713867188,4.316800117492676,-5.27269983291626,-1.5719000101089478
1702210525488817200,45.33481713867187,3.858799934387207,-8.010499954223633,-3.1168999671936035
1702210525548845300,45.39484521484375,6.001499652862549,-6.180099964141846,-7.037899971008301
1702210525608817200,45.45481713867188,1.780900001525879,-8.90779972076416,-10.21299934387207
1702210525668817200,45.51481713867187,0.1850000023841858,-9.1766996383667,-4.274499893188477
1702210525728817200,45.574817138671875,0.12079999595880508,-7.598399639129639,-3.5002999305725098
1702210525788817200,45.63481713867188,0.8718000054359436,-4.490600109100342,-1.5938999652862549
1702210525848817200,45.69481713867187,-0.003700000001117587,-1.0230000019073486,0.5953999757766724
1702210525908817200,45.754817138671875,-1.5992000102996826,-2.6617000102996826,3.469099998474121
1702210525968817200,45.81481713867188,-2.0200998783111572,-3.7545998096466064,11.736700057983398
1702210526028817200,45.87481713867187,0.6983000040054321,0.5248000025749207,12.55639934539795
1702210526088817200,45.934817138671875,1.1613999605178833,0.6036999821662903,10.656099319458008
1702210526148818700,45.994818603515625,1.5267000198364258,0.5327999591827393,12.867899894714355
1702210526208817200,46.05481713867187,-1.9164999723434448,-2.336099863052368,12.884900093078613
1702210526268817200,46.114817138671874,-3.533900022506714,-6.932999610900879,8.852499961853027
1702210526328817200,46.17481713867188,-2.9186999797821045,-7.124799728393555,4.902699947357178
1702210526388817200,46.23481713867187,-2.639699935913086,-6.366099834442139,0.7039999961853027
1702210526448817200,46.294817138671874,0.4634999930858612,-7.360299587249756,-4.650000095367432
1702210526508817200,46.354817138671876,4.287300109863281,-5.038399696350098,-7.203999996185303
1702210526568817200,46.41481713867187,4.98859977722168,-5.650199890136719,-7.157299995422363
1702210526628817200,46.474817138671874,4.176599979400635,-8.074600219726562,-5.202699661254883
1702210526688817200,46.534817138671876,3.2513999938964844,-6.970799922943115,-5.268099784851074
1702210526748817200,46.59481713867188,3.2009999752044678,-7.22659969329834,-5.699100017547607
1702210526808817200,46.65481713867187,1.8625999689102173,-8.142000198364258,-3.1930999755859375
1702210526868817200,46.714817138671876,0.6800000071525574,-6.077600002288818,0.2683999836444855
1702210526928817200,46.77481713867188,-3.521699905395508,-4.6342997550964355,5.45959997177124
1702210526988817200,46.83481713867187,-7.235199928283691,-2.8653998374938965,12.059499740600586
1702210527048817200,46.894817138671876,-6.0782999992370605,1.1942999362945557,8.520400047302246
1702210527108817200,46.95481713867188,-8.316100120544434,1.8848999738693237,9.211699485778809
1702210527168817200,47.01481713867187,-7.064899921417236,3.4547998905181885,10.595399856567383
1702210527228817200,47.074817138671875,-8.86240005493164,-2.270599842071533,10.939799308776855
1702210527288817200,47.13481713867188,-4.788099765777588,-9.720199584960938,7.849599838256836
1702210527348817200,47.19481713867187,1.5469999313354492,-4.207900047302246,3.969099998474121
1702210527408817200,47.254817138671875,2.356099843978882,-2.296099901199341,1.2462999820709229
1702210527468817200,47.31481713867188,1.2289999723434448,-5.32480001449585,-2.0160000324249268
1702210527528817200,47.37481713867187,3.410799980163574,-8.387499809265137,-2.3738999366760254
1702210527588817200,47.434817138671875,5.01669979095459,-8.091599464416504,-5.389599800109863
1702210527648817200,47.49481713867188,4.877399921417236,-6.784800052642822,-11.265199661254883
1702210527708817200,47.55481713867187,1.7048999071121216,-7.353600025177002,-11.742599487304688
1702210527768817200,47.614817138671874,-1.1690000295639038,-8.646299362182617,-3.8320999145507812
1702210527828817200,47.67481713867188,1.187999963760376,-7.590399742126465,-1.104200005531311
1702210527888817200,47.73481713867187,0.560699999332428,-4.314300060272217,1.9017999172210693
1702210527948817200,47.794817138671874,-3.5497000217437744,-2.2749998569488525,5.878900051116943
1702210528008817200,47.854817138671876,-3.927799940109253,-0.48429998755455017,10.4266996383667
1702210528068817200,47.91481713867187,-5.616299629211426,2.373800039291382,9.797699928283691
1702210528128817200,47.974817138671874,-7.0976996421813965,2.5362000465393066,12.282999992370605
1702210528188817200,48.034817138671876,-6.201999664306641,2.8748998641967773,11.688899993896484
1702210528248817200,48.09481713867188,-6.533799648284912,-3.514400005340576,10.71619987487793
1702210528308817200,48.15481713867187,-2.9040000438690186,-6.517600059509277,7.765499591827393
1702210528368817200,48.214817138671876,-0.30959999561309814,-5.557300090789795,3.227599859237671
1702210528428817200,48.27481713867188,1.5428999662399292,-4.4517998695373535,0.8466999530792236
1702210528488817200,48.33481713867187,2.0511999130249023,-5.752399921417236,-1.4632999897003174
1702210528548817200,48.394817138671876,3.1327998638153076,-6.324199676513672,-1.8707000017166138
1702210528608817200,48.45481713867188,4.274699687957764,-6.374399662017822,-4.1605000495910645
1702210528668817200,48.51481713867187,3.546799898147583,-7.1327996253967285,-9.563799858093262
1702210528728817200,48.574817138671875,2.9925999641418457,-7.558799743652344,-11.737799644470215
1702210528788817200,48.63481713867188,-0.3335999846458435,-7.392299652099609,-4.055500030517578
1702210528848817200,48.69481713867187,-0.3667999804019928,-7.473899841308594,-1.9864999055862427
1702210528908817200,48.754817138671875,0.9904999732971191,-5.381099700927734,0.5755999684333801
1702210528968817200,48.81481713867188,-0.5027999877929688,-1.0241999626159668,3.2421998977661133
1702210529028817200,48.87481713867187,-1.8858999013900757,-0.39149999618530273,5.941099643707275
1702210529088817200,48.934817138671875,-2.8690998554229736,-0.674299955368042,7.911899566650391
1702210529148817200,48.99481713867188,-3.67549991607666,2.790299892425537,7.063499927520752
1702210529208817200,49.05481713867187,-5.4263997077941895,0.3132999837398529,7.528499603271484
1702210529268817200,49.114817138671874,-4.532299995422363,2.047299861907959,10.006099700927734
1702210529328817200,49.17481713867188,-6.822399616241455,1.0019999742507935,8.14900016784668
1702210529388817200,49.23481713867187,-5.027699947357178,-3.0120999813079834,7.0590996742248535
1702210529448817200,49.294817138671874,-1.4876999855041504,-2.652099847793579,3.990999937057495
1702210529508817200,49.354817138671876,0.6696000099182129,-1.1506999731063843,2.1798999309539795
1702210529568817200,49.41481713867187,1.2580000162124634,-1.6797999143600464,1.01419997215271
1702210529628817200,49.474817138671874,1.7798999547958374,-4.5493998527526855,0.27160000801086426
1702210529688817200,49.534817138671876,2.9995999336242676,-5.361099720001221,-0.8136000037193298
1702210529748817200,49.59481713867188,3.2010998725891113,-5.961299896240234,-6.033199787139893
1702210529808817200,49.65481713867187,2.745999813079834,-6.098799705505371,-10.047900199890137
1702210529868817200,49.714817138671876,2.548099994659424,-5.706999778747559,-7.615499973297119
1702210529928817200,49.77481713867188,-0.4334999918937683,-5.612799644470215,-3.7644999027252197
1702210529988817200,49.83481713867187,0.11229999363422394,-5.111499786376953,-1.4824999570846558
1702210530048817200,49.894817138671876,1.5130000114440918,-1.8631999492645264,0.7221999764442444
1702210530108817200,49.95481713867188,0.08089999854564667,-0.25099998712539673,3.2510998249053955
1702210530168817200,50.01481713867187,-0.11819999665021896,-1.0166000127792358,6.077600002288818
1702210530228817200,50.074817138671875,-4.668399810791016,1.3740999698638916,9.966899871826172
1702210530288817200,50.13481713867188,-6.384500026702881,3.2520999908447266,6.769499778747559
1702210530348817200,50.19481713867187,-5.493899822235107,-0.41599997878074646,8.755499839782715
1702210530408817200,50.254817138671875,-3.4250998497009277,-0.24689999222755432,8.998700141906738
1702210530468817200,50.31481713867188,-3.1826000213623047,-2.8561999797821045,8.348400115966797
1702210530528817200,50.37481713867187,-0.7235999703407288,-3.9629998207092285,6.126399993896484
1702210530588817200,50.434817138671875,0.7702999711036682,-1.1991000175476074,3.034799814224243
1702210530648817200,50.49481713867188,1.5484999418258667,0.29099997878074646,1.2006999254226685
1702210530708817200,50.55481713867187,1.15339994430542,-5.5351996421813965,-1.3137999773025513
1702210530768817200,50.614817138671874,3.303499937057495,-6.747099876403809,-1.5694999694824219
1702210530828817200,50.67481713867188,2.472899913787842,-8.076799392700195,-5.84119987487793
1702210530888817200,50.73481713867187,2.2010998725891113,-6.723899841308594,-9.179299354553223
1702210530948817200,50.794817138671874,1.8020999431610107,-5.578199863433838,-6.999799728393555
1702210531008817200,50.854817138671876,2.537099838256836,-6.383800029754639,-4.728300094604492
1702210531068817200,50.91481713867187,5.071700096130371,-5.294899940490723,-2.1531999111175537
1702210531128817200,50.974817138671874,1.5209999084472656,-3.5757999420166016,1.0770000219345093
1702210531188817200,51.034817138671876,0.46549999713897705,-4.22790002822876,4.619100093841553
1702210531248817200,51.09481713867188,1.184999942779541,-3.3982999324798584,11.16569995880127
1702210531308817200,51.15481713867187,-0.6894999742507935,0.5191999673843384,8.877699851989746
1702210531368817200,51.214817138671876,-3.1838998794555664,1.7939000129699707,8.166600227355957
1702210531428817200,51.27481713867188,-7.338199615478516,0.22759999334812164,10.189599990844727
1702210531488817200,51.33481713867187,-9.260299682617188,2.777400016784668,12.214099884033203
1702210531548817200,51.394817138671876,-7.166100025177002,-1.5019999742507935,8.575200080871582
1702210531608817200,51.45481713867188,-2.4231998920440674,-4.6844000816345215,7.749300003051758
1702210531668817200,51.51481713867187,-0.004699999932199717,-4.058399677276611,6.149199962615967
1702210531728817200,51.574817138671875,-0.6351000070571899,-5.967700004577637,3.4796998500823975
1702210531788817200,51.63481713867188,1.1506999731063843,-8.309700012207031,0.7519999742507935
1702210531848817200,51.69481713867187,2.184000015258789,-8.297100067138672,-1.9532999992370605
1702210531908817200,51.754817138671875,5.372299671173096,-7.905900001525879,-9.319499969482422
1702210531968817200,51.81481713867188,4.073800086975098,-4.457799911499023,-10.921699523925781
1702210532028817200,51.87481713867187,2.64520001411438,-6.960000038146973,-6.125400066375732
1702210532088817200,51.934817138671875,2.360100030899048,-9.263999938964844,-3.045599937438965
1702210532148817200,51.99481713867188,3.8039000034332275,-5.633199691772461,-3.4861998558044434
1702210532208817200,52.05481713867187,1.9366999864578247,-2.1036999225616455,-2.8795998096466064
1702210532268817200,52.114817138671874,-1.834999918937683,-2.780900001525879,-2.8929998874664307
1702210532328817200,52.17481713867188,-4.67519998550415,-6.079899787902832,2.287600040435791
1702210532388817200,52.23481713867187,-6.0503997802734375,-4.8267998695373535,12.751899719238281
1702210532448817200,52.294817138671874,-4.7480998039245605,-1.0250999927520752,9.83329963684082
1702210532508817200,52.354817138671876,-5.518099784851074,1.4117999076843262,9.011799812316895
1702210532568817200,52.41481713867187,-6.360499858856201,0.7010999917984009,10.303299903869629
1702210532628817200,52.474817138671874,-3.53659987449646,0.4908999800682068,8.655799865722656
1702210532688817200,52.534817138671876,-1.8978999853134155,1.6786999702453613,5.441699981689453
1702210532748817200,52.59481713867188,-0.849399983882904,0.5184000134468079,2.926100015640259
1702210532808817200,52.65481713867187,0.3109999895095825,-2.0608999729156494,1.4352999925613403
1702210532868817200,52.714817138671876,-0.6134999990463257,-6.633999824523926,0.7066999673843384
1702210532928817200,52.77481713867188,2.197200059890747,-7.8907999992370605,-4.628399848937988
1702210532988817200,52.83481713867187,2.8035998344421387,-6.114500045776367,-12.837599754333496
1702210533048817200,52.894817138671876,0.8563999533653259,-6.603799819946289,-7.8618998527526855
1702210533108817200,52.95481713867188,-0.4821999967098236,-8.2878999710083,-4.53439998626709
1702210533168817200,53.01481713867187,2.9198999404907227,-1.5782999992370605,-2.361799955368042
1702210533228817200,53.074817138671875,0.4672999978065491,0.14509999752044678,0.2858999967575073
1702210533288817200,53.13481713867188,1.0379999876022339,-0.2230999916791916,2.2030999660491943
1702210533348817200,53.19481713867187,-0.613099992275238,-1.2702999114990234,4.747099876403809
1702210533408817200,53.254817138671875,-4.377799987792969,0.8712999820709229,8.515999794006348
1702210533468817200,53.31481713867188,-7.706099987030029,-2.389699935913086,11.48289966583252
1702210533528817200,53.37481713867187,-5.351399898529053,0.8034999966621399,12.124799728393555
1702210533588817200,53.434817138671875,-4.825500011444092,-0.2239999920129776,6.189899921417236
1702210533648817200,53.49481713867188,-1.164099931716919,-3.0939998626708984,5.82450008392334
1702210533708817200,53.55481713867187,-0.04389999806880951,-2.250999927520752,4.810299873352051
1702210533768817200,53.614817138671874,0.5759999752044678,-3.104300022125244,1.6245999336242676
1702210533828817200,53.67481713867188,2.2331998348236084,-4.850399971008301,-0.5080999732017517
1702210533888817200,53.73481713867187,3.5623998641967773,-5.748499870300293,-4.024699687957764
1702210533948817200,53.794817138671874,3.7221999168395996,-6.78909969329834,-11.682499885559082
1702210534008817200,53.854817138671876,2.308799982070923,-6.484999656677246,-13.015799522399902
1702210534068817200,53.91481713867187,-0.16169999539852142,-8.2746000289917,-8.025099754333496
1702210534128817200,53.974817138671874,-1.07260000705719,-9.304800033569336,-1.319700002670288
1702210534188817200,54.034817138671876,1.458899974822998,-6.0680999755859375,0.7464999556541443
1702210534248817200,54.09481713867188,0.09279999881982803,-2.1160998344421387,3.1369998455047607
1702210534308817200,54.15481713867187,-1.3180999755859375,-1.6071999073028564,6.253999710083008
1702210534368817200,54.214817138671876,-1.855299949645996,-0.384799987077713,9.289899826049805
1702210534428817200,54.27481713867188,-4.164499759674072,2.481299877166748,12.71500015258789
1702210534488817200,54.33481713867187,-3.8862998485565186,1.843400001525879,12.030099868774414
1702210534548817200,54.394817138671876,-4.708499908447266,2.3076999187469482,10.99209976196289
1702210534608817200,54.45481713867188,-4.9344000816345215,-1.597000002861023,10.267499923706055
1702210534668817200,54.51481713867187,-2.836400032043457,-6.205499649047852,7.955399990081787
1702210534728817200,54.574817138671875,-0.21400000154972076,-5.9243998527526855,3.929799795150757
1702210534788817200,54.63481713867188,1.1563999652862549,-4.529599666595459,0.9351999759674072
1702210534848817200,54.69481713867187,1.761799931526184,-5.398699760437012,-1.517199993133545
1702210534908817200,54.754817138671875,1.9210000038146973,-6.213399887084961,-3.8729000091552734
1702210534968817200,54.81481713867188,2.984499931335449,-7.539299964904785,-9.306499481201172
1702210535028817200,54.87481713867187,3.936199903488159,-6.4390997886657715,-10.055399894714355
1702210535088817200,54.934817138671875,0.9572999477386475,-9.896900177001953,-7.335599899291992
1702210535148818700,54.994818603515625,1.0746999979019165,-7.565399646759033,-3.900099992752075
1702210535208817200,55.05481713867187,-0.7459999918937683,-5.905200004577637,-3.164299964904785
1702210535268817200,55.114817138671874,0.7551999688148499,-3.731599807739258,0.23339998722076416
1702210535328817200,55.17481713867188,0.2272999882698059,-3.7291998863220215,5.3740997314453125
1702210535388817200,55.23481713867187,-0.5241999626159668,-1.6340999603271484,11.7839994430542
1702210535448817200,55.294817138671874,-2.2170000076293945,1.761699914932251,7.007499694824219
1702210535508817200,55.354817138671876,-4.508399963378906,1.6924999952316284,9.462900161743164
1702210535568817200,55.41481713867187,-2.964599847793579,0.4562999904155731,14.345499992370605
1702210535628817200,55.474817138671874,-4.0092997550964355,-1.3284999132156372,11.808499336242676
1702210535688817200,55.534817138671876,-2.5027999877929688,-4.676000118255615,9.012899398803711
1702210535748817200,55.59481713867188,0.70660001039505,-3.4835000038146973,5.794399738311768
1702210535808817200,55.65481713867187,0.9451999664306641,-2.2493999004364014,2.6503000259399414
1702210535868817200,55.714817138671876,1.139799952507019,-5.158799648284912,0.8939999938011169
1702210535928817200,55.77481713867188,3.3033998012542725,-7.214200019836426,-1.6150999069213867
1702210535988817200,55.83481713867187,4.36329984664917,-6.439399719238281,-4.467299938201904
1702210536048817200,55.894817138671876,4.070699691772461,-6.820899963378906,-7.977799892425537
1702210536108817200,55.95481713867188,2.0504000186920166,-6.784499645233154,-8.291699409484863
1702210536168817200,56.01481713867187,2.529899835586548,-5.904299736022949,-9.629799842834473
1702210536228817200,56.074817138671875,1.5341999530792236,-7.787799835205078,-2.9900999069213867
1702210536288817200,56.13481713867188,2.0837998390197754,-6.597399711608887,-0.37070000171661377
1702210536348817200,56.19481713867187,0.09019999951124191,-4.627599716186523,3.7209999561309814
1702210536408817200,56.254817138671875,-1.1855000257492065,-3.921999931335449,8.742400169372559
1702210536468817200,56.31481713867188,-2.690199851989746,-1.6881999969482422,6.992300033569336
1702210536528817200,56.37481713867187,-5.653299808502197,0.6039999723434448,11.927000045776367
1702210536588817200,56.434817138671875,-5.224599838256836,4.315400123596191,15.667499542236328
1702210536648817200,56.49481713867188,-6.452600002288818,2.2035999298095703,11.074899673461914
1702210536708817200,56.55481713867187,-4.343499660491943,-2.3164000511169434,11.300999641418457
1702210536768817200,56.614817138671874,-2.4031999111175537,-7.14769983291626,9.547399520874023
1702210536828817200,56.67481713867188,-0.3788999915122986,-4.308700084686279,6.38539981842041
1702210536888817200,56.73481713867187,1.3121999502182007,-4.569299697875977,2.3123998641967773
1702210536948817200,56.794817138671874,1.0321999788284302,-8.328100204467773,0.6434999704360962
1702210537008817200,56.854817138671876,3.7849998474121094,-8.583799362182617,-1.1632000207901
1702210537068817200,56.91481713867187,5.6230998039245605,-7.441199779510498,-8.165599822998047
1702210537128817200,56.974817138671874,3.5125999450683594,-7.473099708557129,-11.706899642944336
1702210537188818700,57.034818603515625,0.15230000019073486,-9.723899841308594,-8.553999900817871
1702210537248817200,57.09481713867188,0.5249999761581421,-8.198599815368652,-3.7746999263763428
1702210537308817200,57.15481713867187,-0.25200000405311584,-5.315099716186523,-4.229700088500977
1702210537368817200,57.214817138671876,-0.25220000743865967,-2.855299949645996,-0.6931999921798706
1702210537428817200,57.27481713867188,-1.6620999574661255,-3.006899833679199,2.2279000282287598
1702210537488817200,57.33481713867187,-0.6100000143051147,-3.7956998348236084,9.373499870300293
1702210537548817200,57.394817138671876,-1.4759999513626099,0.03529999777674675,11.105199813842773
1702210537608817200,57.45481713867188,-0.9523999691009521,1.1323999166488647,11.355499267578125
1702210537668817200,57.51481713867187,-3.5188000202178955,3.0105998516082764,10.529699325561523
1702210537728817200,57.574817138671875,-6.855899810791016,1.2796000242233276,10.278900146484375
1702210537788817200,57.63481713867188,-3.4340999126434326,-2.001800060272217,9.898699760437012
1702210537848817200,57.69481713867187,-1.7466999292373657,-3.350600004196167,7.165999889373779
1702210537908817200,57.754817138671875,-1.2458000183105469,-1.507200002670288,5.3441996574401855
1702210537968817200,57.81481713867188,-2.566499948501587,-5.28849983215332,4.085700035095215
1702210538028817200,57.87481713867187,-0.30649998784065247,-7.98859977722168,1.5219999551773071
1702210538088817200,57.934817138671875,2.112799882888794,-10.097399711608887,-0.6602999567985535
1702210538148818700,57.994818603515625,5.207599639892578,-7.494499683380127,-4.188199996948242
1702210538208817200,58.05481713867187,5.001199722290039,-6.646999835968018,-7.105199813842773
1702210538268817200,58.114817138671874,3.9602999687194824,-7.6678996086120605,-5.406599998474121
1702210538328817200,58.17481713867188,5.1915998458862305,-7.90939998626709,-4.40910005569458
1702210538388817200,58.23481713867187,6.126999855041504,-6.18720006942749,-7.660499572753906
1702210538448817200,58.294817138671874,2.7567999362945557,-4.210099697113037,-6.081699848175049
1702210538508817200,58.354817138671876,-1.3423999547958374,-6.283499717712402,-3.269399881362915
1702210538568817200,58.41481713867187,-4.217799663543701,-8.953800201416016,2.3894999027252197
1702210538628817200,58.474817138671874,-4.962399959564209,-8.22760009765625,10.491600036621094
1702210538688817200,58.534817138671876,-4.305200099945068,-2.3903000354766846,11.27299976348877
1702210538748817200,58.59481713867188,-3.942499876022339,-0.7895999550819397,8.526199340820312
1702210538808887300,58.65488720703125,-6.1803998947143555,3.535599946975708,12.836099624633789
1702210538868817200,58.714817138671876,-6.092400074005127,1.619499921798706,13.285200119018555
1702210538928817200,58.77481713867188,-3.941699981689453,-0.5458999872207642,9.103899955749512
1702210538988817200,58.83481713867187,-2.437000036239624,0.26109999418258667,5.107999801635742
1702210539048817200,58.894817138671876,-2.069000005722046,-1.9544999599456787,2.3729000091552734
1702210539108817200,58.95481713867188,-0.8757999539375305,-6.320199966430664,1.2333999872207642
1702210539168817200,59.01481713867187,0.11949999630451202,-7.983299732208252,1.0551999807357788
1702210539228817200,59.074817138671875,1.2339999675750732,-6.902499675750732,1.6556999683380127
1702210539288817200,59.13481713867188,5.853399753570557,-5.594799995422363,-6.054599761962891
1702210539348817200,59.19481713867187,3.144899845123291,-7.702399730682373,-6.9430999755859375
1702210539408817200,59.254817138671875,4.560499668121338,-5.341799736022949,-8.39109992980957
1702210539468817200,59.31481713867188,3.8282999992370605,-3.4761998653411865,-5.813999652862549
1702210539528817200,59.37481713867187,2.179499864578247,-1.735700011253357,-3.8155999183654785
1702210539588817200,59.434817138671875,0.9643999934196472,-1.94159996509552,-1.1835999488830566
1702210539648817200,59.49481713867188,-1.3040000200271606,-4.1519999504089355,1.330899953842163
1702210539708817200,59.55481713867187,-5.7251996994018555,-1.8788999319076538,6.976799964904785
1702210539768817200,59.614817138671874,-6.352799892425537,0.2491999864578247,8.06719970703125
1702210539828817200,59.67481713867188,-5.60699987411499,2.143199920654297,7.636099815368652
1702210539888817200,59.73481713867187,-7.146399974822998,-0.2736999988555908,7.892399787902832
1702210539948817200,59.794817138671874,-2.7697999477386475,-1.4023000001907349,11.032899856567383
1702210540008817200,59.854817138671876,-0.4348999857902527,0.618399977684021,5.996399879455566
1702210540068817200,59.91481713867187,0.02589999884366989,1.2008999586105347,2.1389000415802
1702210540128817200,59.974817138671874,1.065999984741211,-1.7948999404907227,0.6708999872207642
1702210540188817200,60.034817138671876,1.2807999849319458,-3.9026999473571777,-0.7876999974250793
1702210540248817200,60.09481713867188,1.8985999822616577,-5.071099758148193,-0.8137999773025513
1702210540308817200,60.15481713867187,2.850100040435791,-7.074899673461914,-7.055899620056152
1702210540368817200,60.214817138671876,1.4115999937057495,-5.234799861907959,-10.098899841308594
1702210540428817200,60.27481713867188,-0.6613999605178833,-2.651099920272827,-5.450599670410156
1702210540488817200,60.33481713867187,-0.40789997577667236,-6.874599933624268,-3.4591000080108643
1702210540548845300,60.39484521484375,2.625999927520752,-4.980999946594238,-0.6980999708175659
1702210540608817200,60.45481713867188,1.5877999067306519,-2.205199956893921,2.0678000450134277
1702210540668817200,60.51481713867187,-0.7321999669075012,-0.9059000015258789,5.1554999351501465
1702210540728817200,60.574817138671875,-0.6430999636650085,1.7055999040603638,7.120299816131592
1702210540788817200,60.63481713867188,-3.333599805831909,1.6038999557495117,4.988499641418457
1702210540848817200,60.69481713867187,-3.724299907684326,-0.12719999253749847,8.560500144958496
1702210540908817200,60.754817138671875,-3.3660998344421387,-0.15439999103546143,11.105199813842773
1702210540968817200,60.81481713867188,-4.27869987487793,0.204599991440773,6.911399841308594
1702210541028817200,60.87481713867187,-3.702399969100952,-2.2574000358581543,4.7795000076293945
1702210541088817200,60.934817138671875,-1.684899926185608,-4.0894999504089355,2.8274998664855957
1702210541148818700,60.994818603515625,1.0758999586105347,-2.3847999572753906,-0.44020000100135803
1702210541208817200,61.05481713867187,1.2372000217437744,-2.3035998344421387,-2.9387998580932617
1702210541268817200,61.114817138671874,1.6694999933242798,-3.40339994430542,-3.128199815750122
1702210541328817200,61.17481713867188,1.9601999521255493,-4.142499923706055,-3.9183998107910156
1702210541388817200,61.23481713867187,3.0815999507904053,-4.187699794769287,-5.5391998291015625
1702210541448817200,61.294817138671874,3.475399971008301,-4.473199844360352,-6.116499900817871
1702210541508817200,61.354817138671876,3.310499906539917,-1.8616999387741089,-3.6541998386383057
1702210541568817200,61.41481713867187,0.15429998934268951,-3.997299909591675,-4.014199733734131
1702210541628817200,61.474817138671874,-0.08919999748468399,-3.9266998767852783,-1.3118000030517578
1702210541688817200,61.534817138671876,-1.7592999935150146,-1.8644999265670776,2.110599994659424
1702210541748817200,61.59481713867188,-2.6810998916625977,-0.7773999571800232,6.051199913024902
1702210541808817200,61.65481713867187,-2.467599868774414,1.1931999921798706,6.995699882507324
1702210541868817200,61.714817138671876,-3.6168999671936035,1.2919999361038208,6.0239996910095215
1702210541928817200,61.77481713867188,-3.128199815750122,0.538100004196167,7.976799964904785
1702210541988817200,61.83481713867187,-4.482800006866455,1.7720999717712402,9.065499305725098
1702210542048817200,61.894817138671876,-5.3780999183654785,-0.02070000022649765,6.550299644470215
1702210542108817200,61.95481713867188,-3.1917998790740967,-2.023900032043457,4.714900016784668
1702210542168817200,62.01481713867187,-0.9566999673843384,-0.8804000020027161,2.030400037765503
1702210542228817200,62.074817138671875,-1.0723999738693237,-0.6656000018119812,3.6755998134613037
1702210542288817200,62.13481713867188,0.1216999962925911,-6.070099830627441,5.318899631500244
1702210542348817200,62.19481713867187,1.0789999961853027,-8.615399360656738,0.29159998893737793
1702210542408817200,62.254817138671875,1.1395999193191528,-9.126799583435059,-3.569899797439575
1702210542468817200,62.31481713867188,1.7386000156402588,-7.202199935913086,-6.7932000160217285
1702210542528817200,62.37481713867187,2.9925999641418457,-4.670000076293945,-12.204999923706055
1702210542588817200,62.434817138671875,0.9840999841690063,-4.054999828338623,-8.734199523925781
1702210542648817200,62.49481713867188,0.714199960231781,-5.364500045776367,-7.247499942779541
1702210542708817200,62.55481713867187,1.6172000169754028,-7.3140997886657715,-3.7024998664855957
1702210542768817200,62.614817138671874,-0.6877999901771545,-8.838199615478516,2.5745999813079834
1702210542828817200,62.67481713867188,-2.075899839401245,-2.335899829864502,12.46869945526123
1702210542888817200,62.73481713867187,-5.581199645996094,0.6545000076293945,5.192699909210205
1702210542948817200,62.794817138671874,-8.598899841308594,4.560800075531006,7.72629976272583
1702210543008817200,62.854817138671876,-5.422699928283691,2.9821999073028564,8.6968994140625
1702210543068817200,62.91481713867187,-1.2436000108718872,0.1354999989271164,7.135499954223633
1702210543128817200,62.974817138671874,-1.7136999368667603,-2.6566998958587646,7.412399768829346
1702210543188817200,63.034817138671876,-1.115299940109253,-3.5627999305725098,5.54509973526001
1702210543248817200,63.09481713867188,-0.6141999959945679,-3.1410000324249268,1.2869999408721924
1702210543308817200,63.15481713867187,1.615299940109253,-0.9081999659538269,-1.9655998945236206
1702210543368817200,63.214817138671876,1.6912999153137207,-0.0357000008225441,-4.918699741363525
1702210543428817200,63.27481713867188,0.13769999146461487,-0.13120000064373016,-4.714699745178223
1702210543488817200,63.33481713867187,0.3702999949455261,-3.1190998554229736,-4.284599781036377
1702210543548817200,63.394817138671876,0.3319999873638153,-4.532299995422363,-3.506699800491333
1702210543608817200,63.45481713867188,1.3273999691009521,-4.032899856567383,-3.689199924468994
1702210543668817200,63.51481713867187,1.6281999349594116,-3.788299798965454,-2.6377999782562256
1702210543728817200,63.574817138671875,0.05700000002980232,-2.2730000019073486,-0.6000999808311462
1702210543788817200,63.63481713867188,0.9469999670982361,-2.1933999061584473,0.8623999953269958
1702210543848817200,63.69481713867187,2.02020001411438,0.712399959564209,1.9280999898910522
1702210543908817200,63.754817138671875,1.7199000120162964,0.00699999975040555,2.3348000049591064
1702210543968817200,63.81481713867188,0.7705999612808228,1.0054999589920044,4.492000102996826
1702210544028817200,63.87481713867187,-2.284600019454956,2.5125999450683594,6.303799629211426
1702210544088817200,63.934817138671875,-5.64139986038208,2.203399896621704,6.007299900054932
1702210544148817200,63.99481713867188,-4.0879998207092285,2.359799861907959,6.657399654388428
1702210544208817200,64.05481713867188,-5.573999881744385,-1.7978999614715576,8.534699440002441
1702210544268817200,64.11481713867188,-4.075599670410156,-1.8643999099731445,6.700199604034424
1702210544328817200,64.17481713867187,-2.747999906539917,-4.784599781036377,5.209399700164795
1702210544388817200,64.23481713867187,0.7508999705314636,-4.823299884796143,3.3810999393463135
1702210544448817200,64.29481713867187,2.124199867248535,-2.893899917602539,0.47259998321533203
1702210544508817200,64.35481713867188,3.166599988937378,-3.227799892425537,-1.7351999282836914
1702210544568817200,64.41481713867188,4.121099948883057,-4.121200084686279,-3.698899984359741
1702210544628817200,64.47481713867188,4.3125,-5.262199878692627,-6.332200050354004
1702210544688817200,64.53481713867187,4.323599815368652,-4.5690999031066895,-6.150699615478516
1702210544748817200,64.59481713867187,1.0077999830245972,-5.726999759674072,-5.942999839782715
1702210544808817200,64.65481713867187,2.4575998783111572,-4.869699954986572,-4.730899810791016
1702210544868817200,64.71481713867188,-0.7208999991416931,-5.495100021362305,-3.328699827194214
1702210544928817200,64.77481713867188,1.573799967765808,-6.66949987411499,-0.4731999933719635
1702210544988817200,64.83481713867188,1.691100001335144,-4.945399761199951,2.0007998943328857
1702210545048817200,64.89481713867187,-0.40939998626708984,-3.5978000164031982,7.3715996742248535
1702210545108817200,64.95481713867187,-0.8079999685287476,-1.4931999444961548,8.879799842834473
1702210545168817200,65.01481713867187,-2.7019999027252197,1.9186999797821045,8.120299339294434
1702210545228817200,65.07481713867188,-5.502399921417236,1.6651999950408936,11.603599548339844
1702210545288817200,65.13481713867188,-3.098099946975708,1.2732999324798584,10.733499526977539
1702210545348817200,65.19481713867188,-3.8745999336242676,1.0922999382019043,8.944600105285645
1702210545408817200,65.25481713867188,-4.007699966430664,-1.45579993724823,6.4822998046875
1702210545468817200,65.31481713867187,-2.0913000106811523,-4.517600059509277,5.5376996994018555
1702210545528817200,65.37481713867187,0.05339999869465828,-2.4795000553131104,2.7827999591827393
1702210545588817200,65.43481713867187,-0.2011999934911728,-1.800399899482727,1.0286999940872192
1702210545648817200,65.49481713867188,1.629499912261963,-2.8731000423431396,0.5726999640464783
1702210545708817200,65.55481713867188,2.416800022125244,-4.741199970245361,-0.28380000591278076
1702210545768817200,65.61481713867188,4.481299877166748,-6.0630998611450195,-1.7168999910354614
1702210545828817200,65.67481713867187,5.159499645233154,-5.464200019836426,-7.512899875640869
1702210545888817200,65.73481713867187,3.431999921798706,-5.149699687957764,-7.016499996185303
1702210545948817200,65.79481713867187,1.6134999990463257,-5.2540998458862305,-5.272900104522705
1702210546008817200,65.85481713867188,1.2807999849319458,-5.220900058746338,-3.008699893951416
1702210546068817200,65.91481713867188,1.108699917793274,-3.2620999813079834,-1.4483000040054321
1702210546128817200,65.97481713867188,0.48259997367858887,-3.2219998836517334,1.0422999858856201
1702210546188817200,66.03481713867187,-1.7529999017715454,-1.8793998956680298,3.4091999530792236
1702210546248817200,66.09481713867187,-5.9014997482299805,0.1923999935388565,5.2669997215271
1702210546308817200,66.15481713867187,-8.314399719238281,0.9309999942779541,7.910799980163574
1702210546368817200,66.21481713867188,-7.184599876403809,1.199199914932251,8.151599884033203
1702210546428817200,66.27481713867188,-9.65719985961914,0.46230000257492065,10.390899658203125
1702210546488817200,66.33481713867188,-7.538599967956543,-0.5640999674797058,8.51609992980957
1702210546548817200,66.39481713867187,-4.724100112915039,-3.699699878692627,5.669099807739258
1702210546608817200,66.45481713867187,-1.0450999736785889,-2.8753998279571533,3.05049991607666
1702210546668817200,66.51481713867187,0.9223999977111816,-3.0797998905181885,-0.3392999768257141
1702210546728817200,66.57481713867188,3.304999828338623,-4.2876996994018555,-1.5985000133514404
1702210546788817200,66.63481713867188,4.152100086212158,-6.0578999519348145,-1.5372999906539917
1702210546848817200,66.69481713867188,3.2653000354766846,-6.1168999671936035,-0.10130000114440918
1702210546908817200,66.75481713867188,4.059299945831299,-4.7328996658325195,-4.8993000984191895
1702210546968817200,66.81481713867187,1.5769000053405762,-7.072399616241455,-10.921599388122559
1702210547028817200,66.87481713867187,2.4286999702453613,-4.109799861907959,-6.4691996574401855
1702210547088817200,66.93481713867187,0.8847999572753906,-6.158999919891357,-3.397199869155884
1702210547148817200,66.99481713867188,2.355299949645996,-5.501399993896484,-1.3141999244689941
1702210547208817200,67.05481713867188,0.8001999855041504,-4.059299945831299,2.186800003051758
1702210547268817200,67.11481713867188,-1.899899959564209,-3.6287999153137207,7.9953999519348145
1702210547328817200,67.17481713867187,-3.4700000286102295,-0.1460999995470047,9.383399963378906
1702210547388817200,67.23481713867187,-5.406199932098389,0.5011999607086182,4.7978997230529785
1702210547448817200,67.29481713867187,-7.156199932098389,-0.14720000326633453,5.554999828338623
1702210547508817200,67.35481713867188,-8.245100021362305,2.1098999977111816,7.249300003051758
1702210547568817200,67.41481713867188,-7.854599952697754,1.3320999145507812,6.387499809265137
1702210547628817200,67.47481713867188,-4.763199806213379,-3.1862998008728027,6.1626996994018555
1702210547688817200,67.53481713867187,-2.401599884033203,-4.478300094604492,4.775899887084961
1702210547748817200,67.59481713867187,-0.4032999873161316,-4.950099945068359,2.2777998447418213
1702210547808817200,67.65481713867187,3.697199821472168,-1.9016000032424927,-2.447499990463257
1702210547868817200,67.71481713867188,4.106899738311768,-2.377500057220459,-4.473400115966797
1702210547928817200,67.77481713867188,3.56469988822937,-3.7946999073028564,-4.109799861907959
1702210547988817200,67.83481713867188,3.099900007247925,-4.540800094604492,-3.2709999084472656
1702210548048817200,67.89481713867187,3.5762999057769775,-2.119499921798706,-3.2647998332977295
1702210548108817200,67.95481713867187,3.575399875640869,-4.458399772644043,-4.1026997566223145
1702210548168817200,68.01481713867187,0.679099977016449,-5.604499816894531,-0.8149999976158142
1702210548228817200,68.07481713867188,-2.2730000019073486,-5.007199764251709,1.2470999956130981
1702210548288817200,68.13481713867188,-0.902999997138977,-1.3076999187469482,1.510699987411499
1702210548348817200,68.19481713867188,-2.360999822616577,1.76829993724823,1.494399905204773
1702210548408817200,68.25481713867188,-3.537599802017212,2.2446999549865723,2.0658998489379883
1702210548468817200,68.31481713867187,-4.77810001373291,1.3966000080108643,4.729599952697754
1702210548528817200,68.37481713867187,-4.780600070953369,3.7555999755859375,6.934000015258789
1702210548588817200,68.43481713867187,-3.563999891281128,0.9603999853134155,4.81119966506958
1702210548648817200,68.49481713867188,-3.5234999656677246,0.2069999873638153,6.669099807739258
1702210548708817200,68.55481713867188,-6.974099636077881,-1.065999984741211,9.753499984741211
1702210548768817200,68.61481713867188,-2.489500045776367,-5.569200038909912,5.605000019073486
1702210548828817200,68.67481713867187,0.9937999844551086,-5.387599945068359,1.979699969291687
1702210548888817200,68.73481713867187,3.25249981880188,-1.8410999774932861,-0.7609999775886536
1702210548948817200,68.79481713867187,3.490799903869629,-2.2771999835968018,-2.952899932861328
1702210549008817200,68.85481713867188,3.5989999771118164,-2.923099994659424,-2.644399881362915
1702210549068817200,68.91481713867188,1.621500015258789,-3.37719988822937,-3.22189998626709
1702210549128817200,68.97481713867188,-0.31700000166893005,-4.985199928283691,-3.784299850463867
1702210549188817200,69.03481713867187,-0.13249999284744263,-4.692599773406982,-8.521599769592285
1702210549248817200,69.09481713867187,0.3482999801635742,-3.1031999588012695,-5.693299770355225
1702210549308817200,69.15481713867187,-0.18979999423027039,-5.83929967880249,-3.0102999210357666
1702210549368817200,69.21481713867188,2.5127999782562256,-4.708600044250488,-1.1033999919891357
1702210549428817200,69.27481713867188,2.2284998893737793,-2.234799861907959,0.030499998480081558
1702210549488817200,69.33481713867188,1.3025000095367432,-2.6050000190734863,2.0662999153137207
1702210549548817200,69.39481713867187,-1.291100025177002,-1.9422999620437622,6.508800029754639
1702210549608817200,69.45481713867187,-3.2105000019073486,0.9248999953269958,6.403199672698975
1702210549668817200,69.51481713867187,-3.079399824142456,1.1435999870300293,4.6738996505737305
1702210549728817200,69.57481713867188,-2.4106998443603516,-1.0586999654769897,8.512299537658691
1702210549788817200,69.63481713867188,-5.43589973449707,1.4035999774932861,11.9375
1702210549848817200,69.69481713867188,-7.603299617767334,2.4159998893737793,6.067699909210205
1702210549908817200,69.75481713867188,-2.387199878692627,-0.4195999801158905,3.8596999645233154
1702210549968817200,69.81481713867187,0.2651999890804291,0.48079997301101685,2.5190999507904053
1702210550028817200,69.87481713867187,-0.2840999960899353,0.7265999913215637,3.2319998741149902
1702210550088817200,69.93481713867187,0.917199969291687,-1.0448999404907227,4.69849967956543
1702210550148817200,69.99481713867188,0.8066999912261963,-3.0360000133514404,3.574199914932251
1702210550208817200,70.05481713867188,1.5822999477386475,-6.450899600982666,0.7283999919891357
1702210550268817200,70.11481713867188,2.126800060272217,-6.935499668121338,-4.600299835205078
1702210550328817200,70.17481713867187,3.556999921798706,-6.843799591064453,-10.15619945526123
1702210550388817200,70.23481713867187,2.751199960708618,-7.077699661254883,-8.71500015258789
1702210550448817200,70.29481713867187,0.495199978351593,-8.76039981842041,-4.134500026702881
1702210550508817200,70.35481713867188,1.2042999267578125,-7.967199802398682,-1.6090999841690063
1702210550568817200,70.41481713867188,-0.767799973487854,-4.829599857330322,3.0038998126983643
1702210550628817200,70.47481713867188,-2.1972999572753906,-3.14520001411438,6.348299980163574
1702210550688817200,70.53481713867187,-2.9470999240875244,-0.16539999842643738,7.753599643707275
1702210550748817200,70.59481713867187,-3.3452999591827393,2.3782999515533447,7.7201995849609375
1702210550808817200,70.65481713867187,-5.365200042724609,4.064799785614014,11.166299819946289
1702210550868817200,70.71481713867188,-8.262800216674805,3.7370998859405518,14.788599967956543
1702210550928817200,70.77481713867188,-8.628499984741211,3.3451998233795166,11.84999942779541
1702210550988817200,70.83481713867188,-5.644599914550781,-9.813599586486816,9.168399810791016
1702210551048817200,70.89481713867187,-1.531999945640564,-12.519599914550781,6.851500034332275
1702210551108817200,70.95481713867187,-0.06309999525547028,-10.483099937438965,2.7441999912261963
1702210551168817200,71.01481713867187,-0.5460000038146973,-8.232099533081055,-3.702399969100952
1702210551228817200,71.07481713867188,0.9932000041007996,-6.383399963378906,-6.980099678039551
1702210551288817200,71.13481713867188,2.778599977493286,-5.587100028991699,-8.887499809265137
1702210551348817200,71.19481713867188,2.22409987449646,-5.874499797821045,-8.213899612426758
1702210551408817200,71.25481713867188,2.28659987449646,-6.811699867248535,-9.113499641418457
1702210551468817200,71.31481713867187,3.0855000019073486,-7.6006999015808105,-6.63979959487915
1702210551528817200,71.37481713867187,-1.3357999324798584,-10.204999923706055,-2.1836998462677
1702210551588817200,71.43481713867187,-2.691999912261963,-11.194799423217773,1.7192000150680542
1702210551648817200,71.49481713867188,-0.5746999979019165,-5.763599872589111,6.668799877166748
1702210551708817200,71.55481713867188,-2.6503000259399414,-0.035599999129772186,9.57819938659668
1702210551768817200,71.61481713867188,0.9599999785423279,-0.7267999649047852,6.003299713134766
1702210551828817200,71.67481713867187,1.514299988746643,2.047600030899048,6.368199825286865
1702210551888817200,71.73481713867187,-0.8378999829292297,3.086400032043457,9.49899959564209
1702210551948817200,71.79481713867187,-1.5920000076293945,-0.5457000136375427,10.236199378967285
1702210552008817200,71.85481713867188,-4.987799644470215,-1.8395999670028687,9.860499382019043
1702210552068817200,71.91481713867188,-5.2764997482299805,-0.3449999988079071,6.693699836730957
1702210552128817200,71.97481713867188,-3.263700008392334,-3.6726999282836914,5.014899730682373
1702210552188817200,72.03481713867187,-1.1786999702453613,-4.77869987487793,3.6270999908447266
1702210552248817200,72.09481713867187,-0.4339999854564667,-3.500499963760376,3.080699920654297
1702210552308817200,72.15481713867187,1.278499960899353,-4.5229997634887695,1.0850999355316162
1702210552368817200,72.21481713867188,3.551299810409546,-5.343499660491943,-0.8693000078201294
1702210552428817200,72.27481713867188,4.182600021362305,-4.825799942016602,-3.1686999797821045
1702210552488817200,72.33481713867188,4.511199951171875,-5.468800067901611,-7.660799980163574
1702210552548818700,72.39481860351563,4.004499912261963,-5.957799911499023,-9.814000129699707
1702210552608817200,72.45481713867187,1.1138999462127686,-7.035299777984619,-6.826299667358398
1702210552668817200,72.51481713867187,-0.002099999925121665,-7.326999664306641,-2.914599895477295
1702210552728817200,72.57481713867188,-0.1639000028371811,-7.009399890899658,-0.007899999618530273
1702210552788817200,72.63481713867188,0.4162999987602234,-3.1768999099731445,1.8528999090194702
1702210552848817200,72.69481713867188,0.06830000132322311,0.0011999999405816197,2.9540998935699463
1702210552908817200,72.75481713867188,-1.7199000120162964,-1.2803999185562134,3.447199821472168
1702210552968817200,72.81481713867187,-2.9420998096466064,-0.14429999887943268,5.747200012207031
1702210553028817200,72.87481713867187,-4.762199878692627,0.8062999844551086,8.680999755859375
1702210553088817200,72.93481713867187,-3.7993998527526855,1.0582000017166138,8.556699752807617
1702210553148817200,72.99481713867188,-4.061699867248535,2.210399866104126,8.044899940490723
1702210553208817200,73.05481713867188,-5.923399925231934,1.5989999771118164,9.600099563598633
1702210553268817200,73.11481713867188,-5.2052998542785645,-5.115099906921387,10.885299682617188
1702210553328817200,73.17481713867187,-2.3130998611450195,-4.4365997314453125,6.2555999755859375
1702210553388817200,73.23481713867187,0.241799995303154,-2.6826999187469482,2.3675999641418457
1702210553448817200,73.29481713867187,1.6411999464035034,-3.9948999881744385,-0.38509997725486755
1702210553508817200,73.35481713867188,3.3877999782562256,-4.778199672698975,-1.7081999778747559
1702210553568817200,73.41481713867188,3.382200002670288,-5.107199668884277,-3.2614998817443848
1702210553628817200,73.47481713867188,3.7221999168395996,-6.547499656677246,-4.61929988861084
1702210553688817200,73.53481713867187,3.9156999588012695,-5.782099723815918,-7.739199638366699
1702210553748817200,73.59481713867187,2.6708998680114746,-5.006499767303467,-6.140999794006348
1702210553808817200,73.65481713867187,1.0133999586105347,-6.882899761199951,-2.824399948120117
1702210553868817200,73.71481713867188,3.246299982070923,-7.4213995933532715,-0.5999999642372131
1702210553928817200,73.77481713867188,1.3610999584197998,-3.4700000286102295,1.5435999631881714
1702210553988817200,73.83481713867188,-0.2069999873638153,-0.911799967288971,4.233699798583984
1702210554048817200,73.89481713867187,-1.548200011253357,-1.301800012588501,6.766200065612793
1702210554108817200,73.95481713867187,-5.2769999504089355,2.029399871826172,9.726699829101562
1702210554168817200,74.01481713867187,-8.100799560546875,2.9275999069213867,9.070099830627441
1702210554228817200,74.07481713867188,-6.581299781799316,1.4881999492645264,9.624300003051758
1702210554288817200,74.13481713867188,-4.597599983215332,1.3314999341964722,7.733199596405029
1702210554348817200,74.19481713867188,-3.4671998023986816,-0.3084999918937683,5.562699794769287
1702210554408817200,74.25481713867188,-2.79830002784729,-5.530399799346924,6.832299709320068
1702210554468817200,74.31481713867187,-0.011399999260902405,-4.888899803161621,4.574699878692627
1702210554528817200,74.37481713867187,1.709399938583374,-1.9596999883651733,1.2172999382019043
1702210554588817200,74.43481713867187,2.823199987411499,-2.6159000396728516,-1.202799916267395
1702210554648817200,74.49481713867188,3.9104998111724854,-3.7699999809265137,-2.6301000118255615
1702210554708817200,74.55481713867188,4.064599990844727,-6.0767998695373535,-3.5182998180389404
1702210554768817200,74.61481713867188,4.681699752807617,-6.603799819946289,-6.364299774169922
1702210554828817200,74.67481713867187,2.0708000659942627,-4.61359977722168,-7.046099662780762
1702210554888817200,74.73481713867187,2.7224998474121094,-6.222300052642822,-5.463699817657471
1702210554948817200,74.79481713867187,1.3079999685287476,-5.49370002746582,-3.7898998260498047
1702210555008817200,74.85481713867188,-1.1116999387741089,-5.548099994659424,-0.5643999576568604
1702210555068817200,74.91481713867188,-1.462399959564209,-4.264899730682373,5.302499771118164
1702210555128817200,74.97481713867188,-3.7463998794555664,0.4749999940395355,10.346099853515625
