time,seconds_elapsed,z,y,x
1702218602345682700,0.0366826171875,0.6638999581336975,-1.171199917793274,-0.18379999697208405
1702218602405682700,0.0966826171875,0.37119999527931213,-0.25949999690055847,-0.008299999870359898
1702218602465682700,0.1566826171875,-0.6960999965667725,0.0989999994635582,0.27160000801086426
1702218602525681200,0.21668115234375,-2.1624999046325684,0.33889999985694885,0.3402999937534332
1702218602585681200,0.27668115234375,-0.7195999622344971,0.02589999884366989,-0.5821999907493591
1702218602645682700,0.3366826171875,-1.34089994430542,-0.7603999972343445,-1.4922000169754028
1702218602705681200,0.39668115234375,0.3878999948501587,-1.1409000158309937,-1.8881999254226685
1702218602765681200,0.45668115234375,2.4903998374938965,0.03909999877214432,0.5710999965667725
1702218602825681200,0.51668115234375,-0.0142000000923872,-0.23669999837875366,-0.1340000033378601
1702218602885681200,0.57668115234375,0.3188999891281128,-1.181999921798706,0.9366999864578247
1702218602945681200,0.63668115234375,-3.823199987411499,-0.7105000019073486,0.6283000111579895
1702218603005682700,0.6966826171875,-1.8716999292373657,-0.21299999952316284,2.016700029373169
1702218603065682700,0.7566826171875,-1.906999945640564,-2.262500047683716,2.368799924850464
1702218603125682700,0.8166826171875,-2.8469998836517334,-2.295799970626831,2.1577999591827393
1702218603185682700,0.8766826171875,-2.409600019454956,-5.568399906158447,3.0999999046325684
1702218603245682700,0.9366826171875,2.7296998500823975,-5.864199638366699,4.447499752044678
1702218603305709300,0.996709228515625,-4.242000102996826,-8.550700187683105,0.29510000348091125
1702218603365682700,1.0566826171875,-4.855899810791016,-10.409299850463867,-1.911199927330017
1702218603425682700,1.1166826171875,1.2344999313354492,-7.91439962387085,-4.7592997550964355
1702218603485682700,1.1766826171875,12.779099464416504,-1.888700008392334,-9.07509994506836
1702218603545682700,1.2366826171875,5.117000102996826,-2.4117000102996826,-12.067699432373047
1702218603605682700,1.2966826171875,7.652599811553955,-1.3798999786376953,-9.721099853515625
1702218603665682700,1.3566826171875,5.285099983215332,3.334399938583374,-5.2322998046875
1702218603725682700,1.4166826171875,3.656899929046631,7.314399719238281,3.540599822998047
1702218603785682700,1.4766826171875,-0.7178999781608582,4.2465996742248535,6.761399745941162
1702218603845682700,1.5366826171875,1.9185999631881714,2.9413998126983643,-1.2490999698638916
1702218603905682700,1.5966826171875,1.8427000045776367,2.5172998905181885,-0.7700999975204468
1702218603965682700,1.6566826171875,-0.6086999773979187,1.7305999994277954,-0.5108999609947205
1702218604025682700,1.7166826171875,-2.2627999782562256,0.21869999170303345,-0.7980999946594238
1702218604085682700,1.7766826171875,0.5636000037193298,-3.5058999061584473,0.8600999712944031
1702218604145682700,1.8366826171875,-0.24479998648166656,-1.5604000091552734,0.9466999769210815
1702218604205682700,1.8966826171875,0.43129998445510864,-2.12719988822937,-2.407099962234497
1702218604265682700,1.9566826171875,1.0516999959945679,0.4098999798297882,-3.3459999561309814
1702218604325682700,2.0166826171875,0.6252999901771545,0.9971999526023865,0.3073999881744385
1702218604385682700,2.0766826171875,-0.26739999651908875,3.2189998626708984,2.54229998588562
1702218604445682700,2.1366826171875,-1.1762999296188354,4.279900074005127,3.6668999195098877
1702218604505682700,2.1966826171875,-4.545899868011475,-13.245100021362305,-4.9070000648498535
1702218604565709300,2.256709228515625,1.079200029373169,0.43479999899864197,0.2662999927997589
1702218604625682700,2.3166826171875,1.5756999254226685,1.8859999179840088,0.2645999789237976
1702218604685682700,2.3766826171875,1.2374999523162842,-3.037400007247925,1.340399980545044
1702218604745682700,2.4366826171875,2.924799919128418,1.0932999849319458,0.7669999599456787
1702218604805682700,2.4966826171875,2.9549999237060547,-0.9250999689102173,-1.7137999534606934
1702218604865682700,2.5566826171875,0.4351999759674072,-0.6326000094413757,-2.7416999340057373
1702218604925682700,2.6166826171875,-0.6015999913215637,1.999899983406067,-1.0953999757766724
1702218604985681200,2.67668115234375,1.1483999490737915,-0.5256999731063843,-0.4511999785900116
1702218605045682700,2.7366826171875,1.368499994277954,-1.7822999954223633,-3.2746999263763428
1702218605105682700,2.7966826171875,-1.00409996509552,0.8057999610900879,-0.5475999712944031
1702218605165682700,2.8566826171875,-0.17499999701976776,-0.9101999998092651,2.8694000244140625
1702218605225682700,2.9166826171875,-0.0908999964594841,-0.0414000004529953,-0.9635999798774719
1702218605285682700,2.9766826171875,-2.1166999340057373,-0.7667999863624573,-2.846400022506714
1702218605345681200,3.03668115234375,-0.9000999927520752,-1.545699954032898,-2.730599880218506
1702218605405709300,3.096709228515625,0.01489999983459711,0.2902999818325043,-0.9299999475479126
1702218605465682700,3.1566826171875,-0.033299997448921204,0.09709999710321426,-0.4746999740600586
1702218605525682700,3.2166826171875,0.32429999113082886,-0.21059998869895935,-0.1298999935388565
1702218605585682700,3.2766826171875,-1.1419999599456787,-0.5692999958992004,-1.1191999912261963
1702218605645682700,3.3366826171875,0.2678000032901764,-0.01979999989271164,-0.8385999798774719
1702218605705682700,3.3966826171875,1.2697999477386475,-0.7182999849319458,0.5453999638557434
1702218605765682700,3.4566826171875,-1.628600001335144,0.5914999842643738,-3.3611998558044434
1702218605825682700,3.5166826171875,1.8809999227523804,-1.490299940109253,-1.4098999500274658
1702218605885682700,3.5766826171875,1.3322999477386475,0.10439999401569366,0.3287999927997589
1702218605945682700,3.6366826171875,-2.505199909210205,-1.40339994430542,-3.5906999111175537
1702218606005682700,3.6966826171875,-3.0713999271392822,0.8244999647140503,-1.1694999933242798
1702218606065682700,3.7566826171875,0.9020999670028687,-0.32109999656677246,-0.2563000023365021
1702218606125682700,3.8166826171875,1.455399990081787,0.18119999766349792,3.39139986038208
1702218606185682700,3.8766826171875,0.34059998393058777,-1.0902999639511108,2.3526999950408936
1702218606245682700,3.9366826171875,-1.9174998998641968,-0.8725999593734741,2.06850004196167
1702218606305682700,3.9966826171875,1.0752999782562256,0.023000000044703484,1.3564000129699707
1702218606365682700,4.0566826171875,-1.8835999965667725,-1.71999990940094,0.4351999759674072
1702218606425681200,4.11668115234375,-0.7807999849319458,0.4275999963283539,0.16820000112056732
1702218606485682700,4.1766826171875,-1.746500015258789,0.5914999842643738,-0.722599983215332
1702218606545681200,4.23668115234375,-1.4330999851226807,0.8646000027656555,-0.2786000072956085
1702218606605681200,4.29668115234375,0.6796999573707581,1.1215999126434326,-0.8740999698638916
1702218606665682700,4.3566826171875,3.0251998901367188,-0.7437999844551086,-4.291999816894531
1702218606725682700,4.4166826171875,-7.114999771118164,1.917099952697754,-0.36559998989105225
1702218606785682700,4.4766826171875,1.8846999406814575,-3.011399984359741,4.024499893188477
1702218606845682700,4.5366826171875,-4.99459981918335,0.5514000058174133,-1.4383000135421753
1702218606905681200,4.59668115234375,-2.509199857711792,-1.3330999612808228,-3.626199960708618
1702218606965681200,4.65668115234375,-0.8534999489784241,-0.8889999985694885,-0.2303999960422516
1702218607025682700,4.7166826171875,-1.733299970626831,-0.08749999850988388,1.5059999227523804
1702218607085682700,4.7766826171875,0.023599999025464058,-0.2337999939918518,-1.074299931526184
1702218607145682700,4.8366826171875,-0.8132999539375305,0.3806999921798706,-1.6323999166488647
1702218607205682700,4.8966826171875,0.01679999940097332,-0.13339999318122864,-1.3084999322891235
1702218607265682700,4.9566826171875,0.04309999942779541,0.08389999717473984,-0.32420000433921814
1702218607325682700,5.0166826171875,-0.00989999994635582,0.09679999947547913,-0.2620999813079834
1702218607385682700,5.0766826171875,-0.3197999894618988,-0.3236999809741974,-0.3874000012874603
1702218607445682700,5.1366826171875,7.917099952697754,-0.6126999855041504,-1.0138999223709106
1702218607505709300,5.196709228515625,0.7107999920845032,-1.6816999912261963,-0.46239998936653137
1702218607565682700,5.2566826171875,-0.9820999503135681,-2.3640999794006348,-1.6627999544143677
1702218607625682700,5.3166826171875,-0.9368999600410461,-1.3841999769210815,-1.858799934387207
1702218607685682700,5.3766826171875,5.446099758148193,-2.874500036239624,0.13239999115467072
1702218607745682700,5.4366826171875,-2.8606998920440674,-2.426800012588501,-1.184499979019165
1702218607805682700,5.4966826171875,-1.3808000087738037,-2.800299882888794,0.5896999835968018
1702218607865682700,5.5566826171875,-0.6033999919891357,-0.09939999878406525,1.0490000247955322
1702218607925682700,5.6166826171875,-2.987799882888794,-0.5358999967575073,1.1923999786376953
1702218607985682700,5.6766826171875,-2.1078999042510986,0.07840000092983246,3.226300001144409
1702218608045682700,5.7366826171875,-0.9936999678611755,1.8519999980926514,3.632699966430664
1702218608105682700,5.7966826171875,-0.4992999732494354,2.8688998222351074,-0.19949999451637268
1702218608165682700,5.8566826171875,1.5509999990463257,-5.031499862670898,-14.885899543762207
1702218608225682700,5.9166826171875,-0.9962999820709229,1.1845999956130981,13.3572998046875
1702218608285682700,5.9766826171875,-1.3842999935150146,-9.6181001663208,-6.792799949645996
1702218608345682700,6.0366826171875,-2.927299976348877,2.591399908065796,3.3982999324798584
1702218608405681200,6.09668115234375,-1.9875999689102173,-0.4355999827384949,-0.9771999716758728
1702218608465681200,6.15668115234375,0.04699999839067459,-0.13939999043941498,-0.5631999969482422
1702218608525681200,6.21668115234375,-0.8545999526977539,0.2881999909877777,0.8097999691963196
1702218608585682700,6.2766826171875,0.5443999767303467,0.2587999999523163,-1.024999976158142
1702218608645682700,6.3366826171875,-0.36069998145103455,0.34939998388290405,-1.7495999336242676
1702218608705682700,6.3966826171875,0.6812999844551086,0.4745999872684479,-0.6204000115394592
1702218608765682700,6.4566826171875,0.5166000127792358,-0.210999995470047,-0.5728999972343445
1702218608825682700,6.5166826171875,1.678399920463562,-0.8303999900817871,-1.5542999505996704
1702218608885682700,6.5766826171875,2.5369999408721924,-1.698199987411499,-2.7660000324249268
1702218608945682700,6.6366826171875,-0.22169999778270721,-2.337899923324585,-1.6073999404907227
1702218609005682700,6.6966826171875,7.521399974822998,-1.8981999158859253,-0.6252999901771545
1702218609065682700,6.7566826171875,-1.7203999757766724,-0.37689998745918274,-2.0500998497009277
1702218609125682700,6.8166826171875,-1.9132999181747437,-1.7371999025344849,0.0030999998562037945
1702218609185682700,6.8766826171875,-0.9384999871253967,-2.2184998989105225,1.1890000104904175
1702218609245682700,6.9366826171875,-2.204200029373169,1.1088999509811401,1.5396000146865845
1702218609305682700,6.9966826171875,-2.337899923324585,0.786300003528595,0.8315999507904053
1702218609365682700,7.0566826171875,-2.366499900817871,2.255499839782715,4.124399662017822
1702218609425682700,7.1166826171875,0.21229998767375946,2.719099998474121,0.3677999973297119
1702218609485682700,7.1766826171875,1.8451999425888062,1.139299988746643,-5.814599990844727
1702218609545682700,7.2366826171875,0.26569998264312744,2.8852999210357666,0.8680999875068665
1702218609605709300,7.296709228515625,-6.108599662780762,-13.24839973449707,-4.784599781036377
1702218609665682700,7.3566826171875,-2.4802000522613525,0.38009998202323914,8.03909969329834
1702218609725682700,7.4166826171875,-0.2433999925851822,-5.6219000816345215,-1.8909999132156372
1702218609785682700,7.4766826171875,-3.0216000080108643,1.4084999561309814,-1.4838999509811401
1702218609845682700,7.5366826171875,0.07530000060796738,0.27309998869895935,0.5947999954223633
1702218609905681200,7.59668115234375,-1.4351999759674072,0.6974999904632568,0.7524999976158142
1702218609965682700,7.6566826171875,0.23749999701976776,-0.12789998948574066,-1.3561999797821045
1702218610025682700,7.7166826171875,2.9086999893188477,0.33899998664855957,-1.5827999114990234
1702218610085682700,7.7766826171875,0.9305999875068665,0.20019999146461487,-0.7426999807357788
1702218610145682700,7.8366826171875,0.7145000100135803,-0.0648999959230423,-1.6579999923706055
1702218610205682700,7.8966826171875,1.4204999208450317,-0.2475999891757965,-1.7010999917984009
1702218610265682700,7.9566826171875,1.4742999076843262,-1.9768999814987183,-0.4626999795436859
1702218610325682700,8.0166826171875,5.652299880981445,-1.214900016784668,-2.5536999702453613
1702218610385682700,8.0766826171875,-0.26829999685287476,-3.264699935913086,-0.13019999861717224
1702218610445682700,8.1366826171875,-0.736799955368042,-4.232399940490723,4.466700077056885
1702218610505681200,8.19668115234375,-2.1937999725341797,-1.9441999197006226,-0.729200005531311
1702218610565682700,8.2566826171875,-0.4723999798297882,1.0967999696731567,-1.5827999114990234
1702218610625682700,8.3166826171875,-1.8697999715805054,1.0580999851226807,1.4911999702453613
1702218610685682700,8.3766826171875,-0.37389999628067017,-0.019600000232458115,3.4228999614715576
1702218610745682700,8.4366826171875,-1.5785999298095703,1.5592999458312988,4.446300029754639
1702218610805682700,8.4966826171875,1.0067999362945557,1.5521999597549438,-3.7448999881744385
1702218610865682700,8.5566826171875,-0.8406999707221985,4.661900043487549,-3.589399814605713
1702218610925682700,8.6166826171875,1.6291999816894531,-3.5223000049591064,-4.24370002746582
1702218610985682700,8.6766826171875,-2.846799850463867,0.07739999890327454,7.185400009155273
1702218611045682700,8.7366826171875,-1.031999945640564,-4.146999835968018,-0.17999999225139618
1702218611105682700,8.7966826171875,-3.0678999423980713,-3.3255999088287354,1.9089999198913574
1702218611165682700,8.8566826171875,-2.5632998943328857,-0.8282999992370605,-1.8355998992919922
1702218611225682700,8.9166826171875,-0.4447000026702881,-0.599299967288971,1.274899959564209
1702218611285682700,8.9766826171875,-0.054099999368190765,0.19629999995231628,1.263700008392334
1702218611345682700,9.0366826171875,-1.417099952697754,1.3880999088287354,-0.6660000085830688
1702218611405682700,9.0966826171875,-0.03189999982714653,0.9835999608039856,-2.59060001373291
1702218611465682700,9.1566826171875,1.64739990234375,0.8527999520301819,-1.0088000297546387
1702218611525681200,9.21668115234375,4.438699722290039,-0.3684999942779541,-0.1339000016450882
1702218611585681200,9.27668115234375,-0.061400000005960464,-0.6646999716758728,-1.499400019645691
1702218611645681200,9.33668115234375,-0.7719999551773071,-2.5105998516082764,-2.9647998809814453
1702218611705709300,9.396709228515626,-0.034299999475479126,-2.2513999938964844,-0.8303999900817871
1702218611765682700,9.4566826171875,7.120199680328369,-0.7134999632835388,-2.47379994392395
1702218611825682700,9.5166826171875,-3.614300012588501,-0.7294999957084656,0.7210999727249146
1702218611885682700,9.5766826171875,0.4583999812602997,-2.7607998847961426,0.23169998824596405
1702218611945682700,9.6366826171875,-1.756500005722046,-0.1013999953866005,1.5935999155044556
1702218612005682700,9.6966826171875,-1.8747999668121338,0.02850000001490116,0.27469998598098755
1702218612065682700,9.7566826171875,-1.4097999334335327,0.810699999332428,1.3435999155044556
1702218612125682700,9.8166826171875,-1.194100022315979,1.7014999389648438,2.341099977493286
1702218612185682700,9.8766826171875,-1.0273000001907349,1.9424999952316284,0.07339999824762344
1702218612245682700,9.9366826171875,2.481600046157837,1.4599000215530396,-5.433599948883057
1702218612305682700,9.9966826171875,-0.25270000100135803,0.6978999972343445,0.29909998178482056
1702218612365682700,10.0566826171875,2.464900016784668,-4.344299793243408,-2.968899965286255
1702218612425682700,10.1166826171875,-2.1440999507904053,-0.7983999848365784,5.243099689483643
1702218612485682700,10.1766826171875,-5.668699741363525,-1.7038999795913696,3.4564998149871826
1702218612545682700,10.2366826171875,0.8126999735832214,0.6223999857902527,-3.3671000003814697
1702218612605682700,10.2966826171875,-2.610599994659424,0.2671000063419342,-0.5544999837875366
1702218612665682700,10.3566826171875,-1.9030998945236206,-0.46399998664855957,1.0959999561309814
1702218612725682700,10.4166826171875,-0.4968999922275543,-0.17599999904632568,-0.4625999927520752
1702218612785682700,10.4766826171875,-1.9578999280929565,1.0983999967575073,-1.8808000087738037
1702218612845682700,10.5366826171875,-0.32420000433921814,1.11080002784729,-1.0149999856948853
1702218612905682700,10.5966826171875,3.6703999042510986,-1.751099944114685,0.028099998831748962
1702218612965682700,10.6566826171875,1.0647000074386597,0.053700000047683716,0.12319999933242798
1702218613025682700,10.7166826171875,-0.656499981880188,0.01679999940097332,-1.3514999151229858
1702218613085682700,10.7766826171875,-0.047199998050928116,-0.4813999831676483,-2.6432998180389404
1702218613145682700,10.8366826171875,0.2393999993801117,-1.4595999717712402,-4.372600078582764
1702218613205682700,10.8966826171875,8.116600036621094,-1.2106000185012817,-1.3219000101089478
1702218613265682700,10.9566826171875,-7.600800037384033,-0.962399959564209,-4.185499668121338
1702218613325682700,11.0166826171875,1.8766999244689941,-1.2831000089645386,-3.4270999431610107
1702218613385682700,11.0766826171875,-1.740799903869629,-2.502699851989746,2.7732999324798584
1702218613445682700,11.1366826171875,-1.3669999837875366,0.12150000035762787,2.5471999645233154
1702218613505682700,11.1966826171875,-1.9630999565124512,0.2102999985218048,1.2939000129699707
1702218613565682700,11.2566826171875,-2.074699878692627,3.16129994392395,6.319699764251709
1702218613625682700,11.3166826171875,0.41920000314712524,1.007099986076355,-1.435499906539917
1702218613685682700,11.3766826171875,-1.2982999086380005,3.637199878692627,-4.659299850463867
1702218613745682700,11.4366826171875,6.016599655151367,-3.148200035095215,-1.1837999820709229
1702218613805709300,11.496709228515625,-10.012399673461914,-0.374099999666214,2.9657998085021973
1702218613865682700,11.5566826171875,-6.959399700164795,2.6292998790740967,5.133199691772461
1702218613925682700,11.6166826171875,-2.0592000484466553,-7.385900020599365,-3.310499906539917
1702218613985682700,11.6766826171875,-6.129199981689453,0.8514999747276306,1.6348999738693237
1702218614045682700,11.7366826171875,-0.5318999886512756,-2.8782999515533447,-1.1771999597549438
1702218614105682700,11.7966826171875,-0.587399959564209,1.8766999244689941,1.6964999437332153
1702218614165682700,11.8566826171875,1.4437999725341797,-0.5399999618530273,0.03439999744296074
1702218614225682700,11.9166826171875,-0.46480000019073486,1.326300024986267,-1.3669999837875366
1702218614285682700,11.9766826171875,0.22109998762607574,0.8529999852180481,-1.9821999073028564
1702218614345682700,12.0366826171875,1.7982999086380005,0.4170999825000763,-1.6674998998641968
1702218614405682700,12.0966826171875,1.969599962234497,0.23240000009536743,-0.6474999785423279
1702218614465682700,12.1566826171875,1.5083999633789062,-1.253600001335144,-1.378600001335144
1702218614525682700,12.2166826171875,4.415899753570557,-0.8059999942779541,-5.143599987030029
1702218614585682700,12.2766826171875,1.8846999406814575,-1.9928998947143555,-4.749199867248535
1702218614645682700,12.3366826171875,-4.305500030517578,0.5516999959945679,-2.5843000411987305
1702218614705682700,12.3966826171875,-0.3407000005245209,-4.753499984741211,0.337799996137619
1702218614765682700,12.4566826171875,-3.0314998626708984,-0.7561999559402466,2.0850000381469727
1702218614825682700,12.5166826171875,-2.9970998764038086,-0.08370000123977661,-0.4169999957084656
1702218614885682700,12.5766826171875,-3.86929988861084,0.8848999738693237,2.7219998836517334
1702218614945682700,12.6366826171875,-1.104699969291687,2.192699909210205,7.525199890136719
1702218615005682700,12.6966826171875,2.59309983253479,1.7922999858856201,1.6847999095916748
1702218615065682700,12.7566826171875,2.5032999515533447,1.209399938583374,-4.736499786376953
1702218615125682700,12.8166826171875,-1.9249999523162842,-2.495699882507324,-2.805799961090088
1702218615185682700,12.8766826171875,-6.838899612426758,-8.168899536132812,0.045399997383356094
1702218615245682700,12.9366826171875,-4.907199859619141,3.5946998596191406,1.9433999061584473
1702218615305682700,12.9966826171875,-2.3135998249053955,-2.8317999839782715,-3.543599843978882
1702218615365682700,13.0566826171875,1.0115000009536743,0.3886999785900116,2.3036999702453613
1702218615425682700,13.1166826171875,1.3115999698638916,-1.862299919128418,1.9605000019073486
1702218615485682700,13.1766826171875,-1.7975999116897583,0.6626999974250793,0.4952999949455261
1702218615545682700,13.2366826171875,-0.7597000002861023,1.3660999536514282,-0.7892000079154968
1702218615605682700,13.2966826171875,-0.40939998626708984,1.8690999746322632,-0.856499969959259
1702218615665682700,13.3566826171875,8.985499382019043,-2.474799871444702,-3.4064998626708984
1702218615725682700,13.4166826171875,-0.8037999868392944,-2.08489990234375,-3.9440999031066895
1702218615785682700,13.4766826171875,4.943599700927734,-0.8578999638557434,-1.3356999158859253
1702218615845682700,13.5366826171875,-4.740999698638916,-4.117000102996826,-2.6064999103546143
1702218615905709300,13.596709228515625,0.6621999740600586,-2.8183000087738037,-2.4702999591827393
1702218615965751600,13.65675146484375,-2.799799919128418,-0.9876999855041504,2.3401999473571777
1702218616025682700,13.7166826171875,-2.441999912261963,0.6432999968528748,2.940999984741211
1702218616085682700,13.7766826171875,-2.390199899673462,1.0580999851226807,1.5746999979019165
1702218616145682700,13.8366826171875,-3.1367998123168945,1.64739990234375,5.270899772644043
1702218616205682700,13.8966826171875,-0.08299999684095383,1.7042999267578125,2.466899871826172
1702218616265682700,13.9566826171875,0.16929998993873596,-2.569000005722046,-8.147299766540527
1702218616325682700,14.0166826171875,0.521399974822998,4.4328999519348145,2.59879994392395
1702218616385682700,14.0766826171875,1.084999918937683,-9.021900177001953,-6.18779993057251
1702218616445682700,14.1366826171875,6.127099990844727,2.640199899673462,5.9704999923706055
1702218616505682700,14.1966826171875,-6.514199733734131,-1.7303999662399292,2.0946998596191406
1702218616565682700,14.2566826171875,0.02579999901354313,0.1054999977350235,-0.6936999559402466
1702218616625682700,14.3166826171875,-2.4350998401641846,1.7365999221801758,-0.46779999136924744
1702218616685682700,14.3766826171875,-2.8315999507904053,-1.4430999755859375,-0.06209999695420265
1702218616745681200,14.43668115234375,0.8323999643325806,0.7597000002861023,-1.6617000102996826
1702218616805682700,14.4966826171875,0.27619999647140503,0.8657000064849854,-0.343099981546402
1702218616865682700,14.5566826171875,0.30059999227523804,1.1875,0.43299999833106995
1702218616925682700,14.6166826171875,1.737899899482727,-1.2274999618530273,-1.4215999841690063
1702218616985682700,14.6766826171875,5.905399799346924,-1.365899920463562,-2.9472999572753906
1702218617045682700,14.7366826171875,1.0744999647140503,-3.668299913406372,-9.042399406433105
1702218617105682700,14.7966826171875,-0.20729999244213104,-0.25540000200271606,-2.2495999336242676
1702218617165682700,14.8566826171875,-4.826299667358398,-6.648599624633789,-2.171999931335449
1702218617225682700,14.9166826171875,1.0303000211715698,-2.7233998775482178,0.2939999997615814
1702218617285682700,14.9766826171875,-2.140199899673462,0.19449999928474426,2.8408000469207764
1702218617345682700,15.0366826171875,-1.9399999380111694,1.5992000102996826,2.253700017929077
1702218617405682700,15.0966826171875,-2.5592000484466553,1.142799973487854,2.4990999698638916
1702218617465682700,15.1566826171875,-2.192699909210205,0.6060000061988831,3.6900999546051025
1702218617525682700,15.2166826171875,0.12150000035762787,1.4672999382019043,2.2059998512268066
1702218617585682700,15.2766826171875,2.6046998500823975,1.8178999423980713,-7.267199993133545
1702218617645682700,15.3366826171875,-0.6585999727249146,2.716899871826172,0.8179999589920044
1702218617705682700,15.3966826171875,6.958099842071533,-10.553500175476074,-3.027899980545044
1702218617765681200,15.45668115234375,2.3945000171661377,0.26479998230934143,4.2316999435424805
1702218617825681200,15.51668115234375,-4.571899890899658,-0.4805999994277954,0.67249995470047
1702218617885681200,15.57668115234375,0.15699999034404755,-0.259799987077713,-2.535599946975708
1702218617945681200,15.63668115234375,-2.229300022125244,0.4194999933242798,1.5841000080108643
1702218618005709300,15.696709228515624,-0.5493000149726868,-0.6038999557495117,-0.5493999719619751
1702218618065681200,15.75668115234375,-0.3317999839782715,1.4144999980926514,-1.2041000127792358
1702218618125682700,15.8166826171875,0.4536999762058258,0.9633999466896057,-0.6053000092506409
1702218618185682700,15.8766826171875,0.24159999191761017,-0.45319998264312744,-0.09910000115633011
1702218618245682700,15.9366826171875,8.391599655151367,-1.3039000034332275,-4.6728997230529785
1702218618305682700,15.9966826171875,-1.5555999279022217,-0.8922999501228333,-1.0297999382019043
1702218618365682700,16.0566826171875,3.1907999515533447,-0.10269999504089355,-2.9587998390197754
1702218618425682700,16.1166826171875,0.7665999531745911,-0.9794999957084656,-4.388999938964844
1702218618485682700,16.1766826171875,-6.936800003051758,-1.8736999034881592,-1.9573999643325806
1702218618545682700,16.2366826171875,0.017799999564886093,-2.5074000358581543,-2.2802999019622803
1702218618605682700,16.2966826171875,-4.106499671936035,0.10199999809265137,0.996399998664856
1702218618665682700,16.3566826171875,-2.7426998615264893,0.6352999806404114,1.1628999710083008
1702218618725682700,16.4166826171875,-3.143199920654297,0.05469999834895134,4.263299942016602
1702218618785682700,16.4766826171875,-1.6201999187469482,0.8118000030517578,7.1915998458862305
1702218618845682700,16.5366826171875,0.6509000062942505,0.541700005531311,-3.671599864959717
1702218618905682700,16.5966826171875,-0.4721999764442444,3.362799882888794,-2.555500030517578
1702218618965682700,16.6566826171875,-4.005000114440918,2.595399856567383,-2.1782000064849854
1702218619025682700,16.7166826171875,2.327899932861328,-10.075699806213379,-7.32289981842041
1702218619085682700,16.7766826171875,-3.0289998054504395,-3.1940999031066895,8.235400199890137
1702218619145682700,16.8366826171875,-4.356800079345703,-0.5356999635696411,2.0362000465393066
1702218619205682700,16.8966826171875,-2.8372998237609863,-1.5612999200820923,-1.1919000148773193
1702218619265682700,16.9566826171875,0.0828000009059906,-0.08229999989271164,1.5573999881744385
1702218619325682700,17.0166826171875,4.1479997634887695,0.43709999322891235,-1.8777999877929688
1702218619385682700,17.0766826171875,-3.078699827194214,0.9132999777793884,-0.9620999693870544
1702218619445682700,17.1366826171875,0.5798999667167664,1.4024999141693115,-2.000499963760376
1702218619505682700,17.1966826171875,3.892699956893921,-1.3930000066757202,-2.812299966812134
1702218619565709300,17.256709228515625,6.967199802398682,-1.3246999979019165,-0.6821999549865723
1702218619625682700,17.3166826171875,0.6015999913215637,-2.81850004196167,-8.572199821472168
1702218619685682700,17.3766826171875,-5.301599979400635,-0.29330000281333923,-4.51669979095459
1702218619745682700,17.4366826171875,-1.0256999731063843,-4.223599910736084,-1.6349999904632568
1702218619805682700,17.4966826171875,-1.6892999410629272,-0.32029998302459717,1.8632999658584595
1702218619865682700,17.5566826171875,-4.3480000495910645,0.44439998269081116,2.590100049972534
1702218619925682700,17.6166826171875,-2.380699872970581,-0.6431999802589417,1.9983999729156494
1702218619985682700,17.6766826171875,-3.1905999183654785,0.3601999878883362,4.5625
1702218620045682700,17.7366826171875,-0.30399999022483826,1.8437999486923218,5.842599868774414
1702218620105709300,17.796709228515624,1.6318999528884888,0.5947999954223633,-6.489500045776367
1702218620165682700,17.8566826171875,0.30550000071525574,1.6062999963760376,-2.2756998538970947
1702218620225682700,17.9166826171875,1.8729000091552734,-7.075199604034424,-13.489799499511719
1702218620285682700,17.9766826171875,-7.999599933624268,-0.5806999802589417,10.696000099182129
1702218620345682700,18.0366826171875,-1.673699975013733,-2.33870005607605,2.540099859237671
1702218620405682700,18.0966826171875,-4.392600059509277,-2.5346999168395996,-2.2231998443603516
1702218620465682700,18.1566826171875,-0.10189999639987946,1.0477999448776245,-0.369299978017807
1702218620525682700,18.2166826171875,1.0339000225067139,0.4786999821662903,1.0684999227523804
1702218620585682700,18.2766826171875,0.3346000015735626,0.8655999898910522,-1.3465999364852905
1702218620645682700,18.3366826171875,-0.3482999801635742,1.2160999774932861,-2.4946999549865723
1702218620705682700,18.3966826171875,4.649600028991699,3.4628000259399414,0.5751999616622925
1702218620765682700,18.4566826171875,2.1654000282287598,-2.319399833679199,-1.896899938583374
1702218620825682700,18.5166826171875,-0.48019999265670776,-3.6501998901367188,-4.244899749755859
1702218620885682700,18.5766826171875,2.9679999351501465,0.9236999750137329,-3.2107999324798584
1702218620945682700,18.6366826171875,-3.7523000240325928,-5.899199962615967,-1.4584999084472656
1702218621005682700,18.6966826171875,0.3836999833583832,-4.481899738311768,2.687199831008911
1702218621065682700,18.7566826171875,-5.144799709320068,1.8087999820709229,1.6085000038146973
1702218621125682700,18.8166826171875,-3.056299924850464,2.1046998500823975,0.3765999972820282
1702218621185682700,18.8766826171875,-4.457399845123291,0.432699978351593,5.082299709320068
1702218621245682700,18.9366826171875,-1.9781999588012695,1.4577999114990234,4.124499797821045
1702218621305682700,18.9966826171875,5.383399963378906,0.6050999760627747,-3.753000020980835
1702218621365682700,19.0566826171875,0.013100000098347664,4.489500045776367,-5.609600067138672
1702218621425682700,19.1166826171875,-4.0889997482299805,4.928499698638916,2.498199939727783
1702218621485682700,19.1766826171875,4.2739996910095215,-16.572999954223633,-4.037799835205078
1702218621545682700,19.2366826171875,-8.821999549865723,1.9472999572753906,7.509599685668945
1702218621605682700,19.2966826171875,-1.0422999858856201,-1.7587999105453491,-3.9816999435424805
1702218621665681200,19.35668115234375,-0.29670000076293945,2.0645999908447266,-0.8815999627113342
1702218621725682700,19.4166826171875,1.3991999626159668,-2.1496999263763428,2.124699831008911
1702218621785682700,19.4766826171875,-0.34450000524520874,1.570099949836731,-0.7757999897003174
1702218621845682700,19.5366826171875,-1.2669999599456787,2.104599952697754,-1.4753999710083008
1702218621905682700,19.5966826171875,0.29729998111724854,1.6282999515533447,-0.6042999625205994
1702218621965682700,19.6566826171875,3.485599994659424,-1.712499976158142,-2.9014999866485596
1702218622025682700,19.7166826171875,3.476300001144409,-2.276099920272827,-1.159999966621399
1702218622085682700,19.7766826171875,2.3803999423980713,-0.3028999865055084,-4.310499668121338
1702218622145682700,19.8366826171875,-0.03500000014901161,-0.8828999996185303,-4.913399696350098
1702218622205709300,19.896709228515626,-2.222599983215332,-2.0142998695373535,-1.8157999515533447
1702218622265682700,19.9566826171875,-0.7239999771118164,-4.814199924468994,1.1323999166488647
1702218622325682700,20.0166826171875,-2.021899938583374,0.3807999789714813,3.0695998668670654
1702218622385682700,20.0766826171875,-2.9164998531341553,1.1268999576568604,2.09879994392395
1702218622445682700,20.1366826171875,-3.9773998260498047,1.3763999938964844,4.688499927520752
1702218622505682700,20.1966826171875,-0.7026000022888184,2.639400005340576,3.182499885559082
1702218622565682700,20.2566826171875,2.747799873352051,-0.5115000009536743,-8.864099502563477
1702218622625682700,20.3166826171875,0.24069999158382416,3.45389986038208,-0.028999999165534973
1702218622685682700,20.3766826171875,-0.19759999215602875,-6.98199987411499,-0.9083999991416931
1702218622745682700,20.4366826171875,-1.8101999759674072,-4.747399806976318,2.1673998832702637
1702218622805682700,20.4966826171875,-5.123300075531006,-0.6935999989509583,1.8473999500274658
1702218622865682700,20.5566826171875,-1.3472999334335327,-0.5834999680519104,-1.094099998474121
1702218622925682700,20.6166826171875,4.169300079345703,0.21739999949932098,2.0506999492645264
1702218622985682700,20.6766826171875,-0.9211999773979187,1.1266999244689941,-2.2353999614715576
1702218623045682700,20.7366826171875,-0.7807999849319458,2.0432000160217285,-1.8483999967575073
1702218623105682700,20.7966826171875,-0.6158999800682068,0.10249999910593033,-1.6072999238967896
1702218623165682700,20.8566826171875,0.9825999736785889,-0.18889999389648438,-1.0149999856948853
1702218623225681200,20.91668115234375,7.993000030517578,-0.5959999561309814,-0.4852999746799469
1702218623285682700,20.9766826171875,-0.4900999963283539,-0.18469999730587006,-2.607300043106079
1702218623345682700,21.0366826171875,5.18589973449707,-1.8629999160766602,-6.361999988555908
1702218623405682700,21.0966826171875,-2.7783000469207764,-0.09879999607801437,-3.1745998859405518
1702218623465682700,21.1566826171875,-0.8574000000953674,-5.783400058746338,-0.8075000047683716
1702218623525682700,21.2166826171875,-1.4940999746322632,-0.42010000348091125,1.6093999147415161
1702218623585682700,21.2766826171875,-1.7552999258041382,0.5331999659538269,2.339900016784668
1702218623645682700,21.3366826171875,-2.6083998680114746,1.8777999877929688,2.883999824523926
1702218623705682700,21.3966826171875,-2.605599880218506,2.1445000171661377,5.014100074768066
1702218623765682700,21.4566826171875,1.5149999856948853,0.14559999108314514,-1.722499966621399
1702218623825682700,21.5166826171875,1.0935999155044556,3.732999801635742,-3.4875998497009277
1702218623885682700,21.5766826171875,-1.7278999090194702,2.8701999187469482,-0.7705000042915344
1702218623945682700,21.6366826171875,5.593599796295166,-10.921599388122559,-6.716099739074707
1702218624005682700,21.6966826171875,-3.4141998291015625,1.0823999643325806,4.12529993057251
1702218624065682700,21.7566826171875,-5.3206000328063965,-3.4280998706817627,-0.3789999783039093
1702218624125682700,21.8166826171875,-1.8025000095367432,-0.4642999768257141,0.044999998062849045
1702218624185682700,21.8766826171875,3.3808999061584473,-0.8793999552726746,3.1891000270843506
1702218624245682700,21.9366826171875,-0.27570000290870667,1.7007999420166016,-0.14710000157356262
1702218624305709300,21.996709228515623,-1.702799916267395,3.022599935531616,-1.1855000257492065
1702218624365682700,22.0566826171875,3.289599895477295,0.5857999920845032,-4.115099906921387
1702218624425682700,22.1166826171875,1.7452999353408813,-1.0885999202728271,-0.2602999806404114
1702218624485682700,22.1766826171875,5.259599685668945,1.1269999742507935,-2.934999942779541
1702218624545682700,22.2366826171875,-0.707099974155426,-4.140599727630615,-7.625799655914307
1702218624605682700,22.2966826171875,-2.1385998725891113,0.08739999681711197,-0.2215999960899353
1702218624665682700,22.3566826171875,-1.0300999879837036,-5.4105000495910645,-0.08959999680519104
1702218624725682700,22.4166826171875,-0.6987000107765198,0.48569998145103455,1.566499948501587
1702218624785682700,22.4766826171875,-2.271399974822998,0.8104000091552734,1.3461999893188477
1702218624845682700,22.5366826171875,-2.850399971008301,2.224400043487549,4.545499801635742
1702218624905682700,22.5966826171875,-1.1176999807357788,2.513200044631958,4.821399688720703
1702218624965682700,22.6566826171875,12.721199989318848,-1.6298999786376953,-15.336999893188477
1702218625025682700,22.7166826171875,-0.2798999845981598,5.389999866485596,0.7767999768257141
1702218625085682700,22.7766826171875,-0.5748000144958496,-5.5169997215271,2.4667999744415283
1702218625145682700,22.8366826171875,1.8805999755859375,-8.57229995727539,-4.793499946594238
1702218625205682700,22.8966826171875,-6.575799942016602,2.1605000495910645,3.1930999755859375
1702218625265682700,22.9566826171875,-2.5611000061035156,-1.9584999084472656,-1.2166999578475952
1702218625325682700,23.0166826171875,11.21679973602295,1.5346999168395996,7.040599822998047
1702218625385682700,23.0766826171875,-2.839900016784668,1.5872999429702759,-1.097000002861023
1702218625445682700,23.1366826171875,0.8579999804496765,2.819700002670288,-1.4846999645233154
1702218625505682700,23.1966826171875,2.6887998580932617,-1.2900999784469604,-3.2946999073028564
1702218625565682700,23.2566826171875,3.604300022125244,-0.42309999465942383,-1.2074999809265137
1702218625625682700,23.3166826171875,-0.40849998593330383,1.5743999481201172,-4.012599945068359
1702218625685682700,23.3766826171875,-4.9456000328063965,-7.492199897766113,-7.688199996948242
1702218625745682700,23.4366826171875,1.6762999296188354,-7.0177998542785645,4.25029993057251
1702218625805682700,23.4966826171875,-4.404999732971191,1.3707000017166138,1.6643999814987183
1702218625865682700,23.5566826171875,-3.397899866104126,3.395599842071533,1.2596999406814575
1702218625925682700,23.6166826171875,-3.5642998218536377,-0.09539999812841415,6.536900043487549
1702218625985682700,23.6766826171875,0.08209999650716782,0.9916999936103821,5.615699768066406
1702218626045682700,23.7366826171875,-0.3247999846935272,0.04839999973773956,-10.815199851989746
1702218626105682700,23.7966826171875,1.6617000102996826,1.3443999290466309,-3.9375
1702218626165682700,23.8566826171875,-5.624599933624268,-3.67549991607666,3.819000005722046
1702218626225682700,23.9166826171875,-4.60159969329834,-2.920599937438965,1.7407000064849854
1702218626285682700,23.9766826171875,-3.483299970626831,-2.828699827194214,-2.0734000205993652
1702218626345682700,24.0366826171875,-0.8138999938964844,1.0016000270843506,0.47029998898506165
1702218626405709300,24.096709228515625,0.34379997849464417,0.49219998717308044,0.7608000040054321
1702218626465682700,24.1566826171875,0.02579999901354313,2.004999876022339,-0.7217999696731567
1702218626525682700,24.2166826171875,-0.22529999911785126,1.2366999387741089,-2.3671998977661133
1702218626585682700,24.2766826171875,1.9244999885559082,0.23029999434947968,-2.3768999576568604
1702218626645682700,24.3366826171875,3.0534000396728516,-1.152899980545044,-1.9637999534606934
1702218626705682700,24.3966826171875,0.5902000069618225,-1.5151000022888184,-3.4343998432159424
1702218626765682700,24.4566826171875,3.8051998615264893,2.9296000003814697,-2.4629998207092285
1702218626825682700,24.5166826171875,-6.684700012207031,-3.8927998542785645,-3.765899896621704
1702218626885682700,24.5766826171875,0.5317999720573425,-5.974599838256836,-0.7130999565124512
1702218626945682700,24.6366826171875,-0.6765999794006348,-2.3039000034332275,1.9931999444961548
1702218627005682700,24.6966826171875,0.2337999939918518,0.30230000615119934,1.8032000064849854
1702218627065682700,24.7566826171875,-1.3823000192642212,2.220099925994873,4.042200088500977
1702218627125682700,24.8166826171875,-1.8686000108718872,2.5297999382019043,4.372900009155273
1702218627185682700,24.8766826171875,2.4903998374938965,1.6073999404907227,-0.3188999891281128
1702218627245682700,24.9366826171875,2.4881999492645264,2.271899938583374,-6.294300079345703
1702218627305682700,24.9966826171875,-7.054199695587158,-4.547999858856201,-3.5785999298095703
1702218627365682700,25.0566826171875,-9.316499710083008,0.9472999572753906,9.21619987487793
1702218627425682700,25.1166826171875,0.10939999669790268,-6.229699611663818,-6.955100059509277
1702218627485682700,25.1766826171875,-4.512399673461914,0.5097000002861023,-0.17469999194145203
1702218627545682700,25.2366826171875,-1.5972999334335327,-0.679099977016449,1.153999924659729
1702218627605682700,25.2966826171875,-0.07319999486207962,1.0404999256134033,0.3149999976158142
1702218627665682700,25.3566826171875,0.2506999969482422,1.402999997138977,-1.2063000202178955
1702218627725682700,25.4166826171875,0.4617999792098999,1.3930000066757202,-2.328199863433838
1702218627785682700,25.4766826171875,0.6628999710083008,1.2351999282836914,-1.4859999418258667
1702218627845682700,25.5366826171875,0.8761999607086182,-1.0339000225067139,-3.910799980163574
1702218627905682700,25.5966826171875,3.397599935531616,-1.2674999237060547,-4.211299896240234
1702218627965682700,25.6566826171875,3.4412999153137207,-4.335000038146973,-1.7613999843597412
1702218628025682700,25.7166826171875,-2.841899871826172,-0.7120999693870544,-6.326099872589111
1702218628085682700,25.7766826171875,-3.0528998374938965,-5.836899757385254,0.05119999870657921
1702218628145682700,25.8366826171875,1.8846999406814575,0.06790000200271606,0.9657999873161316
1702218628205682700,25.8966826171875,-3.7301998138427734,2.6201999187469482,2.815699815750122
1702218628265682700,25.9566826171875,-3.0530998706817627,1.4890999794006348,3.60509991645813
1702218628325682700,26.0166826171875,-2.544600009918213,2.4214999675750732,6.174999713897705
1702218628385682700,26.0766826171875,1.8013999462127686,1.6930999755859375,-0.33709999918937683
1702218628445682700,26.1366826171875,1.1283999681472778,0.37199997901916504,-6.207200050354004
1702218628505709300,26.196709228515626,-1.5504000186920166,-0.022199999541044235,1.6842999458312988
1702218628565682700,26.2566826171875,3.4255998134613037,-10.600299835205078,2.5185999870300293
1702218628625682700,26.3166826171875,-5.375799655914307,2.2978999614715576,0.5015000104904175
1702218628685682700,26.3766826171875,-4.628900051116943,-0.5564999580383301,-2.3504998683929443
1702218628745682700,26.4366826171875,-1.3364999294281006,0.8740999698638916,0.22619999945163727
1702218628805682700,26.4966826171875,1.500599980354309,-0.34119999408721924,1.886099934577942
1702218628865682700,26.5566826171875,-0.9398999810218811,-0.010300000198185444,-0.640500009059906
1702218628925682700,26.6166826171875,0.4732999801635742,1.0368999242782593,-1.7014999389648438
1702218628985682700,26.6766826171875,0.805899977684021,0.796999990940094,-1.496399998664856
1702218629045682700,26.7366826171875,0.3958999812602997,0.08639999479055405,-1.8228999376296997
1702218629105682700,26.7966826171875,3.641199827194214,-0.7317999601364136,-1.9471999406814575
1702218629165682700,26.8566826171875,-0.616599977016449,1.0831999778747559,-2.881500005722046
1702218629225682700,26.9166826171875,3.2057998180389404,0.7157999873161316,-3.898599863052368
1702218629285682700,26.9766826171875,-3.1875,-0.2280000001192093,-4.464399814605713
1702218629345682700,27.0366826171875,-1.717099905014038,-5.545499801635742,-1.2167999744415283
1702218629405682700,27.0966826171875,-1.7450999021530151,-2.8217999935150146,1.1453999280929565
1702218629465682700,27.1566826171875,-3.4652998447418213,1.569000005722046,0.8974999785423279
1702218629525682700,27.2166826171875,-1.9744999408721924,2.219599962234497,-0.12539999186992645
1702218629585682700,27.2766826171875,-0.8655999898910522,-0.9498999714851379,2.3840999603271484
1702218629645682700,27.3366826171875,-2.063999891281128,-0.19569998979568481,3.615999937057495
1702218629705682700,27.3966826171875,0.5440999865531921,3.2600998878479004,2.5802998542785645
1702218629765682700,27.4566826171875,1.3249999284744263,2.8870999813079834,-4.458099842071533
1702218629825682700,27.5166826171875,-0.23469999432563782,1.2627999782562256,-3.421299934387207
1702218629885682700,27.5766826171875,1.476599931716919,-8.053899765014648,-0.8459999561309814
1702218629945682700,27.6366826171875,-5.173099994659424,-0.1720999926328659,3.5705997943878174
1702218630005682700,27.6966826171875,-0.14899998903274536,-1.653999924659729,-0.9081999659538269
1702218630065682700,27.7566826171875,-4.443999767303467,-1.9758999347686768,-1.6972999572753906
1702218630125682700,27.8166826171875,0.016200000420212746,1.2493000030517578,0.37070000171661377
1702218630185682700,27.8766826171875,0.676800012588501,1.0030999183654785,0.1151999980211258
1702218630245681200,27.93668115234375,-0.8066999912261963,0.5787999629974365,-1.2429999113082886
1702218630305682700,27.9966826171875,-0.45909997820854187,0.9386999607086182,-1.617799997329712
1702218630365682700,28.0566826171875,2.216099977493286,0.04429999738931656,-1.355299949645996
1702218630425682700,28.1166826171875,7.744499683380127,0.2863999903202057,-4.697700023651123
1702218630485682700,28.1766826171875,-0.7159000039100647,-1.1642999649047852,-3.8115999698638916
1702218630545682700,28.2366826171875,5.13730001449585,-2.990499973297119,-4.266499996185303
1702218630605709300,28.296709228515624,-1.1136000156402588,0.5843999981880188,1.5199999809265137
1702218630665682700,28.3566826171875,-1.8731999397277832,-6.908899784088135,-1.4431999921798706
1702218630725682700,28.4166826171875,-2.5924999713897705,-1.8037999868392944,1.9813998937606812
1702218630785682700,28.4766826171875,-3.430999994277954,0.1671999990940094,-3.0005998611450195
1702218630845682700,28.5366826171875,-3.6405999660491943,1.5436999797821045,0.8308999538421631
1702218630905682700,28.5966826171875,-3.4387998580932617,2.586199998855591,5.5854997634887695
1702218630965682700,28.6566826171875,-1.8107999563217163,3.5612998008728027,6.966699600219727
1702218631025682700,28.7166826171875,3.999499797821045,2.0188000202178955,-4.921899795532227
1702218631085682700,28.7766826171875,3.748499870300293,-4.292999744415283,-13.14680004119873
1702218631145682700,28.8366826171875,6.3420000076293945,1.1019999980926514,11.936200141906738
1702218631205682700,28.8966826171875,3.9612998962402344,-1.3934999704360962,-2.8576998710632324
1702218631265682700,28.9566826171875,-1.5958999395370483,-2.2144999504089355,3.996500015258789
1702218631325682700,29.0166826171875,-2.762500047683716,-2.9891998767852783,-2.2012999057769775
1702218631385682700,29.0766826171875,-2.370499849319458,1.034500002861023,-2.2146999835968018
1702218631445681200,29.13668115234375,0.5519999861717224,0.3779999911785126,-0.19579999148845673
1702218631505681200,29.19668115234375,-0.029500000178813934,0.8342999815940857,-0.27480000257492065
1702218631565681200,29.25668115234375,-0.9116999506950378,1.760599970817566,-1.7877999544143677
1702218631625681200,29.31668115234375,0.6848999857902527,2.165099859237671,-2.1382999420166016
1702218631685682700,29.3766826171875,2.6487998962402344,1.8051999807357788,-1.6749999523162842
1702218631745682700,29.4366826171875,6.313699722290039,-2.3437998294830322,-3.5911998748779297
1702218631805682700,29.4966826171875,1.0779999494552612,-2.529599905014038,-5.915899753570557
1702218631865682700,29.5566826171875,1.805299997329712,-3.6402997970581055,-3.9679999351501465
1702218631925682700,29.6166826171875,-4.78309965133667,-3.172799825668335,-3.037299871444702
1702218631985682700,29.6766826171875,1.0297999382019043,-5.2058000564575195,0.5950999855995178
1702218632045682700,29.7366826171875,-1.5104999542236328,0.4658999741077423,1.9407999515533447
1702218632105681200,29.79668115234375,-3.1717000007629395,1.9327999353408813,3.057999849319458
1702218632165681200,29.85668115234375,-3.4565999507904053,2.632999897003174,3.673099994659424
1702218632225682700,29.9166826171875,-2.711899995803833,3.082399845123291,6.069200038909912
1702218632285682700,29.9766826171875,6.57289981842041,-1.2115999460220337,-8.822099685668945
1702218632345682700,30.0366826171875,1.2073999643325806,1.4300999641418457,-8.11139965057373
1702218632405682700,30.0966826171875,-1.5726999044418335,-3.3576998710632324,5.125
1702218632465682700,30.1566826171875,-0.0632999986410141,-6.334199905395508,-0.4278999865055084
1702218632525682700,30.2166826171875,-3.3362998962402344,0.511900007724762,0.31290000677108765
1702218632585682700,30.2766826171875,-2.147199869155884,-1.6347999572753906,-1.9138000011444092
1702218632645682700,30.3366826171875,-0.2782999873161316,1.289199948310852,0.702299952507019
1702218632705709300,30.396709228515626,0.17739999294281006,0.95169997215271,-0.5288999676704407
1702218632765682700,30.4566826171875,0.4204999804496765,2.3422999382019043,-0.6962999701499939
1702218632825682700,30.5166826171875,-1.2089999914169312,1.503499984741211,-2.3877999782562256
1702218632885682700,30.5766826171875,-0.23649999499320984,-0.20080000162124634,-2.490799903869629
1702218632945682700,30.6366826171875,7.6057000160217285,-1.3364999294281006,-0.33550000190734863
1702218633005682700,30.6966826171875,0.9056999683380127,-3.0434999465942383,-3.8234000205993652
1702218633065682700,30.7566826171875,1.0753999948501587,0.22679999470710754,-2.762899875640869
1702218633125682700,30.8166826171875,-4.016499996185303,-2.0513999462127686,-2.687199831008911
1702218633185682700,30.8766826171875,1.351599931716919,-4.157700061798096,0.30820000171661377
1702218633245682700,30.9366826171875,-2.2238998413085938,0.13269999623298645,3.2263998985290527
1702218633305682700,30.9966826171875,-2.822999954223633,1.3072999715805054,-0.014399999752640724
1702218633365682700,31.0566826171875,-2.5075998306274414,2.482599973678589,3.140899896621704
1702218633425682700,31.1166826171875,-2.2193000316619873,1.7579998970031738,4.09660005569458
1702218633485682700,31.1766826171875,1.3690999746322632,2.441699981689453,-1.3112999200820923
1702218633545682700,31.2366826171875,3.415099859237671,-1.9437999725341797,-9.997099876403809
1702218633605682700,31.2966826171875,0.12789998948574066,-3.5047998428344727,5.069699764251709
1702218633665682700,31.3566826171875,-4.659499645233154,-3.121999979019165,1.5938999652862549
1702218633725682700,31.4166826171875,-3.957199811935425,-0.08739999681711197,-1.0231999158859253
1702218633785682700,31.4766826171875,-2.88319993019104,-1.1497999429702759,-4.773399829864502
1702218633845682700,31.5366826171875,0.604699969291687,1.7281999588012695,0.5340999960899353
1702218633905682700,31.5966826171875,0.07149999588727951,-0.012899999506771564,0.7674999833106995
1702218633965682700,31.6566826171875,1.31659996509552,1.202799916267395,-1.1893999576568604
1702218634025682700,31.7166826171875,0.2784999907016754,0.8854999542236328,-1.9631999731063843
1702218634085682700,31.7766826171875,2.211599826812744,0.8271999955177307,-2.0332000255584717
1702218634145682700,31.8366826171875,1.4775999784469604,-1.9332000017166138,-3.3794000148773193
1702218634205682700,31.8966826171875,-0.937999963760376,-1.7484999895095825,-3.6150999069213867
1702218634265682700,31.9566826171875,4.904999732971191,-1.0687999725341797,-1.7127999067306519
1702218634325682700,32.0166826171875,-4.280600070953369,-1.8202999830245972,-3.991999864578247
1702218634385682700,32.0766826171875,-1.2623000144958496,-3.589900016784668,1.011699914932251
1702218634445682700,32.1366826171875,-2.514400005340576,0.2985999882221222,1.1243000030517578
1702218634505682700,32.1966826171875,-2.2197999954223633,1.5889999866485596,-0.22679999470710754
1702218634565709300,32.256709228515625,-2.51639986038208,1.0181999206542969,1.8192999362945557
1702218634625682700,32.3166826171875,-2.5460000038146973,1.7877999544143677,4.706199645996094
1702218634685682700,32.3766826171875,-0.3024999797344208,2.6912999153137207,2.4661998748779297
1702218634745682700,32.4366826171875,2.8459999561309814,1.5333999395370483,-11.167299270629883
1702218634805709300,32.49670922851563,0.14800000190734863,3.4612998962402344,-0.6371999979019165
1702218634865682700,32.5566826171875,-1.8578999042510986,1.8203999996185303,2.338899850845337
1702218634925682700,32.6166826171875,-1.1452000141143799,-16.422800064086914,-9.656899452209473
1702218634985682700,32.6766826171875,-7.542399883270264,2.589200019836426,6.235899925231934
1702218635045682700,32.7366826171875,-5.45959997177124,-0.3878999948501587,-0.32999998331069946
1702218635105682700,32.7966826171875,0.8274999856948853,1.048699975013733,-1.685499906539917
1702218635165682700,32.8566826171875,-0.6450999975204468,-0.47849997878074646,1.8398998975753784
1702218635225681200,32.91668115234375,0.27320000529289246,0.739799976348877,-1.8641999959945679
1702218635285682700,32.9766826171875,-0.3280999958515167,1.4578999280929565,-2.069399833679199
1702218635345682700,33.0366826171875,0.4447000026702881,0.27239999175071716,-0.7734000086784363
1702218635405682700,33.0966826171875,-0.6083999872207642,-0.6541999578475952,0.11329999566078186
1702218635465682700,33.1566826171875,10.137899398803711,2.604099988937378,-1.1790999174118042
1702218635525682700,33.2166826171875,-0.8959999680519104,0.44929999113082886,-4.329899787902832
1702218635585682700,33.2766826171875,-2.7231998443603516,-3.765399932861328,-6.906399726867676
1702218635645682700,33.3366826171875,-0.3046000003814697,-0.9091999530792236,-0.1825999915599823
1702218635705682700,33.3966826171875,-2.796999931335449,-2.501499891281128,-0.8792999982833862
1702218635765682700,33.4566826171875,-0.46309998631477356,0.0016999999061226845,-0.20829999446868896
1702218635825682700,33.5166826171875,-3.765699863433838,0.03909999877214432,0.0989999994635582
1702218635885682700,33.5766826171875,-2.5713999271392822,1.9706000089645386,-0.6588000059127808
1702218635945682700,33.6366826171875,-1.4117000102996826,0.8894000053405762,2.908599853515625
1702218636005682700,33.6966826171875,-2.4584999084472656,0.9145999550819397,5.378299713134766
1702218636065682700,33.7566826171875,-1.0951999425888062,1.632699966430664,3.053799867630005
1702218636125682700,33.8166826171875,-0.9558999538421631,2.7662999629974365,-10.059100151062012
1702218636185682700,33.8766826171875,3.569000005722046,-0.8770999908447266,-4.856899738311768
1702218636245682700,33.9366826171875,-3.2002999782562256,-4.3541998863220215,4.07349967956543
1702218636305682700,33.9966826171875,-3.400399923324585,4.087100028991699,7.952499866485596
1702218636365682700,34.0566826171875,-7.140199661254883,-12.682199478149414,-3.560299873352051
1702218636425682700,34.1166826171875,-4.765599727630615,1.059499979019165,0.9842999577522278
1702218636485682700,34.1766826171875,0.7166999578475952,-0.986799955368042,-5.488399982452393
1702218636545682700,34.2366826171875,-0.44029998779296875,0.977400004863739,2.2755000591278076
1702218636605682700,34.2966826171875,0.8804000020027161,0.10579999536275864,1.5008000135421753
1702218636665682700,34.3566826171875,0.7210999727249146,1.4193999767303467,-1.6647999286651611
1702218636725682700,34.4166826171875,-0.03189999982714653,1.1704999208450317,-3.1714999675750732
1702218636785682700,34.4766826171875,1.5401999950408936,1.827199935913086,-1.9684998989105225
1702218636845682700,34.5366826171875,1.3839999437332153,0.4558999836444855,-0.8948999643325806
1702218636905709300,34.59670922851563,1.0965999364852905,-1.4643999338150024,-2.8262999057769775
1702218636965682700,34.6566826171875,3.03659987449646,-3.619999885559082,-6.220900058746338
1702218637025682700,34.7166826171875,-2.2547998428344727,-0.08150000125169754,-0.7507999539375305
1702218637085682700,34.7766826171875,0.06379999965429306,-3.294099807739258,-1.2695999145507812
1702218637145682700,34.8366826171875,-1.713499903678894,-1.1330000162124634,2.4301998615264893
1702218637205682700,34.8966826171875,-0.9935999512672424,0.18779999017715454,0.6279000043869019
1702218637265682700,34.9566826171875,-1.8407999277114868,0.6323999762535095,0.23519998788833618
1702218637325682700,35.0166826171875,-2.0443999767303467,2.0981998443603516,0.7139999866485596
1702218637385682700,35.0766826171875,-1.8643999099731445,1.4686999320983887,4.700399875640869
1702218637445682700,35.1366826171875,1.320199966430664,2.782099962234497,3.297499895095825
1702218637505682700,35.1966826171875,2.461899995803833,1.1581000089645386,-10.18649959564209
1702218637565682700,35.2566826171875,-0.6018999814987183,3.085700035095215,0.04149999842047691
1702218637625682700,35.3166826171875,9.26669979095459,-12.476399421691895,-6.207799911499023
1702218637685682700,35.3766826171875,-3.5448999404907227,1.3848999738693237,5.626499652862549
1702218637745682700,35.4366826171875,-5.085999965667725,-0.2793000042438507,0.8912999629974365
1702218637805682700,35.4966826171875,-2.788100004196167,-2.7037999629974365,-2.2832999229431152
1702218637865682700,35.5566826171875,5.28279972076416,0.8685999512672424,3.595599889755249
1702218637925682700,35.6166826171875,-1.4904999732971191,0.17749999463558197,-2.7864999771118164
1702218637985682700,35.6766826171875,0.3100999891757965,2.962100028991699,-1.6198999881744385
1702218638045682700,35.7366826171875,-0.9490000009536743,0.36949998140335083,-1.4946999549865723
1702218638105682700,35.7966826171875,1.0169999599456787,1.0002000331878662,-1.0987999439239502
1702218638165682700,35.8566826171875,3.8748998641967773,-0.6722999811172485,-1.7538999319076538
1702218638225682700,35.9166826171875,-0.4235999882221222,1.565999984741211,-1.1632000207901
1702218638285682700,35.9766826171875,-4.6682000160217285,-1.7804999351501465,-8.865599632263184
1702218638345682700,36.0366826171875,-3.8631999492645264,-1.492900013923645,-4.088599681854248
1702218638405682700,36.0966826171875,-0.5759999752044678,-8.188899993896484,-1.184899926185608
1702218638465682700,36.1566826171875,-0.8270999789237976,0.51910001039505,1.2036999464035034
1702218638525682700,36.2166826171875,-1.9636999368667603,0.8603000044822693,2.1317999362945557
1702218638585682700,36.2766826171875,-2.4159998893737793,1.0786999464035034,3.0307998657226562
1702218638645682700,36.3366826171875,-2.4301998615264893,0.6693999767303467,2.3595998287200928
1702218638705682700,36.3966826171875,-1.7558999061584473,1.9434999227523804,3.4189000129699707
1702218638765682700,36.4566826171875,3.706399917602539,1.4788999557495117,-7.399399757385254
1702218638825682700,36.5166826171875,0.827299952507019,1.649899959564209,-2.9972000122070312
1702218638885682700,36.5766826171875,4.035900115966797,-8.255599975585938,2.504199981689453
1702218638945682700,36.6366826171875,-5.95829963684082,1.438499927520752,0.574999988079071
1702218639005709300,36.69670922851562,-2.2137999534606934,-0.10639999806880951,-2.144399881362915
1702218639065682700,36.7566826171875,-3.250999927520752,-4.71589994430542,-2.995499849319458
1702218639125682700,36.8166826171875,-1.295199990272522,-1.4250999689102173,1.6236999034881592
1702218639185682700,36.8766826171875,-0.974299967288971,0.4277999997138977,2.118799924850464
1702218639245682700,36.9366826171875,-0.20029999315738678,1.7881999015808105,-0.13439999520778656
1702218639305682700,36.9966826171875,-0.9892999529838562,1.1246999502182007,-2.347899913787842
1702218639365682700,37.0566826171875,1.1083999872207642,1.692099928855896,-2.862499952316284
1702218639425682700,37.1166826171875,2.0585999488830566,1.2983999252319336,-3.1926000118255615
1702218639485682700,37.1766826171875,1.690999984741211,-0.07899999618530273,-1.5515999794006348
1702218639545682700,37.2366826171875,0.5051999688148499,0.3612000048160553,-1.0656999349594116
1702218639605682700,37.2966826171875,3.6277999877929688,1.267300009727478,-1.191999912261963
1702218639665682700,37.3566826171875,-8.428799629211426,-1.5814999341964722,-3.925299882888794
1702218639725682700,37.4166826171875,1.87309992313385,-2.8523998260498047,-6.154999732971191
1702218639785682700,37.4766826171875,-2.8225998878479004,-2.319499969482422,0.7185999751091003
1702218639845682700,37.5366826171875,-1.256600022315979,-0.9634999632835388,1.3816999197006226
1702218639905682700,37.5966826171875,0.17559999227523804,1.9007999897003174,1.2182999849319458
1702218639965682700,37.6566826171875,-3.346099853515625,-0.2791000008583069,1.8665999174118042
1702218640025682700,37.7166826171875,-3.096599817276001,0.9540999531745911,4.553400039672852
1702218640085682700,37.7766826171875,-2.3907999992370605,3.71209979057312,3.121999979019165
1702218640145682700,37.8366826171875,0.4912000000476837,3.837599992752075,-8.86240005493164
1702218640205682700,37.8966826171875,3.8220999240875244,1.13510000705719,-7.990499973297119
1702218640265682700,37.9566826171875,4.752099990844727,-3.135499954223633,10.743999481201172
1702218640325682700,38.0166826171875,-5.653800010681152,0.15709999203681946,4.056699752807617
1702218640385682700,38.0766826171875,-3.5023000240325928,-6.574499607086182,-1.907599925994873
1702218640445682700,38.1366826171875,-2.7614998817443848,-0.2703000009059906,2.7224998474121094
1702218640505710800,38.1967109375,-0.4822999835014343,0.3260999917984009,-1.514699935913086
1702218640565682700,38.2566826171875,-0.42069998383522034,2.178299903869629,-1.2913999557495117
1702218640625682700,38.3166826171875,0.4098999798297882,0.8446999788284302,-1.336899995803833
1702218640685682700,38.3766826171875,0.2312999963760376,1.2244999408721924,-2.202899932861328
1702218640745682700,38.4366826171875,0.3568999767303467,0.9569999575614929,-2.3970999717712402
1702218640805682700,38.4966826171875,1.1198999881744385,1.1507999897003174,-1.3806999921798706
1702218640865682700,38.5566826171875,3.073199987411499,0.1046999990940094,-0.7594999670982361
1702218640925682700,38.6166826171875,0.28029999136924744,-2.702399969100952,-1.9407999515533447
1702218640985682700,38.6766826171875,2.0655999183654785,-5.08459997177124,-8.111800193786621
1702218641045682700,38.7366826171875,0.4399999976158142,2.0404000282287598,-1.7982999086380005
1702218641105709300,38.796709228515624,-3.862299919128418,-1.8569999933242798,-1.344099998474121
1702218641165682700,38.8566826171875,-1.7495999336242676,-1.2666999101638794,-1.2965999841690063
1702218641225682700,38.9166826171875,-3.2361998558044434,0.9785999655723572,1.8356999158859253
1702218641285682700,38.9766826171875,-3.475799798965454,1.9759999513626099,2.0393998622894287
1702218641345682700,39.0366826171875,-3.1671998500823975,2.667799949645996,5.433499813079834
1702218641405682700,39.0966826171875,2.5311999320983887,2.949899911880493,-4.230899810791016
1702218641465682700,39.1566826171875,-0.7024999856948853,3.6873998641967773,-2.3039000034332275
1702218641525682700,39.2166826171875,-2.3000998497009277,2.5051000118255615,2.0673999786376953
1702218641585682700,39.2766826171875,-0.913100004196167,-15.188699722290039,-7.463699817657471
1702218641645682700,39.3366826171875,-9.190499305725098,3.7117998600006104,4.549799919128418
1702218641705682700,39.3966826171875,-3.6798999309539795,-2.8334999084472656,-2.668799877166748
1702218641765682700,39.4566826171875,-0.8626999855041504,0.9657999873161316,0.3562999963760376
1702218641825682700,39.5166826171875,2.597399950027466,-1.0027999877929688,1.1461999416351318
1702218641885682700,39.5766826171875,-1.319700002670288,1.6721999645233154,-0.5054000020027161
1702218641945682700,39.6366826171875,-0.7317000031471252,1.6746999025344849,-1.4681999683380127
1702218642005682700,39.6966826171875,2.125499963760376,-0.48799997568130493,-3.5645999908447266
1702218642065682700,39.7566826171875,5.0264997482299805,-1.0032999515533447,-3.8524999618530273
1702218642125682700,39.8166826171875,1.6953999996185303,0.2807999849319458,-4.13539981842041
1702218642185682700,39.8766826171875,0.03869999945163727,-2.2582998275756836,-7.080699920654297
1702218642245682700,39.9366826171875,-4.968599796295166,-1.3881999254226685,-3.6213998794555664
1702218642305682700,39.9966826171875,-0.7888999581336975,-6.721199989318848,-1.702799916267395
1702218642365681200,40.05668115234375,-2.456699848175049,1.1812000274658203,2.0070998668670654
1702218642425682700,40.1166826171875,-4.581900119781494,1.3811999559402466,0.7529999613761902
1702218642485682700,40.1766826171875,-4.201499938964844,1.9941999912261963,5.315499782562256
1702218642545682700,40.2366826171875,-2.955899953842163,3.187000036239624,7.62369966506958
1702218642605682700,40.2966826171875,2.6057000160217285,-3.6201000213623047,-13.093599319458008
1702218642665682700,40.3566826171875,1.9785000085830688,5.400399684906006,-1.3119999170303345
1702218642725682700,40.4166826171875,2.156100034713745,-10.37339973449707,-5.276700019836426
1702218642785682700,40.4766826171875,-5.046899795532227,1.774999976158142,4.586400032043457
1702218642845682700,40.5366826171875,-4.235599994659424,-2.4184999465942383,-0.19929999113082886
1702218642905682700,40.5966826171875,-2.162299871444702,0.4787999987602234,-2.11080002784729
1702218642965682700,40.6566826171875,0.7374999523162842,0.4738999903202057,0.4059999883174896
1702218643025682700,40.7166826171875,0.39149999618530273,0.4219000041484833,-1.6521999835968018
1702218643085681200,40.77668115234375,1.0300999879837036,1.503499984741211,-1.2215999364852905
1702218643145682700,40.8366826171875,1.8061000108718872,1.3420000076293945,-1.2210999727249146
1702218643205709300,40.896709228515626,4.7841997146606445,-0.5029999613761902,-3.6382999420166016
1702218643265682700,40.9566826171875,3.4607999324798584,0.0429999977350235,-3.5539000034332275
1702218643325682700,41.0166826171875,2.9707000255584717,-0.05739999935030937,-8.11709976196289
1702218643385682700,41.0766826171875,-5.380499839782715,-4.043799877166748,-3.209399938583374
1702218643445682700,41.1366826171875,1.0405999422073364,-6.209399700164795,-0.7401999831199646
1702218643505682700,41.1966826171875,-4.074999809265137,0.6748999953269958,2.079400062561035
1702218643565682700,41.2566826171875,-3.1196999549865723,1.9002999067306519,0.904699981212616
1702218643625682700,41.3166826171875,-3.48799991607666,2.6888999938964844,4.060800075531006
1702218643685682700,41.3766826171875,-1.719599962234497,2.525599956512451,4.778599739074707
1702218643745682700,41.4366826171875,6.236599922180176,-2.8071999549865723,-11.4753999710083
1702218643805682700,41.4966826171875,0.7806999683380127,4.697999954223633,-0.3296000063419342
1702218643865682700,41.5566826171875,0.2689000070095062,-6.867099761962891,-1.049299955368042
1702218643925682700,41.6166826171875,-5.259699821472168,1.2003999948501587,-0.09969999641180038
1702218643985682700,41.6766826171875,-5.527199745178223,-1.852199912071228,-1.167799949645996
1702218644045682700,41.7366826171875,-2.048099994659424,-1.2139999866485596,-1.169700026512146
1702218644105682700,41.7966826171875,0.6631999611854553,0.8097999691963196,1.6388999223709106
1702218644165682700,41.8566826171875,0.6807000041007996,0.5622999668121338,0.17239999771118164
1702218644225682700,41.9166826171875,-0.33869999647140503,1.9057999849319458,-1.7297999858856201
1702218644285682700,41.9766826171875,0.00009999999747378752,1.4484999179840088,-2.660599946975708
1702218644345682700,42.0366826171875,2.662299871444702,-0.2742999792098999,-3.9761998653411865
1702218644405682700,42.0966826171875,4.373199939727783,-1.8804999589920044,-1.6502000093460083
1702218644465682700,42.1566826171875,5.362599849700928,-1.5439000129699707,-5.9467997550964355
1702218644525682700,42.2166826171875,-3.232999801635742,1.215499997138977,-4.492099761962891
1702218644585682700,42.2766826171875,0.034299999475479126,-5.668499946594238,-1.2490999698638916
1702218644645682700,42.3366826171875,-2.3552000522613525,-1.4858999252319336,3.215399980545044
1702218644705682700,42.3966826171875,-2.9958999156951904,2.393699884414673,1.261199951171875
1702218644765682700,42.4566826171875,-3.1949000358581543,2.3158998489379883,2.1178998947143555
1702218644825682700,42.5166826171875,-2.3364999294281006,2.9632999897003174,6.103899955749512
1702218644885682700,42.5766826171875,7.459399700164795,-0.6735000014305115,-8.91189956665039
1702218644945682700,42.6366826171875,3.5692999362945557,5.979499816894531,-2.173099994659424
1702218645005682700,42.6966826171875,-2.5355000495910645,-6.350599765777588,0.4397999942302704
1702218645065682700,42.7566826171875,-3.7891998291015625,-1.7949999570846558,3.4375998973846436
1702218645125682700,42.8166826171875,-3.1268999576568604,-2.487299919128418,-1.3437999486923218
1702218645185682700,42.8766826171875,-1.9371999502182007,1.0612999200820923,-2.5673999786376953
1702218645245682700,42.9366826171875,0.3125,2.174799919128418,0.45389997959136963
1702218645305709300,42.99670922851563,1.205399990081787,1.1749999523162842,-1.6761000156402588
1702218645365682700,43.0566826171875,1.4515999555587769,1.497999906539917,-1.31059992313385
1702218645425682700,43.1166826171875,1.1614999771118164,0.4578000009059906,-2.0048999786376953
1702218645485682700,43.1766826171875,8.155799865722656,-0.31529998779296875,-7.159999847412109
1702218645545682700,43.2366826171875,4.598400115966797,1.49399995803833,-3.4450998306274414
1702218645605682700,43.2966826171875,-0.6380000114440918,-0.11299999803304672,-5.626699924468994
1702218645665682700,43.3566826171875,-5.092400074005127,-6.956199645996094,-2.3178000450134277
1702218645725682700,43.4166826171875,-0.45969998836517334,-4.477399826049805,-3.581699848175049
1702218645785682700,43.4766826171875,-6.5625,0.15389999747276306,2.9617998600006104
1702218645845682700,43.5366826171875,-0.39479997754096985,2.5197999477386475,3.4435999393463135
1702218645905682700,43.5966826171875,-1.0471999645233154,1.2914999723434448,5.74429988861084
1702218645965682700,43.6566826171875,0.8291999697685242,2.0662999153137207,5.382800102233887
1702218646025682700,43.7166826171875,1.7276999950408936,4.77269983291626,-6.398399829864502
1702218646085682700,43.7766826171875,-6.450099945068359,-3.9624998569488525,-12.565899848937988
1702218646145682700,43.8366826171875,-2.214599847793579,-2.4405999183654785,14.291399955749512
1702218646205751600,43.89675146484375,-5.431999683380127,-4.2058000564575195,-1.161199927330017
1702218646265682700,43.9566826171875,-4.572000026702881,-1.1094999313354492,-0.6807999610900879
1702218646325682700,44.0166826171875,-0.9333999752998352,-0.6194999814033508,-3.668099880218506
1702218646385682700,44.0766826171875,1.4155999422073364,1.0855000019073486,2.117499828338623
1702218646445682700,44.1366826171875,1.358199954032898,1.223699927330017,0.9540999531745911
1702218646505682700,44.1966826171875,0.7774999737739563,1.8334999084472656,-3.165099859237671
1702218646565682700,44.2566826171875,-0.14909999072551727,2.4930999279022217,-3.2500998973846436
1702218646625682700,44.3166826171875,1.7450999021530151,1.3894000053405762,-1.138800024986267
1702218646685682700,44.3766826171875,2.870999813079834,-1.3812999725341797,-3.6870999336242676
1702218646745682700,44.4366826171875,3.2228000164031982,-1.834399938583374,-1.9680999517440796
1702218646805682700,44.4966826171875,0.45749998092651367,-2.006199836730957,-5.020400047302246
1702218646865682700,44.5566826171875,-0.9264999628067017,0.3986999988555908,-4.201299667358398
1702218646925682700,44.6166826171875,1.7782999277114868,-7.200199604034424,-1.6560999155044556
1702218646985682700,44.6766826171875,-3.6668999195098877,-1.3562999963760376,1.9952999353408813
1702218647045682700,44.7366826171875,-1.3061999082565308,0.9763999581336975,0.5906000137329102
1702218647105682700,44.7966826171875,-4.126699924468994,3.123800039291382,2.2202000617980957
1702218647165682700,44.8566826171875,-2.422799825668335,2.3533999919891357,5.8877997398376465
1702218647225682700,44.9166826171875,0.6682999730110168,3.436800003051758,3.6059999465942383
1702218647285682700,44.9766826171875,0.6627999544143677,1.774399995803833,-7.256499767303467
1702218647345682700,45.0366826171875,-0.5794000029563904,2.8274998664855957,-0.5295000076293945
1702218647405709300,45.09670922851563,-9.682499885559082,-10.323299407958984,-7.80620002746582
1702218647465682700,45.1566826171875,-6.763899803161621,3.683199882507324,9.849199295043945
1702218647525682700,45.2166826171875,-6.533400058746338,-9.6141996383667,-3.396699905395508
1702218647585682700,45.2766826171875,-0.9430999755859375,0.32989999651908875,-1.8140000104904175
1702218647645682700,45.3366826171875,-1.1562999486923218,2.1335999965667725,0.6107000112533569
1702218647705682700,45.3966826171875,0.2254999876022339,0.755299985408783,0.027300000190734863
1702218647765682700,45.4566826171875,0.6560999751091003,1.9534999132156372,-3.807999849319458
1702218647825682700,45.5166826171875,0.2978000044822693,2.5274999141693115,-1.9398999214172363
1702218647885682700,45.5766826171875,2.1331000328063965,0.09769999980926514,-2.217599868774414
1702218647945682700,45.6366826171875,2.9614999294281006,-1.4909999370574951,-3.6584999561309814
1702218648005682700,45.6966826171875,0.8520999550819397,-2.2858998775482178,-5.803999900817871
1702218648065682700,45.7566826171875,4.931699752807617,-0.460999995470047,-2.2999000549316406
1702218648125682700,45.8166826171875,-5.560400009155273,-3.3875999450683594,-2.697700023651123
1702218648185682700,45.8766826171875,-0.5582000017166138,-3.7361998558044434,-0.9103999733924866
1702218648245682700,45.9366826171875,-2.1185998916625977,0.9950999617576599,1.2898999452590942
1702218648305682700,45.9966826171875,-3.5175998210906982,1.3707000017166138,1.5724999904632568
1702218648365682700,46.0566826171875,-3.4803998470306396,1.5819000005722046,3.9987998008728027
1702218648425682700,46.1166826171875,-0.851099967956543,2.3271000385284424,5.5239996910095215
1702218648485682700,46.1766826171875,3.694700002670288,-0.5986999869346619,-8.43239974975586
1702218648545682700,46.2366826171875,0.14509999752044678,5.323999881744385,-2.063999891281128
1702218648605682700,46.2966826171875,-3.448899984359741,0.5020999908447266,0.8157999515533447
1702218648665682700,46.3566826171875,7.090799808502197,-13.557299613952637,-5.877299785614014
1702218648725682700,46.4166826171875,-4.791199684143066,4.393199920654297,3.475399971008301
1702218648785682700,46.4766826171875,-2.88919997215271,-0.9554999470710754,-2.505499839782715
1702218648845682700,46.5366826171875,0.46779999136924744,1.4532999992370605,-0.6035000085830688
1702218648905682700,46.5966826171875,1.097000002861023,-0.42069998383522034,1.3680999279022217
1702218648965682700,46.6566826171875,0.692799985408783,1.059899926185608,-1.6618999242782593
1702218649025682700,46.7166826171875,0.6186999678611755,1.8595999479293823,-1.9820998907089233
1702218649085682700,46.7766826171875,1.837499976158142,-0.46149998903274536,-2.9975998401641846
1702218649145682700,46.8366826171875,7.564899921417236,-0.8449999690055847,-2.8197999000549316
1702218649205682700,46.8966826171875,0.9615999460220337,-0.5681999921798706,-1.8084999322891235
1702218649265682700,46.9566826171875,2.965399980545044,1.6110999584197998,-5.525099754333496
1702218649325682700,47.0166826171875,-4.422699928283691,-4.235599994659424,-2.9550998210906982
1702218649385682700,47.0766826171875,-0.5324000120162964,-6.3907999992370605,-1.9430999755859375
1702218649445682700,47.1366826171875,-0.9490000009536743,-0.2003999948501587,-0.11249999701976776
1702218649505709300,47.19670922851562,-2.480299949645996,1.4115999937057495,0.9965999722480774
1702218649565709300,47.256709228515625,-1.4133999347686768,2.515899896621704,2.243799924850464
1702218649625682700,47.3166826171875,-2.4148998260498047,1.320599913597107,5.888099670410156
1702218649685682700,47.3766826171875,-1.7136999368667603,3.7238998413085938,4.9481000900268555
1702218649745682700,47.4366826171875,0.10769999772310257,5.069499969482422,-5.989099979400635
1702218649805682700,47.4966826171875,-0.4829999804496765,1.4505000114440918,-1.0551999807357788
1702218649865682700,47.5566826171875,2.5850000381469727,-1.0667999982833862,0.7649999856948853
1702218649925682700,47.6166826171875,-3.7488999366760254,-6.321399688720703,-5.496099948883057
1702218649985682700,47.6766826171875,-7.627999782562256,4.185499668121338,1.9112999439239502
1702218650045682700,47.7366826171875,-4.173799991607666,-5.24370002746582,-5.566999912261963
1702218650105682700,47.7966826171875,0.3766999840736389,1.605799913406372,1.90749990940094
1702218650165682700,47.8566826171875,1.6686999797821045,-0.6189000010490417,0.24309998750686646
1702218650225682700,47.9166826171875,-0.06480000168085098,2.6644999980926514,0.4998999834060669
1702218650285682700,47.9766826171875,-0.3538999855518341,0.8464999794960022,-2.2635998725891113
1702218650345682700,48.0366826171875,3.8835999965667725,-1.5202000141143799,-4.28849983215332
1702218650405682700,48.0966826171875,-0.3781999945640564,-0.24269999563694,-4.059700012207031
1702218650465682700,48.1566826171875,4.5030999183654785,-0.3034999966621399,-7.763899803161621
1702218650525682700,48.2166826171875,-1.9213999509811401,-0.6304000020027161,-3.1675000190734863
1702218650585682700,48.2766826171875,-1.5444999933242798,-5.69980001449585,-1.3071999549865723
1702218650645682700,48.3366826171875,-1.7761999368667603,-0.9921000003814697,-0.14309999346733093
1702218650705682700,48.3966826171875,-1.994399905204773,1.3205000162124634,1.3158999681472778
1702218650765682700,48.4566826171875,-3.93179988861084,1.385699987411499,4.168699741363525
1702218650825682700,48.5166826171875,-4.263499736785889,3.308199882507324,6.744999885559082
1702218650885682700,48.5766826171875,2.036099910736084,3.82889986038208,5.6352996826171875
1702218650945682700,48.6366826171875,0.8603999614715576,0.10779999941587448,-9.746299743652344
1702218651005682700,48.6966826171875,4.761199951171875,0.663599967956543,-0.7962999939918518
1702218651065682700,48.7566826171875,-4.73390007019043,-2.829900026321411,4.089999675750732
1702218651125682700,48.8166826171875,-5.7906999588012695,-2.0760998725891113,0.19339999556541443
1702218651185682700,48.8766826171875,-1.9318000078201294,-2.3534998893737793,-3.686800003051758
1702218651245682700,48.9366826171875,4.28410005569458,0.30309998989105225,3.846799850463867
1702218651305682700,48.9966826171875,0.5999999642372131,0.6345999836921692,0.08789999783039093
1702218651365682700,49.0566826171875,-0.3822999894618988,3.194999933242798,-1.726699948310852
1702218651425682700,49.1166826171875,-0.3879999816417694,3.657099962234497,-1.5305999517440796
1702218651485682700,49.1766826171875,3.9149999618530273,-1.6103999614715576,-6.719699859619141
1702218651545682700,49.2366826171875,2.421999931335449,-1.2269999980926514,-3.9472999572753906
1702218651605709300,49.296709228515624,8.125299453735352,1.638700008392334,-6.442800045013428
1702218651665682700,49.3566826171875,-3.131999969482422,-4.045899868011475,-6.8078999519348145
1702218651725682700,49.4166826171875,-2.868000030517578,-3.397899866104126,-3.9789998531341553
1702218651785682700,49.4766826171875,1.3672000169754028,-2.1320998668670654,-2.3975000381469727
1702218651845682700,49.5366826171875,-4.473999977111816,-0.027799999341368675,3.9901998043060303
1702218651905682700,49.5966826171875,-4.357999801635742,1.1550999879837036,3.0421998500823975
1702218651965682700,49.6566826171875,-4.536099910736084,2.094599962234497,6.940999984741211
1702218652025682700,49.7166826171875,3.181299924850464,2.215399980545044,3.630699872970581
1702218652085682700,49.7766826171875,3.835899829864502,2.5966999530792236,-5.784899711608887
1702218652145682700,49.8366826171875,-8.501699447631836,-4.019400119781494,-0.7541999816894531
1702218652205682700,49.8966826171875,-7.5401997566223145,-0.6861000061035156,7.760200023651123
1702218652265682700,49.9566826171875,-0.9264000058174133,-6.858099937438965,-3.342399835586548
1702218652325682700,50.0166826171875,-3.102599859237671,1.1088999509811401,-0.824400007724762
1702218652385682700,50.0766826171875,0.5501999855041504,1.9609999656677246,0.2709999978542328
1702218652445682700,50.1366826171875,1.132200002670288,1.5547999143600464,-2.3308000564575195
1702218652505682700,50.1966826171875,0.4554999768733978,1.6416000127792358,-1.5209999084472656
1702218652565682700,50.2566826171875,0.7610999941825867,0.3815999925136566,-2.08270001411438
1702218652625681200,50.31668115234375,2.2956998348236084,-0.3021000027656555,-4.362599849700928
1702218652685682700,50.3766826171875,3.522599935531616,-0.7264999747276306,-2.381700038909912
1702218652745682700,50.4366826171875,2.560499906539917,-1.8176000118255615,-4.899099826812744
1702218652805682700,50.4966826171875,-0.6134999990463257,1.2493000030517578,-4.214799880981445
1702218652865682700,50.5566826171875,-1.8372999429702759,-3.8345999717712402,-3.349299907684326
1702218652925682700,50.6166826171875,-0.24729999899864197,-2.9666998386383057,1.4591999053955078
1702218652985682700,50.6766826171875,-2.092599868774414,1.156599998474121,2.236599922180176
1702218653045682700,50.7366826171875,-2.3260998725891113,2.096799850463867,1.2030999660491943
1702218653105682700,50.7966826171875,-3.2024998664855957,1.5252000093460083,3.931299924850464
1702218653165682700,50.8566826171875,0.18519999086856842,3.611999988555908,2.9709999561309814
1702218653225682700,50.9166826171875,0.7249000072479248,2.638399839401245,-10.102499961853027
1702218653285682700,50.9766826171875,-1.7737998962402344,2.033599853515625,-1.6102999448776245
1702218653345682700,51.0366826171875,-2.671999931335449,-5.938499927520752,3.055799961090088
1702218653405682700,51.0966826171875,-2.5620999336242676,-2.8646998405456543,2.5299999713897705
1702218653465682700,51.1566826171875,-3.7858998775482178,-1.8346999883651733,-2.5406999588012695
1702218653525682700,51.2166826171875,0.19059999287128448,2.262699842453003,-1.3285999298095703
1702218653585682700,51.2766826171875,1.9460999965667725,0.9587999582290649,0.9396999478340149
1702218653645682700,51.3366826171875,0.2418999969959259,1.7911999225616455,-2.0981998443603516
1702218653705709300,51.396709228515626,0.34860000014305115,2.029399871826172,-3.606799840927124
1702218653765682700,51.4566826171875,2.393699884414673,1.7293999195098877,-3.2944998741149902
1702218653825682700,51.5166826171875,7.009399890899658,-0.9829999804496765,-0.23749999701976776
1702218653885682700,51.5766826171875,2.2472000122070312,-2.9622998237609863,-4.043799877166748
1702218653945682700,51.6366826171875,0.6498000025749207,1.0384999513626099,-9.373799324035645
1702218654005682700,51.6966826171875,-2.0170998573303223,-4.960299968719482,-3.0931999683380127
1702218654065682700,51.7566826171875,-0.11589999496936798,-4.458799839019775,2.7209999561309814
1702218654125682700,51.8166826171875,-2.224900007247925,1.0342999696731567,3.235299825668335
1702218654185682700,51.8766826171875,-1.8898999691009521,2.666800022125244,1.6769999265670776
1702218654245682700,51.9366826171875,-3.347599983215332,3.4910998344421387,5.6579999923706055
1702218654305682700,51.9966826171875,-1.5548999309539795,3.1877999305725098,2.96809983253479
1702218654365682700,52.0566826171875,6.988199710845947,-1.2894999980926514,-10.779799461364746
1702218654425682700,52.1166826171875,3.248999834060669,-3.621500015258789,-7.08929967880249
1702218654485682700,52.1766826171875,-8.637399673461914,1.5530999898910522,9.775899887084961
1702218654545682700,52.2366826171875,-6.5015997886657715,-4.578799724578857,0.7838999629020691
1702218654605682700,52.2966826171875,-1.5453999042510986,-4.420300006866455,-5.965099811553955
1702218654665682700,52.3566826171875,1.5425999164581299,1.8636999130249023,3.325399875640869
1702218654725682700,52.4166826171875,0.3155999779701233,1.190500020980835,0.1127999946475029
1702218654785682700,52.4766826171875,1.7490999698638916,2.546099901199341,-1.7400999069213867
1702218654845682700,52.5366826171875,0.6492999792098999,1.5011999607086182,-2.2345998287200928
1702218654905682700,52.5966826171875,2.154099941253662,1.4555999040603638,-2.6255998611450195
1702218654965682700,52.6566826171875,5.608799934387207,-0.9502999782562256,-3.00219988822937
1702218655025682700,52.7166826171875,4.459700107574463,-1.2060999870300293,-1.2006999254226685
1702218655085682700,52.7766826171875,2.710700035095215,-0.06989999860525131,-6.869899749755859
1702218655145682700,52.8366826171875,-3.8506999015808105,-1.0084999799728394,-4.500999927520752
1702218655205682700,52.8966826171875,0.6473999619483948,-7.566099643707275,-2.9804999828338623
1702218655265682700,52.9566826171875,-0.3456999957561493,-0.9144999980926514,4.190099716186523
1702218655325682700,53.0166826171875,-0.6638000011444092,1.7479000091552734,1.037500023841858
1702218655385682700,53.0766826171875,-1.8363999128341675,2.6601998805999756,2.1993000507354736
1702218655445682700,53.1366826171875,-2.686800003051758,1.442199945449829,5.020599842071533
1702218655505682700,53.1966826171875,0.210099995136261,1.8811999559402466,1.786199927330017
1702218655565682700,53.2566826171875,2.3940000534057617,2.916299819946289,-9.60319995880127
1702218655625682700,53.3166826171875,-1.0562999248504639,3.2386999130249023,-3.1176998615264893
1702218655685682700,53.3766826171875,3.2802000045776367,-10.100099563598633,-3.6148998737335205
1702218655745682700,53.4366826171875,-2.6071999073028564,0.4664999842643738,5.513599872589111
1702218655805709300,53.49670922851563,-3.865799903869629,-5.833099842071533,-3.3280999660491943
1702218655865682700,53.5566826171875,-1.2496999502182007,0.6380999684333801,-0.30869999527931213
1702218655925682700,53.6166826171875,1.965499997138977,0.5310999751091003,2.277600049972534
1702218655985682700,53.6766826171875,1.1253999471664429,1.2817999124526978,0.5819999575614929
1702218656045682700,53.7366826171875,0.37109997868537903,1.4829999208450317,-2.28439998626709
1702218656105682700,53.7966826171875,2.45770001411438,1.2045999765396118,-3.0513999462127686
1702218656165682700,53.8566826171875,4.964999675750732,-1.5449999570846558,-2.735499858856201
1702218656225682700,53.9166826171875,3.4391000270843506,-1.379599928855896,-1.6589999198913574
1702218656285682700,53.9766826171875,4.626499652862549,-0.8039000034332275,-6.893499851226807
1702218656345682700,54.0366826171875,1.71999990940094,3.1582999229431152,0.3527999818325043
1702218656405682700,54.0966826171875,-5.0655999183654785,-5.949899673461914,-5.414299964904785
1702218656465682700,54.1566826171875,6.344799995422363,-6.043499946594238,-1.659500002861023
1702218656525682700,54.2166826171875,-4.761699676513672,0.5490999817848206,5.773799896240234
1702218656585682700,54.2766826171875,1.7527999877929688,2.3466999530792236,-0.1832999885082245
1702218656645682700,54.3366826171875,-2.7774999141693115,0.9538999795913696,4.4375
1702218656705682700,54.3966826171875,-0.4066999852657318,4.238500118255615,3.9375
1702218656765682700,54.4566826171875,0.4287000000476837,5.646299839019775,-4.025199890136719
1702218656825682700,54.5166826171875,14.252799987792969,-2.6991000175476074,-7.586799621582031
1702218656885682700,54.5766826171875,-0.7434999942779541,1.0861999988555908,3.3795998096466064
1702218656945682700,54.6366826171875,-2.063999891281128,-3.0421998500823975,-0.2554999887943268
1702218657005682700,54.6966826171875,-0.9280999898910522,-2.0525999069213867,-0.2874000072479248
1702218657065682700,54.7566826171875,-0.6304999589920044,0.4959999918937683,1.7351999282836914
1702218657125682700,54.8166826171875,2.89739990234375,1.4217000007629395,1.3978999853134155
1702218657185682700,54.8766826171875,0.04010000079870224,2.119499921798706,-1.2616000175476074
1702218657245682700,54.9366826171875,0.23319999873638153,2.0908000469207764,-1.1122000217437744
1702218657305682700,54.9966826171875,2.8641998767852783,-0.4813999831676483,-2.59089994430542
1702218657365682700,55.0566826171875,10.82859992980957,-2.514699935913086,-0.816100001335144
1702218657425682700,55.1166826171875,-0.8425999879837036,0.7199999690055847,-3.057799816131592
1702218657485682700,55.1766826171875,-0.02499999850988388,0.06870000064373016,-3.877699851989746
1702218657545682700,55.2366826171875,-2.594899892807007,-5.112799644470215,-8.153499603271484
1702218657605682700,55.2966826171875,5.371999740600586,-7.754799842834473,0.7561999559402466
1702218657665682700,55.3566826171875,0.9836999773979187,-1.0729999542236328,4.911299705505371
1702218657725682700,55.4166826171875,1.45169997215271,2.0274999141693115,0.24799999594688416
1702218657785682700,55.4766826171875,-3.575899839401245,2.2764999866485596,3.3349997997283936
1702218657845682700,55.5366826171875,-3.033399820327759,3.7664999961853027,5.721299648284912
1702218657905709300,55.59670922851563,1.1718000173568726,4.269099712371826,-3.3220999240875244
1702218657965682700,55.6566826171875,-0.5719000101089478,2.5127999782562256,-2.6873998641967773
1702218658025682700,55.7166826171875,-0.15809999406337738,0.21629999577999115,-0.7166000008583069
1702218658085682700,55.7766826171875,-5.554100036621094,-16.697599411010742,-11.126099586486816
1702218658145682700,55.8366826171875,-7.229699611663818,5.826699733734131,5.03879976272583
1702218658205682700,55.8966826171875,-4.927099704742432,-1.1519999504089355,-2.0011000633239746
1702218658265682700,55.9566826171875,-2.9256999492645264,-0.04349999874830246,-2.7095999717712402
1702218658325682700,56.0166826171875,2.900599956512451,-0.953499972820282,-1.629499912261963
1702218658385682700,56.0766826171875,-1.3137999773025513,1.9529999494552612,-2.260200023651123
1702218658445682700,56.1366826171875,-0.8442999720573425,2.000999927520752,-3.4763998985290527
1702218658505682700,56.1966826171875,1.6758999824523926,2.4667999744415283,-3.0795998573303223
1702218658565682700,56.2566826171875,4.8476996421813965,-1.3858000040054321,-0.6660000085830688
1702218658625682700,56.3166826171875,1.4220999479293823,-0.8065999746322632,-1.5271999835968018
1702218658685682700,56.3766826171875,-0.3950999975204468,0.7789999842643738,-7.937399864196777
1702218658745682700,56.4366826171875,-2.529899835586548,-4.870999813079834,-1.7353999614715576
1702218658805682700,56.4966826171875,1.4952999353408813,-7.338099956512451,0.8046999573707581
1702218658865682700,56.5566826171875,-2.9106998443603516,1.5313999652862549,2.214099884033203
1702218658925682700,56.6166826171875,-2.916299819946289,1.8871999979019165,0.8606999516487122
1702218658985682700,56.6766826171875,-1.4045000076293945,1.2806999683380127,3.5062999725341797
1702218659045682700,56.7366826171875,-1.3488999605178833,2.827699899673462,5.716799736022949
1702218659105682700,56.7966826171875,2.8461999893188477,1.945599913597107,-4.082900047302246
1702218659165682700,56.8566826171875,-0.3546999990940094,3.863600015640259,-3.1095998287200928
1702218659225682700,56.9166826171875,0.9199999570846558,1.2793999910354614,2.398099899291992
1702218659285682700,56.9766826171875,-6.72189998626709,-7.131399631500244,-0.9619999527931213
1702218659345682700,57.0366826171875,-6.095699787139893,1.680299997329712,0.26980000734329224
1702218659405682700,57.0966826171875,-1.8391999006271362,-3.8895998001098633,-5.530999660491943
1702218659465682700,57.1566826171875,0.617900013923645,2.158400058746338,1.424299955368042
1702218659525682700,57.2166826171875,1.9018999338150024,-0.6811999678611755,0.6794999837875366
1702218659585682700,57.2766826171875,0.2557999789714813,2.2848000526428223,-0.7497000098228455
1702218659645682700,57.3366826171875,0.23749999701976776,3.0627999305725098,-0.2766000032424927
1702218659705682700,57.3966826171875,1.3736000061035156,-0.7339000105857849,-3.21589994430542
1702218659765682700,57.4566826171875,13.70300006866455,-0.11829999834299088,-2.335700035095215
1702218659825682700,57.5166826171875,-1.3152999877929688,-2.495699882507324,-6.323099613189697
1702218659885682700,57.5766826171875,0.7972999811172485,-1.0357999801635742,-2.5809998512268066
1702218659945682700,57.6366826171875,-3.4838998317718506,-1.8603999614715576,-6.191299915313721
1702218660005709300,57.69670922851562,0.23979999125003815,-5.264499664306641,-1.1964999437332153
1702218660065682700,57.7566826171875,-1.5673999786376953,-3.269199848175049,3.7654998302459717
1702218660125682700,57.8166826171875,-1.3746999502182007,1.5604000091552734,-1.0875999927520752
1702218660185682700,57.8766826171875,-5.244100093841553,1.59499990940094,-0.887499988079071
1702218660245682700,57.9366826171875,-3.90339994430542,3.0988998413085938,5.953499794006348
1702218660305682700,57.9966826171875,-1.6684999465942383,4.868499755859375,6.1143999099731445
1702218660365682700,58.0566826171875,6.436500072479248,1.6653000116348267,-11.447199821472168
1702218660425682700,58.1166826171875,-2.261199951171875,-7.718400001525879,-11.36359977722168
1702218660485682700,58.1766826171875,-9.780099868774414,2.6071999073028564,11.03219985961914
1702218660545682700,58.2366826171875,-0.4511999785900116,-6.63100004196167,-3.628000020980835
1702218660605682700,58.2966826171875,-2.009199857711792,-1.5743999481201172,-3.4896998405456543
1702218660665682700,58.3566826171875,0.7303000092506409,3.141899824142456,-0.21549999713897705
1702218660725682700,58.4166826171875,1.7768999338150024,1.865299940109253,-1.8882999420166016
1702218660785682700,58.4766826171875,1.3456000089645386,0.9734999537467957,-1.556999921798706
1702218660845682700,58.5366826171875,-0.17999999225139618,1.0957999229431152,-2.4619998931884766
1702218660905682700,58.5966826171875,1.6351999044418335,1.4835000038146973,-2.265699863433838
1702218660965682700,58.6566826171875,6.7891998291015625,-1.8246999979019165,-2.1447999477386475
1702218661025682700,58.7166826171875,1.0077999830245972,-0.39419999718666077,-1.569599986076355
1702218661085682700,58.7766826171875,0.5579999685287476,-1.5537999868392944,-8.198800086975098
1702218661145682700,58.8366826171875,-1.001099944114685,-4.034299850463867,-3.0706000328063965
1702218661205682700,58.8966826171875,-0.14989998936653137,-4.452099800109863,1.0674999952316284
1702218661265682700,58.9566826171875,-1.792199969291687,0.6488999724388123,1.5743999481201172
1702218661325682700,59.0166826171875,-2.410099983215332,2.7547998428344727,2.313699960708618
1702218661385682700,59.0766826171875,-3.6735999584198,1.5963000059127808,3.2538998126983643
1702218661445682700,59.1366826171875,-0.1517999917268753,2.955699920654297,4.731100082397461
1702218661505682700,59.1966826171875,3.639899969100952,1.0260999202728271,-9.8218994140625
1702218661565682700,59.2566826171875,0.2624000012874603,2.6053998470306396,-3.17330002784729
1702218661625682700,59.3166826171875,-4.2357001304626465,-7.169099807739258,1.5631999969482422
1702218661685682700,59.3766826171875,-5.435299873352051,-0.9751999974250793,2.4914000034332275
1702218661745682700,59.4366826171875,-0.9327999949455261,-3.6661999225616455,-5.47790002822876
1702218661805682700,59.4966826171875,-1.4457999467849731,0.5446999669075012,0.6620999574661255
1702218661865682700,59.5566826171875,-0.5889999866485596,1.2584999799728394,1.2635999917984009
1702218661925682700,59.6166826171875,1.1927999258041382,0.8183000087738037,-0.17159999907016754
1702218661985682700,59.6766826171875,-0.5073999762535095,2.0717999935150146,-2.017899990081787
1702218662045682700,59.7366826171875,0.507099986076355,1.8916999101638794,-2.4707000255584717
1702218662105709300,59.796709228515624,3.508999824523926,-0.6234999895095825,-5.08329963684082
1702218662165682700,59.8566826171875,3.8801000118255615,-0.07419999688863754,-1.6832000017166138
1702218662225682700,59.9166826171875,-2.6103999614715576,-0.9509999752044678,-6.7393999099731445
1702218662285682700,59.9766826171875,-2.3474998474121094,-0.54339998960495,-4.840099811553955
1702218662345682700,60.0366826171875,1.023800015449524,-6.787099838256836,1.5233999490737915
1702218662405682700,60.0966826171875,-1.6036999225616455,-0.7285000085830688,2.046999931335449
1702218662465682700,60.1566826171875,-0.6697999835014343,0.8632999658584595,0.3276999890804291
1702218662525682700,60.2166826171875,-1.2997000217437744,0.9540999531745911,-0.9231999516487122
1702218662585682700,60.2766826171875,-1.409500002861023,0.5455999970436096,2.809000015258789
1702218662645682700,60.3366826171875,-1.2028999328613281,3.2665998935699463,6.906499862670898
1702218662705682700,60.3966826171875,-1.4819999933242798,2.870499849319458,-1.268899917602539
1702218662765682700,60.4566826171875,2.0957000255584717,0.4124999940395355,-4.883899688720703
1702218662825681200,60.51668115234375,-0.9407999515533447,-2.479300022125244,-3.15559983253479
1702218662885682700,60.5766826171875,-5.8180999755859375,2.1011998653411865,6.1828999519348145
1702218662945682700,60.6366826171875,-0.26330000162124634,-6.326200008392334,-3.426800012588501
1702218663005681200,60.69668115234375,-2.90310001373291,1.5924999713897705,0.5389999747276306
1702218663065682700,60.7566826171875,2.5635998249053955,0.5300999879837036,1.6705999374389648
1702218663125682700,60.8166826171875,0.06700000166893005,1.0755000114440918,-0.9848999977111816
1702218663185681200,60.87668115234375,-0.4578999876976013,1.0698999166488647,-3.160599946975708
1702218663245681200,60.93668115234375,1.6872999668121338,1.8197999000549316,-2.2523999214172363
1702218663305681200,60.99668115234375,3.6828999519348145,2.2244999408721924,-1.4218999147415161
1702218663365681200,61.05668115234375,1.4047999382019043,-1.15339994430542,-2.22189998626709
1702218663425681200,61.11668115234375,2.0255000591278076,-1.4855999946594238,-3.774099826812744
1702218663485681200,61.17668115234375,-0.05299999937415123,0.65829998254776,-2.681299924850464
1702218663545682700,61.2366826171875,-3.205699920654297,-3.100100040435791,-2.8795998096466064
1702218663605682700,61.2966826171875,0.25450000166893005,-3.6429998874664307,-0.2962999939918518
1702218663665682700,61.3566826171875,-2.150099992752075,-0.02879999950528145,-0.013199999928474426
1702218663725682700,61.4166826171875,-2.0177998542785645,0.8438999652862549,-0.34289997816085815
1702218663785682700,61.4766826171875,-3.44789981842041,1.3770999908447266,3.2664999961853027
1702218663845682700,61.5366826171875,-3.714900016784668,3.484299898147583,6.42009973526001
1702218663905682700,61.5966826171875,-0.758899986743927,3.4154999256134033,-1.2209999561309814
1702218663965682700,61.6566826171875,-2.6171998977661133,3.287899971008301,-4.140199661254883
1702218664025682700,61.7166826171875,8.491700172424316,-17.03179931640625,-4.287799835205078
1702218664085682700,61.7766826171875,-9.563599586486816,2.2797999382019043,6.088299751281738
1702218664145682700,61.8366826171875,-3.165599822998047,-1.805400013923645,-2.2460999488830566
1702218664205709300,61.896709228515626,-1.480299949645996,0.012799999676644802,-3.200699806213379
1702218664265682700,61.9566826171875,0.06879999488592148,1.6267999410629272,2.2507998943328857
1702218664325682700,62.0166826171875,-0.3174999952316284,0.1233999952673912,-1.3270999193191528
1702218664385682700,62.0766826171875,0.40609997510910034,1.918199896812439,-1.7287999391555786
1702218664445682700,62.1366826171875,0.6553999781608582,1.455199956893921,-2.0344998836517334
1702218664505682700,62.1966826171875,3.9736998081207275,-0.6087999939918518,-3.2818000316619873
1702218664565709300,62.256709228515625,1.5936999320983887,0.18209999799728394,-2.7244999408721924
1702218664625682700,62.3166826171875,0.8341000080108643,1.4399999380111694,-3.2421998977661133
1702218664685682700,62.3766826171875,0.9560999870300293,-3.6611998081207275,-7.924299716949463
1702218664745682700,62.4366826171875,-1.7989999055862427,1.8209999799728394,-2.585599899291992
1702218664805682700,62.4966826171875,-3.168299913406372,-5.667200088500977,-0.67249995470047
1702218664865682700,62.5566826171875,-0.3700000047683716,0.5012999773025513,-0.1898999959230423
1702218664925682700,62.6166826171875,-3.755199909210205,0.4327999949455261,0.21130000054836273
1702218664985682700,62.6766826171875,-3.266700029373169,0.028699999675154686,3.3877999782562256
1702218665045682700,62.7366826171875,-1.7276999950408936,2.0058999061584473,6.9679999351501465
1702218665105682700,62.7966826171875,0.6004999876022339,2.5837998390197754,0.07159999758005142
1702218665165682700,62.8566826171875,0.20009998977184296,4.672599792480469,-4.898200035095215
1702218665225682700,62.9166826171875,0.06289999932050705,1.9219999313354492,1.1904000043869019
1702218665285682700,62.9766826171875,-1.2208999395370483,-6.8100996017456055,1.7267999649047852
1702218665345682700,63.0366826171875,-5.28410005569458,-0.9159999489784241,0.4912000000476837
1702218665405682700,63.0966826171875,-1.2580000162124634,-1.791700005531311,-3.178499937057495
1702218665465682700,63.1566826171875,1.1955000162124634,1.3037999868392944,2.0580999851226807
1702218665525682700,63.2166826171875,1.188599944114685,0.8096999526023865,0.4235999882221222
1702218665585682700,63.2766826171875,-0.8375999927520752,2.021899938583374,-2.392699956893921
1702218665645682700,63.3366826171875,0.8495000004768372,0.03319999948143959,-2.9823999404907227
1702218665705682700,63.3966826171875,10.825499534606934,0.6087999939918518,-0.0486999973654747
1702218665765682700,63.4566826171875,0.13369999825954437,-0.4169999957084656,-4.003499984741211
1702218665825682700,63.5166826171875,0.5631999969482422,-0.8407999873161316,-3.60509991645813
1702218665885682700,63.5766826171875,13.681599617004395,-4.6290998458862305,-7.43019962310791
1702218665945682700,63.6366826171875,-3.9305999279022217,1.972599983215332,-3.618299961090088
1702218666005682700,63.6966826171875,-0.6872999668121338,-3.657099962234497,-2.0490000247955322
1702218666065682700,63.7566826171875,-2.40339994430542,-1.5755000114440918,0.2246999889612198
1702218666125682700,63.8166826171875,-1.8952999114990234,0.3885999917984009,-0.022499999031424522
1702218666185682700,63.8766826171875,-3.8015999794006348,1.4283000230789185,4.05049991607666
1702218666245682700,63.9366826171875,-2.977299928665161,3.4582998752593994,7.199999809265137
1702218666305709300,63.99670922851563,0.12199999392032623,2.47160005569458,-1.2638999223709106
1702218666365682700,64.0566826171875,-0.262800008058548,1.6650999784469604,-3.6118998527526855
1702218666425682700,64.1166826171875,8.221799850463867,-11.108200073242188,-7.592899799346924
1702218666485682700,64.1766826171875,-1.021299958229065,3.1786999702453613,6.434199810028076
1702218666545682700,64.2366826171875,-0.8525999784469604,-2.810299873352051,-1.8702999353408813
1702218666605682700,64.2966826171875,-3.031399965286255,-1.9681999683380127,-2.4358999729156494
1702218666665682700,64.3566826171875,0.2061000019311905,0.604699969291687,2.1659998893737793
1702218666725682700,64.4166826171875,0.09109999984502792,0.8481999635696411,0.9608999490737915
1702218666785682700,64.4766826171875,0.9799999594688416,1.7242000102996826,-1.5401999950408936
1702218666845682700,64.5366826171875,-0.09479999542236328,1.2728999853134155,-3.5896999835968018
1702218666905682700,64.5966826171875,1.2010999917984009,2.4388999938964844,-3.672799825668335
1702218666965682700,64.6566826171875,5.608999729156494,0.5964999794960022,-2.420099973678589
1702218667025682700,64.7166826171875,3.2863998413085938,0.13679999113082886,-2.525099992752075
1702218667085682700,64.7766826171875,2.2853000164031982,-4.8043999671936035,-6.249799728393555
1702218667145682700,64.8366826171875,-0.7346000075340271,2.4763998985290527,-2.76639986038208
1702218667205682700,64.8966826171875,-2.3104000091552734,-6.161200046539307,-3.383999824523926
1702218667265682700,64.9566826171875,-0.8159999847412109,-2.5397000312805176,2.745800018310547
1702218667325682700,65.0166826171875,-1.737299919128418,1.5954999923706055,-0.739799976348877
1702218667385682700,65.0766826171875,-2.449199914932251,2.4219000339508057,-1.1806999444961548
1702218667445682700,65.1366826171875,-2.34660005569458,1.7777999639511108,5.4492998123168945
1702218667505682700,65.1966826171875,0.12860000133514404,1.7005999088287354,6.836699962615967
1702218667565682700,65.2566826171875,2.4923999309539795,0.3813999891281128,-3.527400016784668
1702218667625682700,65.3166826171875,-1.511299967765808,6.466099739074707,-3.3242998123168945
1702218667685682700,65.3766826171875,-4.854700088500977,-5.616499900817871,-6.084799766540527
1702218667745682700,65.4366826171875,10.776899337768555,0.42669999599456787,5.218499660491943
1702218667805682700,65.4966826171875,-1.6341999769210815,-3.8101999759674072,1.802899956703186
1702218667865682700,65.5566826171875,-1.9050999879837036,-0.28859999775886536,-0.23659999668598175
1702218667925682700,65.6166826171875,-1.4074000120162964,1.5794999599456787,-0.5449000000953674
1702218667985682700,65.6766826171875,3.380999803543091,0.1720999926328659,1.2853000164031982
1702218668045682700,65.7366826171875,-0.7095999717712402,1.8717999458312988,-1.2374999523162842
1702218668105682700,65.7966826171875,0.5072000026702881,0.7792999744415283,-2.9186999797821045
1702218668165682700,65.8566826171875,3.1073999404907227,-0.46299999952316284,-5.398699760437012
1702218668225682700,65.9166826171875,4.312299728393555,0.3422999978065491,-0.7188999652862549
1702218668285682700,65.9766826171875,0.9218999743461609,-5.122900009155273,-8.055299758911133
1702218668345682700,66.0366826171875,0.7324000000953674,2.552000045776367,-4.084000110626221
1702218668405709300,66.09670922851562,-2.9696998596191406,-4.19379997253418,-2.6001999378204346
1702218668465682700,66.1566826171875,-0.7148999571800232,-0.3788999915122986,-0.024000000208616257
1702218668525682700,66.2166826171875,-2.29259991645813,0.8515999913215637,2.1190998554229736
1702218668585682700,66.2766826171875,-2.9398999214172363,1.1262999773025513,2.8852999210357666
1702218668645682700,66.3366826171875,-3.2720999717712402,1.4996999502182007,3.9632999897003174
1702218668705682700,66.3966826171875,-1.7553999423980713,3.2167999744415283,5.4452996253967285
1702218668765682700,66.4566826171875,4.198400020599365,-0.9009000062942505,-9.45300006866455
1702218668825682700,66.5166826171875,-0.6977999806404114,5.314699649810791,-3.362299919128418
1702218668885682700,66.5766826171875,2.119499921798706,-5.543999671936035,-5.368099689483643
1702218668945682700,66.6366826171875,0.5076999664306641,-3.8743999004364014,4.3850998878479
1702218669005682700,66.6966826171875,-4.456099987030029,0.2458999902009964,2.216599941253662
1702218669065682700,66.7566826171875,-2.669100046157837,-2.1819000244140625,-2.860499858856201
1702218669125682700,66.8166826171875,8.686699867248535,2.2986998558044434,1.4699000120162964
1702218669185682700,66.8766826171875,-1.1546000242233276,0.6671000123023987,-1.8710999488830566
1702218669245682700,66.9366826171875,-1.8621000051498413,3.08489990234375,-0.4803999960422516
1702218669305682700,66.9966826171875,1.9026999473571777,1.796799898147583,-3.3441998958587646
1702218669365682700,67.0566826171875,6.906599998474121,-1.0844999551773071,-3.417099952697754
1702218669425682700,67.1166826171875,4.192899703979492,-0.20879998803138733,-3.6106998920440674
1702218669485682700,67.1766826171875,-1.1309000253677368,3.8964998722076416,-2.555799961090088
1702218669545682700,67.2366826171875,-7.788399696350098,-7.093099594116211,-10.389800071716309
1702218669605682700,67.2966826171875,6.332200050354004,-7.630799770355225,-1.2633999586105347
1702218669665682700,67.3566826171875,-4.511399745941162,-1.5372999906539917,4.048799991607666
1702218669725682700,67.4166826171875,-0.7146999835968018,2.653599977493286,1.4830999374389648
1702218669785682700,67.4766826171875,-2.7137999534606934,2.7667999267578125,3.552299976348877
1702218669845682700,67.5366826171875,-2.134500026702881,2.198699951171875,5.767499923706055
1702218669905682700,67.5966826171875,6.126899719238281,3.099299907684326,-1.9103999137878418
1702218669965682700,67.6566826171875,2.1191999912261963,2.9138998985290527,-8.895099639892578
1702218670025682700,67.7166826171875,-1.3435999155044556,-2.5807998180389404,-1.125
1702218670085682700,67.7766826171875,-0.6524999737739563,-4.543299674987793,2.161900043487549
1702218670145682700,67.8366826171875,-4.42009973526001,-3.3794000148773193,-1.7136999368667603
1702218670205682700,67.8966826171875,-3.4198999404907227,-0.5097000002861023,-1.341499924659729
1702218670265682700,67.9566826171875,-3.333099842071533,1.3669999837875366,2.038100004196167
1702218670325682700,68.0166826171875,2.2051000595092773,1.4056999683380127,3.4220998287200928
1702218670385682700,68.0766826171875,1.8396999835968018,1.330399990081787,-1.9614999294281006
1702218670445682700,68.1366826171875,2.38100004196167,-0.4074999988079071,-6.083600044250488
1702218670505709300,68.19670922851563,-0.16830000281333923,0.33820000290870667,-5.798999786376953
1702218670565682700,68.2566826171875,1.2479000091552734,-1.1259000301361084,-4.439300060272217
1702218670625682700,68.3166826171875,5.828799724578857,-0.8942999839782715,-2.6263999938964844
1702218670685681200,68.37668115234375,-8.067099571228027,-1.3738999366760254,-2.894399881362915
1702218670745682700,68.4366826171875,4.723899841308594,-5.242700099945068,-6.209099769592285
1702218670805682700,68.4966826171875,-1.534500002861023,-1.9052000045776367,3.860299825668335
1702218670865682700,68.5566826171875,-0.1655000001192093,0.8023999929428101,-0.2093999981880188
1702218670925682700,68.6166826171875,-1.7728999853134155,1.6317999362945557,-0.13269999623298645
1702218670985682700,68.6766826171875,-3.5013999938964844,2.1900999546051025,5.944900035858154
1702218671045682700,68.7366826171875,-0.23649999499320984,3.9153997898101807,6.463099956512451
1702218671105682700,68.7966826171875,-0.7526999711990356,1.9678999185562134,-11.040199279785156
1702218671165682700,68.8566826171875,0.7491999864578247,2.3030998706817627,-2.747799873352051
1702218671225682700,68.9166826171875,-3.0550999641418457,-10.70259952545166,-0.5942999720573425
1702218671285682700,68.9766826171875,-5.977799892425537,1.067199945449829,4.030099868774414
1702218671345682700,69.0366826171875,-4.218199729919434,-5.000400066375732,-4.872299671173096
1702218671405682700,69.0966826171875,-2.232599973678589,2.3638999462127686,-0.10669999569654465
1702218671465682700,69.1566826171875,2.0795998573303223,-0.3773999810218811,0.029600000008940697
1702218671525682700,69.2166826171875,-0.91239994764328,2.7858998775482178,-1.187600016593933
1702218671585682700,69.2766826171875,0.24319998919963837,0.35599997639656067,-4.451399803161621
1702218671645682700,69.3366826171875,1.169700026512146,1.1477999687194824,-2.7463998794555664
1702218671705682700,69.3966826171875,1.764799952507019,-1.8463999032974243,-4.326999664306641
1702218671765682700,69.4566826171875,4.923699855804443,-1.5788999795913696,-2.0874998569488525
1702218671825682700,69.5166826171875,3.9201998710632324,1.8221999406814575,-4.591300010681152
1702218671885682700,69.5766826171875,-9.759599685668945,-3.3516998291015625,-2.349799871444702
1702218671945682700,69.6366826171875,5.4156999588012695,-6.019000053405762,-4.984099864959717
1702218672005682700,69.6966826171875,-5.458899974822998,0.49609997868537903,-0.25360000133514404
1702218672065682700,69.7566826171875,-2.6582000255584717,0.8944999575614929,1.524399995803833
1702218672125682700,69.8166826171875,-1.4269999265670776,2.1557998657226562,5.389499664306641
1702218672185682700,69.8766826171875,-2.105299949645996,0.9968999624252319,3.95389986038208
1702218672245682700,69.9366826171875,-0.444599986076355,1.469599962234497,1.746999979019165
1702218672305682700,69.9966826171875,1.1948000192642212,3.8974997997283936,-4.785900115966797
1702218672365682700,70.0566826171875,0.46459999680519104,1.063599944114685,-1.5829999446868896
1702218672425682700,70.1166826171875,-2.437299966812134,-11.961999893188477,-9.157499313354492
1702218672485682700,70.1766826171875,-5.849299907684326,4.5671000480651855,7.842499732971191
1702218672545682700,70.2366826171875,-5.365999698638916,-4.523099899291992,-1.9869999885559082
1702218672605709300,70.29670922851562,-2.089099884033203,-0.45009997487068176,-3.4973998069763184
1702218672665682700,70.3566826171875,-0.15289999544620514,0.7384999990463257,0.1467999964952469
1702218672725682700,70.4166826171875,0.47439998388290405,0.7337999939918518,-0.11979999393224716
1702218672785682700,70.4766826171875,0.3852999806404114,2.2386999130249023,-2.734799861907959
1702218672845682700,70.5366826171875,0.5336999893188477,1.677799940109253,-3.6977999210357666
1702218672905682700,70.5966826171875,1.1596999168395996,0.9888999462127686,-3.8172998428344727
1702218672965682700,70.6566826171875,5.512700080871582,-1.5893999338150024,-2.884699821472168
1702218673025682700,70.7166826171875,2.8927998542785645,-2.5283000469207764,-5.384099960327148
1702218673085681200,70.77668115234376,2.372499942779541,0.9282999634742737,-3.179999828338623
1702218673145682700,70.8366826171875,-3.293799877166748,-3.0055999755859375,-0.39239999651908875
1702218673205682700,70.8966826171875,-0.6862999796867371,-5.731899738311768,-2.257699966430664
1702218673265682700,70.9566826171875,-1.4880999326705933,0.1931999921798706,0.8876000046730042
1702218673325682700,71.0166826171875,-3.192499876022339,0.8744999766349792,1.9431999921798706
1702218673385682700,71.0766826171875,-2.3234000205993652,4.1184000968933105,5.8364996910095215
1702218673445682700,71.1366826171875,-0.29350000619888306,4.42579984664917,5.251100063323975
1702218673505682700,71.1966826171875,4.4019999504089355,-1.2390999794006348,-11.710199356079102
1702218673565682700,71.2566826171875,4.043499946594238,-5.427299976348877,-8.856100082397461
1702218673625682700,71.3166826171875,-11.686200141906738,2.463599920272827,10.401599884033203
1702218673685682700,71.3766826171875,-5.958199977874756,-1.0231000185012817,-2.618799924850464
1702218673745682700,71.4366826171875,-4.706699848175049,-3.020900011062622,0.16089999675750732
1702218673805682700,71.4966826171875,-1.612299919128418,-0.13009999692440033,0.8452999591827393
1702218673865682700,71.5566826171875,0.6919999718666077,1.311900019645691,-0.6712999939918518
1702218673925682700,71.6166826171875,0.6482999920845032,2.6676998138427734,-0.2687000036239624
1702218673985682700,71.6766826171875,0.27629998326301575,1.1088999509811401,-2.7827999591827393
1702218674045682700,71.7366826171875,1.1453999280929565,1.7404999732971191,-2.000699996948242
1702218674105682700,71.7966826171875,3.575899839401245,-0.4236999750137329,-3.846099853515625
1702218674165682700,71.8566826171875,1.4169999361038208,-1.1481000185012817,-2.8422999382019043
1702218674225681200,71.91668115234376,3.7219998836517334,-2.6895999908447266,-4.217799663543701
1702218674285681200,71.97668115234374,-1.7889999151229858,-1.0239999294281006,-3.9428999423980713
1702218674345681200,72.03668115234375,1.333400011062622,-3.9450998306274414,-2.538800001144409
1702218674405682700,72.0966826171875,-1.6161999702453613,-2.1338000297546387,1.4465999603271484
1702218674465682700,72.1566826171875,-2.5185999870300293,2.210599899291992,1.1473000049591064
1702218674525682700,72.2166826171875,-3.971299886703491,3.178499937057495,0.2886999845504761
1702218674585682700,72.2766826171875,-4.365900039672852,2.1433000564575195,6.954899787902832
1702218674645682700,72.3366826171875,-0.2733999788761139,4.205599784851074,5.678299903869629
1702218674705709300,72.39670922851562,3.261199951171875,-0.5698999762535095,-11.772699356079102
1702218674765681200,72.45668115234375,1.4081000089645386,-5.189300060272217,-7.51609992980957
1702218674825681200,72.51668115234375,3.893199920654297,3.670799970626831,6.535699844360352
1702218674885681200,72.57668115234375,-3.2958998680114746,-9.143499374389648,-0.9836999773979187
1702218674945682700,72.6366826171875,-3.0530998706817627,-1.8042999505996704,-0.14069999754428864
1702218675005682700,72.6966826171875,-4.641200065612793,0.5062000155448914,0.36239999532699585
1702218675065682700,72.7566826171875,1.098099946975708,2.105599880218506,1.3198000192642212
1702218675125682700,72.8166826171875,0.9839999675750732,0.6883999705314636,-1.1663999557495117
1702218675185682700,72.8766826171875,-0.29089999198913574,0.5902000069618225,-2.445199966430664
1702218675245682700,72.9366826171875,10.579999923706055,2.4220998287200928,-4.755000114440918
1702218675305682700,72.9966826171875,0.48659998178482056,0.41029998660087585,-4.085799694061279
1702218675365682700,73.0566826171875,0.676800012588501,-0.8733999729156494,-7.989999771118164
1702218675425682700,73.1166826171875,-0.9030999541282654,1.1187000274658203,-4.316699981689453
1702218675485681200,73.17668115234375,-1.4448999166488647,-7.148499965667725,-2.7151999473571777
1702218675545681200,73.23668115234375,-0.3089999854564667,-1.2559000253677368,3.367300033569336
1702218675605681200,73.29668115234375,-2.629699945449829,1.2358999252319336,0.7601999640464783
1702218675665681200,73.35668115234375,-3.927299976348877,0.927299976348877,0.33719998598098755
1702218675725682700,73.4166826171875,-3.48580002784729,0.022299999371170998,3.6676998138427734
1702218675785682700,73.4766826171875,-2.2791998386383057,2.809499979019165,7.709699630737305
1702218675845682700,73.5366826171875,3.1113998889923096,2.3646998405456543,-4.08459997177124
1702218675905682700,73.5966826171875,-1.3593999147415161,2.006899833679199,-9.428500175476074
1702218675965682700,73.6566826171875,-2.9442999362945557,-9.230899810791016,1.8493999242782593
1702218676025682700,73.7166826171875,-5.752099990844727,1.5195999145507812,3.7300000190734863
1702218676085681200,73.77668115234376,-1.1891000270843506,-5.36959981918335,-4.698800086975098
1702218676145681200,73.83668115234374,-0.5519999861717224,2.1459999084472656,-0.4431999921798706
1702218676205681200,73.89668115234375,-0.16529999673366547,1.4688999652862549,-0.14999999105930328
1702218676265682700,73.9566826171875,1.0601999759674072,0.8809999823570251,-2.5230000019073486
1702218676325681200,74.01668115234375,0.8853999972343445,1.4952999353408813,-1.385699987411499
1702218676385682700,74.0766826171875,1.3528000116348267,-0.10689999908208847,-1.805400013923645
1702218676445682700,74.1366826171875,3.0806000232696533,-0.9753999710083008,-2.1965999603271484
1702218676505682700,74.1966826171875,1.614799976348877,-0.5597000122070312,-3.245499849319458
1702218676565682700,74.2566826171875,4.760200023651123,-1.7524999380111694,-6.520099639892578
1702218676625682700,74.3166826171875,0.4916999936103821,0.2904999852180481,-3.086599826812744
1702218676685682700,74.3766826171875,-4.275000095367432,-3.4664998054504395,-1.7108999490737915
1702218676745682700,74.4366826171875,-2.569399833679199,-0.9235999584197998,-0.6299999952316284
1702218676805709300,74.49670922851563,-2.5650999546051025,0.7470999956130981,0.9078999757766724
1702218676865682700,74.5566826171875,-2.1507999897003174,1.3601999282836914,1.4233999252319336
1702218676925682700,74.6166826171875,-2.733099937438965,2.4219000339508057,6.068899631500244
1702218676985682700,74.6766826171875,-0.6011999845504761,3.5585999488830566,6.1844000816345215
1702218677045682700,74.7366826171875,5.586299896240234,-0.2709999978542328,-10.352499961853027
1702218677105682700,74.7966826171875,-4.957299709320068,3.4333999156951904,-4.325500011444092
1702218677165682700,74.8566826171875,0.26499998569488525,-14.767499923706055,-7.467499732971191
1702218677225681200,74.91668115234376,-5.46619987487793,2.1205999851226807,6.633599758148193
1702218677285681200,74.97668115234374,-4.233399868011475,-2.231600046157837,-1.6345999240875244
1702218677345681200,75.03668115234375,-1.43149995803833,0.7497000098228455,-3.515199899673462
1702218677405681200,75.09668115234375,3.6745998859405518,1.4241999387741089,0.2939999997615814
1702218677465682700,75.1566826171875,-1.7203999757766724,0.8009999990463257,-2.952699899673462
1702218677525681200,75.21668115234375,-0.2669000029563904,2.31850004196167,-1.621399998664856
1702218677585681200,75.27668115234376,2.799999952316284,0.5583999752998352,-4.272299766540527
1702218677645682700,75.3366826171875,5.550999641418457,-1.7374999523162842,-0.9031999707221985
1702218677705682700,75.3966826171875,3.5774998664855957,2.3417999744415283,0.020399998873472214
1702218677765682700,75.4566826171875,-0.983199954032898,-1.8246999979019165,-8.168399810791016
1702218677825682700,75.5166826171875,-2.5727999210357666,-3.90339994430542,-1.8174999952316284
1702218677885682700,75.5766826171875,0.6186000108718872,-7.228899955749512,-2.436499834060669
1702218677945682700,75.6366826171875,-3.6043999195098877,1.6654999256134033,0.17809998989105225
1702218678005682700,75.6966826171875,-2.5167999267578125,1.9418998956680298,1.62909996509552
1702218678065682700,75.7566826171875,-1.7121999263763428,1.941499948501587,4.8927998542785645
1702218678125681200,75.81668115234375,-1.1291999816894531,1.5085999965667725,5.479799747467041
1702218678185681200,75.87668115234375,0.4113999903202057,1.6354999542236328,-2.2783000469207764
1702218678245681200,75.93668115234375,0.2888999879360199,4.584799766540527,-3.860599994659424
1702218678305682700,75.9966826171875,2.2065000534057617,-5.0278000831604,-6.605799674987793
