time,seconds_elapsed,z,y,x
1702298242287731700,0.038731689453125,-0.6347999572753906,0.18949998915195465,-0.4132999777793884
1702298242347731700,0.098731689453125,0.722000002861023,-0.7866999506950378,-0.906499981880188
1702298242407731700,0.158731689453125,1.0740000009536743,-1.8097999095916748,-2.2149999141693115
1702298242467731700,0.218731689453125,-0.9188999533653259,-1.0449999570846558,0.6597999930381775
1702298242527731700,0.278731689453125,-2.4628000259399414,0.20479999482631683,2.541599988937378
1702298242587731700,0.338731689453125,-1.2077000141143799,0.33809998631477356,3.077399969100952
1702298242647731700,0.398731689453125,-0.21040000021457672,-0.9301999807357788,1.6678999662399292
1702298242707731700,0.458731689453125,0.6725999712944031,-0.6333000063896179,1.9591000080108643
1702298242767731700,0.518731689453125,-0.640999972820282,2.460399866104126,8.829599380493164
1702298242827731700,0.578731689453125,0.36910000443458557,-2.0257999897003174,-2.232599973678589
1702298242887731700,0.638731689453125,-1.2202999591827393,-1.2659000158309937,0.07530000060796738
1702298242947731700,0.698731689453125,-0.15799999237060547,-0.03720000013709068,1.532099962234497
1702298243007731700,0.758731689453125,1.7450999021530151,0.3190999925136566,1.8233999013900757
1702298243067731700,0.818731689453125,0.9858999848365784,1.0749000310897827,2.3134000301361084
1702298243127731700,0.878731689453125,2.3469998836517334,0.21389999985694885,0.9098999500274658
1702298243187731700,0.938731689453125,0.43199998140335083,0.2012999951839447,0.33409997820854187
1702298243247731700,0.998731689453125,0.4357999861240387,-0.043699998408555984,0.3392999768257141
1702298243307731700,1.058731689453125,-0.06709999591112137,-0.6553999781608582,-1.1991000175476074
1702298243367731700,1.118731689453125,-0.9799000024795532,-0.2636999785900116,-0.156700000166893
1702298243427731700,1.178731689453125,-0.854699969291687,-0.2830999791622162,-0.14499999582767487
1702298243487731700,1.238731689453125,-0.6930999755859375,0.08179999887943268,-0.6603999733924866
1702298243547731700,1.298731689453125,-1.0242999792099,0.3797999918460846,-0.5076000094413757
1702298243607731700,1.358731689453125,-1.7350000143051147,0.5738999843597412,1.0220999717712402
1702298243667731700,1.418731689453125,-0.6330999732017517,0.7500999569892883,0.15049999952316284
1702298243727731700,1.478731689453125,1.8106999397277832,-0.5579000115394592,0.08249999582767487
1702298243787731700,1.538731689453125,1.473599910736084,-0.0867999941110611,0.8381999731063843
1702298243847731700,1.598731689453125,0.3026999831199646,-0.234499990940094,1.1516000032424927
1702298243907731700,1.658731689453125,-0.3739999830722809,-0.02979999966919422,0.8651999831199646
1702298243967731700,1.718731689453125,-0.11679999530315399,0.01599999889731407,0.034199997782707214
1702298244027731700,1.778731689453125,-0.06189999729394913,0.05959999933838844,-1.0292999744415283
1702298244087731700,1.838731689453125,-2.5329999923706055,1.2746999263763428,-1.8765000104904175
1702298244147731700,1.898731689453125,-4.72029972076416,2.327199935913086,-0.5586000084877014
1702298244207731700,1.958731689453125,-4.709000110626221,1.7903000116348267,-1.5788999795913696
1702298244267731700,2.018731689453125,-1.9512999057769775,0.6804999709129333,-0.36890000104904175
1702298244327731700,2.078731689453125,3.5822999477386475,-0.16290000081062317,-2.231099843978882
1702298244387731700,2.138731689453125,3.4407999515533447,-2.748999834060669,-3.8449997901916504
1702298244447731700,2.198731689453125,2.391700029373169,-3.41729998588562,-4.124599933624268
1702298244507731700,2.258731689453125,1.4341999292373657,-1.8916999101638794,-0.9114999771118164
1702298244567731700,2.318731689453125,1.81059992313385,0.1850999891757965,-0.6958999633789062
1702298244627731700,2.378731689453125,2.713399887084961,0.8393999934196472,-0.7822999954223633
1702298244687731700,2.438731689453125,1.7170000076293945,2.1735999584198,-1.3866000175476074
1702298244747731700,2.498731689453125,1.737899899482727,0.07009999454021454,0.3861999809741974
1702298244807731700,2.558731689453125,-0.03869999945163727,-0.3084000051021576,2.9532999992370605
1702298244867731700,2.618731689453125,0.366599977016449,-0.6857999563217163,0.92249995470047
1702298244927731700,2.678731689453125,1.7634999752044678,0.25679999589920044,-0.995199978351593
1702298244987731700,2.738731689453125,-0.7148999571800232,-2.3367998600006104,0.23179998993873596
1702298245047731700,2.798731689453125,0.5482000112533569,-2.782399892807007,-2.0564000606536865
1702298245107731700,2.858731689453125,0.27549999952316284,-2.648399829864502,-1.2034999132156372
1702298245167731700,2.918731689453125,0.09769999980926514,-4.434000015258789,3.413299798965454
1702298245227731700,2.978731689453125,-0.17679999768733978,-3.102799892425537,1.2214000225067139
1702298245287731700,3.038731689453125,0.20469999313354492,-0.16820000112056732,0.796999990940094
1702298245347731700,3.098731689453125,0.24639999866485596,6.836099624633789,0.5627999901771545
1702298245407731700,3.158731689453125,-1.2259999513626099,3.721400022506714,-0.9649999737739563
1702298245467731700,3.218731689453125,2.0318000316619873,0.7459999918937683,-0.8872999548912048
1702298245527731700,3.278731689453125,-0.2574000060558319,-1.0077999830245972,0.015099999494850636
1702298245587731700,3.338731689453125,-1.1401000022888184,-3.0109000205993652,-1.483699917793274
1702298245647731700,3.398731689453125,2.462599992752075,-3.6658999919891357,1.0927000045776367
1702298245707731700,3.458731689453125,-2.5455000400543213,5.545799732208252,-0.35999998450279236
1702298245767731700,3.518731689453125,0.7392999529838562,-1.380199909210205,1.0947999954223633
1702298245827731700,3.578731689453125,0.19099999964237213,1.2732999324798584,-0.8643999695777893
1702298245887731700,3.638731689453125,0.15410000085830688,0.8901000022888184,0.3141999840736389
1702298245947731700,3.698731689453125,1.0432000160217285,0.8127999901771545,1.2795000076293945
1702298246007731700,3.758731689453125,0.5083999633789062,0.6858999729156494,0.7915999889373779
1702298246067731700,3.818731689453125,-0.334199994802475,-0.6961999535560608,1.465399980545044
1702298246127731700,3.878731689453125,-0.4869000017642975,0.21369999647140503,0.3789999783039093
1702298246187731700,3.938731689453125,-0.30969998240470886,-0.2847999930381775,1.7752999067306519
1702298246247731700,3.998731689453125,-0.23089998960494995,-1.3708000183105469,0.4140999913215637
1702298246307731700,4.058731689453125,1.2259999513626099,-1.0959999561309814,2.2339999675750732
1702298246367731700,4.118731689453125,0.1876000016927719,-0.9990999698638916,2.0249998569488525
1702298246427731700,4.178731689453125,2.35509991645813,0.41579997539520264,-0.3651999831199646
1702298246487731700,4.238731689453125,-0.9035999774932861,-1.2446999549865723,-2.2421000003814697
1702298246547731700,4.298731689453125,1.6883999109268188,6.168299674987793,1.2906999588012695
1702298246607731700,4.358731689453125,-0.39479997754096985,-2.16729998588562,1.3549000024795532
1702298246667731700,4.418731689453125,-4.871299743652344,-1.4559999704360962,1.2869999408721924
1702298246727731700,4.478731689453125,3.8026998043060303,1.8983999490737915,-2.1902999877929688
1702298246787731700,4.538731689453125,-3.219099998474121,-1.5788999795913696,0.30699998140335083
1702298246847731700,4.598731689453125,1.000599980354309,-0.5188999772071838,-0.2483000010251999
1702298246907731700,4.658731689453125,-0.8867999911308289,-0.8865999579429626,-0.08889999985694885
1702298246967731700,4.718731689453125,0.2467999905347824,-0.26350000500679016,-0.04529999941587448
1702298247027731700,4.778731689453125,0.4828999936580658,-0.647599995136261,0.004600000102072954
1702298247087731700,4.838731689453125,2.1735999584198,-0.2175000011920929,-0.2491999864578247
1702298247147731700,4.898731689453125,0.4174000024795532,-1.852199912071228,-1.6003999710083008
1702298247207731700,4.958731689453125,2.14739990234375,-0.3698999881744385,-3.0932998657226562
1702298247267731700,5.018731689453125,0.42489999532699585,-0.10619999468326569,-2.2720999717712402
1702298247327731700,5.078731689453125,-2.653599977493286,1.2822999954223633,-1.1222000122070312
1702298247387731700,5.138731689453125,0.09139999747276306,1.869399905204773,0.19329999387264252
1702298247447731700,5.198731689453125,-1.2493000030517578,1.2958999872207642,-0.16519999504089355
1702298247507731700,5.258731689453125,0.5638999938964844,0.041099999099969864,1.2092000246047974
1702298247567731700,5.318731689453125,-1.4282000064849854,-1.7511999607086182,1.6344999074935913
1702298247627731700,5.378731689453125,-1.442099928855896,-1.1409000158309937,1.1481000185012817
1702298247687731700,5.438731689453125,-0.7965999841690063,-1.3356000185012817,2.8499999046325684
1702298247747731700,5.498731689453125,2.2539000511169434,-0.7428999543190002,0.8023999929428101
1702298247807731700,5.558731689453125,0.4008999764919281,-2.4041998386383057,-3.893899917602539
1702298247867731700,5.618731689453125,-0.7698999643325806,-1.1934999227523804,0.9302999973297119
1702298247927731700,5.678731689453125,-2.8404998779296875,7.777400016784668,-2.3100998401641846
1702298247987731700,5.738731689453125,-2.100600004196167,-1.2470999956130981,1.6744999885559082
1702298248047731700,5.798731689453125,-4.188299655914307,0.7351999878883362,1.6505999565124512
1702298248107731700,5.858731689453125,5.2714996337890625,0.406499981880188,-1.480199933052063
1702298248167731700,5.918731689453125,-4.897500038146973,-1.8176000118255615,1.9462999105453491
1702298248227731700,5.978731689453125,2.2224998474121094,-0.2689000070095062,-1.133099913597107
1702298248287731700,6.038731689453125,1.023900032043457,-1.5089999437332153,-1.7491999864578247
1702298248347731700,6.098731689453125,2.3808000087738037,-1.4864999055862427,-0.038100000470876694
1702298248407731700,6.158731689453125,0.798799991607666,-0.9533999562263489,-0.574999988079071
1702298248467731700,6.218731689453125,2.316499948501587,-1.3925999402999878,-0.06289999932050705
1702298248527731700,6.278731689453125,-1.358199954032898,1.5412999391555786,-1.8446999788284302
1702298248587731700,6.338731689453125,0.35929998755455017,2.131199836730957,-2.0495998859405518
1702298248647731700,6.398731689453125,-0.687999963760376,5.29010009765625,-0.131400004029274
1702298248707731700,6.458731689453125,2.3773999214172363,2.0176000595092773,1.941499948501587
1702298248767731700,6.518731689453125,-2.233099937438965,-1.8671998977661133,4.258599758148193
1702298248827731700,6.578731689453125,-1.3939999341964722,-2.922999858856201,2.4941999912261963
1702298248887731700,6.638731689453125,-0.6608999967575073,-3.5184998512268066,2.9707999229431152
1702298248947731700,6.698731689453125,-1.2501999139785767,-4.0808000564575195,4.263999938964844
1702298249007731700,6.758731689453125,4.870199680328369,10.67770004272461,-4.067299842834473
1702298249067731700,6.818731689453125,4.067399978637695,-5.27869987487793,-1.0325000286102295
1702298249127731700,6.878731689453125,-0.12069999426603317,4.342599868774414,0.6013999581336975
1702298249187731700,6.938731689453125,-4.221199989318848,3.5267999172210693,3.023900032043457
1702298249247731700,6.998731689453125,-3.6165997982025146,-3.1185998916625977,2.8314998149871826
1702298249307731700,7.058731689453125,-2.619499921798706,1.635699987411499,0.7213000059127808
1702298249367731700,7.118731689453125,3.188699960708618,-1.4715999364852905,2.0857999324798584
1702298249427731700,7.178731689453125,0.4728999733924866,-1.5408999919891357,-3.7659997940063477
1702298249487731700,7.238731689453125,1.625100016593933,-2.894899845123291,-0.5759999752044678
1702298249547731700,7.298731689453125,0.6407999992370605,-0.5717999935150146,-0.8018999695777893
1702298249607731700,7.358731689453125,3.4139997959136963,-2.0867998600006104,-1.4340999126434326
1702298249667731700,7.418731689453125,-0.2602999806404114,-1.5342999696731567,0.5848999619483948
1702298249727731700,7.478731689453125,-0.7572000026702881,5.0391998291015625,-4.53249979019165
1702298249787731700,7.538731689453125,-1.9076999425888062,5.941699981689453,-0.7446999549865723
1702298249847731700,7.598731689453125,2.0299999713897705,2.042099952697754,0.660099983215332
1702298249907731700,7.658731689453125,-1.2656999826431274,-2.682999849319458,2.779599905014038
1702298249967731700,7.718731689453125,-2.7365000247955322,-3.6278998851776123,4.155699729919434
1702298250027731700,7.778731689453125,-2.4629998207092285,-3.537400007247925,5.303899765014648
1702298250087731700,7.838731689453125,2.944499969482422,4.351999759674072,0.6700999736785889
1702298250147731700,7.898731689453125,1.9673999547958374,-3.478299856185913,-7.668999671936035
1702298250207731700,7.958731689453125,2.089400053024292,3.5996999740600586,0.004299999680370092
1702298250267731700,8.018731689453125,-4.39169979095459,3.7739999294281006,0.8301999568939209
1702298250327731700,8.078731689453125,-3.2288999557495117,-0.8481000065803528,3.961099863052368
1702298250387731700,8.138731689453126,-4.64709997177124,-2.2841999530792236,-7.816999912261963
1702298250447731700,8.198731689453124,0.946899950504303,-1.1384999752044678,2.099599838256836
1702298250507731700,8.258731689453125,-3.5578999519348145,-0.9818999767303467,0.5081999897956848
1702298250567731700,8.318731689453125,4.928800106048584,-2.7635998725891113,-4.257699966430664
1702298250627731700,8.378731689453126,2.281100034713745,-3.2530999183654785,-2.7682998180389404
1702298250687731700,8.438731689453125,-1.3746999502182007,0.46219998598098755,-0.5748000144958496
1702298250747731700,8.498731689453125,1.663699984550476,-0.8553999662399292,-1.2846999168395996
1702298250807731700,8.558731689453126,-2.278899908065796,-0.6367999911308289,-1.1967999935150146
1702298250867731700,8.618731689453124,-0.7220999598503113,2.751199960708618,-3.374199867248535
1702298250927731700,8.678731689453125,2.1414999961853027,6.666299819946289,0.5378999710083008
1702298250987731700,8.738731689453125,0.8134999871253967,-1.6696999073028564,0.6366999745368958
1702298251047731700,8.798731689453126,-2.8334999084472656,-2.601599931716919,2.61899995803833
1702298251107731700,8.858731689453125,-3.4953999519348145,-2.227799892425537,2.6552999019622803
1702298251167731700,8.918731689453125,-1.0859999656677246,-2.6327998638153076,5.583099842071533
1702298251227731700,8.978731689453125,11.997699737548828,8.782999992370605,2.551100015640259
1702298251287731700,9.038731689453124,-1.6439999341964722,-5.923599720001221,-9.33449935913086
1702298251347731700,9.098731689453125,0.5146999955177307,5.920799732208252,-1.1394000053405762
1702298251407731700,9.158731689453125,-4.269499778747559,1.5748000144958496,0.45799997448921204
1702298251467731700,9.218731689453126,-2.9417998790740967,-0.23849999904632568,3.6011998653411865
1702298251527731700,9.278731689453124,-2.765199899673462,1.6234999895095825,1.996999979019165
1702298251587731700,9.338731689453125,-0.5101000070571899,-1.4874999523162842,2.507699966430664
1702298251647731700,9.398731689453125,-1.5465999841690063,-1.2080999612808228,0.059699997305870056
1702298251707731700,9.458731689453124,6.4741997718811035,-3.114300012588501,-5.572400093078613
1702298251767731700,9.518731689453125,1.8711999654769897,-1.7096999883651733,-1.4780999422073364
1702298251827731700,9.578731689453125,-0.696399986743927,-1.4266999959945679,-1.7223999500274658
1702298251887731700,9.638731689453126,2.68999981880188,-0.6129999756813049,-0.5573999881744385
1702298251947731700,9.698731689453124,0.9150999784469604,2.0648000240325928,-0.9350000023841858
1702298252007731700,9.758731689453125,-1.166700005531311,2.887399911880493,-3.665099859237671
1702298252067731700,9.818731689453125,4.408899784088135,6.562999725341797,0.6539999842643738
1702298252127731700,9.878731689453126,-0.653499960899353,-3.0988998413085938,1.854599952697754
1702298252187731700,9.938731689453125,-3.2769999504089355,-3.1111998558044434,3.0160000324249268
1702298252247731700,9.998731689453125,-2.0541999340057373,-3.10509991645813,3.660399913787842
1702298252307731700,10.058731689453126,-1.9501999616622925,-3.0127999782562256,5.317800045013428
1702298252367731700,10.118731689453124,12.597199440002441,7.925699710845947,-2.19569993019104
1702298252427731700,10.178731689453125,1.161199927330017,-4.611700057983398,-2.338599920272827
1702298252487731700,10.238731689453125,-2.5904998779296875,6.796999931335449,2.0590999126434326
1702298252547731700,10.298731689453126,-4.143199920654297,0.5774999856948853,3.0571999549865723
1702298252607731700,10.358731689453125,-4.689799785614014,-0.18479999899864197,0.06849999725818634
1702298252667731700,10.418731689453125,0.3752000033855438,0.12700000405311584,0.3515999913215637
1702298252727731700,10.478731689453125,0.7099999785423279,-3.138700008392334,2.621500015258789
1702298252787731700,10.538731689453124,2.0683999061584473,-0.7608999609947205,-2.664099931716919
1702298252847731700,10.598731689453125,0.48009997606277466,-2.7019999027252197,-1.9753999710083008
1702298252907731700,10.658731689453125,1.1525999307632446,-0.7807999849319458,-1.076200008392334
1702298252967731700,10.718731689453126,1.1937999725341797,-0.18869999051094055,-0.6570999622344971
1702298253027731700,10.778731689453124,-0.8317999839782715,0.9369999766349792,-2.2807998657226562
1702298253087731700,10.838731689453125,1.0643999576568604,0.28919997811317444,-2.7853000164031982
1702298253147731700,10.898731689453125,-0.320499986410141,8.728899955749512,-1.661199927330017
1702298253207731700,10.958731689453124,1.7041000127792358,-0.4057999849319458,1.6698999404907227
1702298253267731700,11.018731689453125,-2.337100028991699,-3.589399814605713,3.743799924850464
1702298253327731700,11.078731689453125,-2.4245998859405518,-2.556999921798706,2.2660999298095703
1702298253387731700,11.138731689453126,-1.1225999593734741,-4.265199661254883,4.5295000076293945
1702298253447731700,11.198731689453124,8.404399871826172,10.052000045776367,2.3748998641967773
1702298253507731700,11.258731689453125,2.424099922180176,-5.870800018310547,-7.018599987030029
1702298253567731700,11.318731689453125,-5.4863996505737305,5.7017998695373535,1.117799997329712
1702298253627731700,11.378731689453126,-3.2400999069213867,2.202199935913086,3.026099920272827
1702298253687731700,11.438731689453125,-4.611599922180176,1.4268999099731445,1.7928999662399292
1702298253747731700,11.498731689453125,0.7925999760627747,-0.13769999146461487,-0.8154000043869019
1702298253807731700,11.558731689453126,0.3172000050544739,-3.345899820327759,2.194399833679199
1702298253867731700,11.618731689453124,-4.029099941253662,-1.2477999925613403,-1.1266999244689941
1702298253927731700,11.678731689453125,1.9632999897003174,-2.47409987449646,-1.5856000185012817
1702298253987731700,11.738731689453125,0.6514999866485596,-0.5367000102996826,-1.1575000286102295
1702298254047731700,11.798731689453126,0.06149999797344208,-1.480799913406372,-0.8885999917984009
1702298254107733200,11.858733154296875,0.30959999561309814,-1.2329999208450317,-1.7582999467849731
1702298254167731700,11.918731689453125,1.5378999710083008,1.5230000019073486,-2.0867998600006104
1702298254227731700,11.978731689453125,0.5591999888420105,8.527400016784668,-2.0274999141693115
1702298254287731700,12.038731689453124,1.9107999801635742,1.6476999521255493,0.6079999804496765
1702298254347731700,12.098731689453125,-1.2480000257492065,-2.4378998279571533,3.5247998237609863
1702298254407731700,12.158731689453125,-3.9208998680114746,-2.8722000122070312,2.842599868774414
1702298254467731700,12.218731689453126,-0.682699978351593,-3.1693999767303467,4.913700103759766
1702298254527731700,12.278731689453124,-0.7609999775886536,1.1101999282836914,4.659999847412109
1702298254587731700,12.338731689453125,2.0500998497009277,-1.4847999811172485,-9.108499526977539
1702298254647731700,12.398731689453125,0.019099999219179153,4.622900009155273,-1.2077999114990234
1702298254707731700,12.458731689453124,-2.1159000396728516,2.372299909591675,-0.4163999855518341
1702298254767731700,12.518731689453125,-4.433000087738037,1.3101999759674072,2.5699000358581543
1702298254827731700,12.578731689453125,-2.6245999336242676,1.5311999320983887,2.681299924850464
1702298254887731700,12.638731689453126,2.977599859237671,-1.3632999658584595,0.3992999792098999
1702298254947731700,12.698731689453124,-2.172499895095825,-2.0936999320983887,0.7687000036239624
1702298255007731700,12.758731689453125,0.9587999582290649,-1.7585999965667725,-0.02579999901354313
1702298255067731700,12.818731689453125,2.222599983215332,-0.13849999010562897,-2.3345999717712402
1702298255127731700,12.878731689453126,0.6775999665260315,-0.5004000067710876,-1.6085000038146973
1702298255187731700,12.938731689453125,1.3874999284744263,-0.90829998254776,-2.122999906539917
1702298255247731700,12.998731689453125,-0.5338000059127808,-0.7746999859809875,-1.8305999040603638
1702298255307731700,13.058731689453126,-0.1251000016927719,2.5291998386383057,-2.509899854660034
1702298255367731700,13.118731689453124,1.493299961090088,7.505699634552002,1.6222000122070312
1702298255427731700,13.178731689453125,0.675000011920929,-0.6970999836921692,3.208899974822998
1702298255487731700,13.238731689453125,-2.3153998851776123,-3.086899995803833,4.041299819946289
1702298255547731700,13.298731689453126,-0.6613999605178833,-2.2718000411987305,1.6830999851226807
1702298255607731700,13.358731689453125,-1.1004999876022339,-3.2934999465942383,4.293900012969971
1702298255667731700,13.418731689453125,3.4687998294830322,6.122499942779541,1.3859000205993652
1702298255727731700,13.478731689453125,1.6390999555587769,-3.780399799346924,-13.224899291992188
1702298255787731700,13.538731689453124,-1.9941999912261963,-1.9578999280929565,1.3517999649047852
1702298255847731700,13.598731689453125,-5.5239996910095215,7.480099678039551,1.6713999509811401
1702298255907731700,13.658731689453125,-2.5664000511169434,0.20789998769760132,4.015999794006348
1702298255967731700,13.718731689453126,-1.334399938583374,0.09769999980926514,-0.6040999889373779
1702298256027731700,13.778731689453124,1.3149999380111694,-1.5683000087738037,1.7723000049591064
1702298256087731700,13.838731689453125,-5.154099941253662,-1.0925999879837036,0.5631999969482422
1702298256147731700,13.898731689453125,5.677199840545654,-1.9988999366760254,-2.451900005340576
1702298256207731700,13.958731689453124,2.0035998821258545,-1.0626999139785767,-2.0678000450134277
1702298256267731700,14.018731689453125,0.5965999960899353,-1.2286999225616455,-1.4833999872207642
1702298256327731700,14.078731689453125,0.060499999672174454,-1.1347999572753906,-0.1873999983072281
1702298256387731700,14.138731689453126,0.38040000200271606,1.5169999599456787,-3.998499870300293
1702298256447731700,14.198731689453124,-2.6419999599456787,7.0605998039245605,-1.7437999248504639
1702298256507731700,14.258731689453125,2.9786999225616455,2.9951999187469482,0.996399998664856
1702298256567731700,14.318731689453125,-1.2970999479293823,-3.236599922180176,3.036799907684326
1702298256627731700,14.378731689453126,-1.7204999923706055,-3.172299861907959,2.589599847793579
1702298256687731700,14.438731689453125,-0.42010000348091125,-3.123199939727783,3.928999900817871
1702298256747731700,14.498731689453125,-0.1981000006198883,-2.2547998428344727,3.781799793243408
1702298256807731700,14.558731689453126,9.033899307250977,6.644799709320068,-5.869999885559082
1702298256867731700,14.618731689453124,5.509599685668945,-4.210999965667725,-2.581899881362915
1702298256927731700,14.678731689453125,-5.521199703216553,5.18619966506958,1.4650999307632446
1702298256987731700,14.738731689453125,-0.8818999528884888,1.6828999519348145,3.3469998836517334
1702298257047731700,14.798731689453126,-3.968400001525879,0.7914999723434448,1.6531999111175537
1702298257107731700,14.858731689453125,1.823699951171875,-0.5986999869346619,-1.0681999921798706
1702298257167731700,14.918731689453125,-2.144399881362915,-2.724299907684326,2.2600998878479004
1702298257227731700,14.978731689453125,-2.124500036239624,-0.22759999334812164,1.201799988746643
1702298257287731700,15.038731689453124,1.6359999179840088,-1.8745999336242676,-1.2728999853134155
1702298257347731700,15.098731689453125,2.2460999488830566,-0.606499969959259,-1.0490000247955322
1702298257407731700,15.158731689453125,2.1143999099731445,0.08940000087022781,-1.3263999223709106
1702298257467731700,15.218731689453126,-0.6287999749183655,-1.991499900817871,-2.074699878692627
1702298257527731700,15.278731689453124,-0.10489999502897263,2.467900037765503,-5.00469970703125
1702298257587731700,15.338731689453125,-0.9449999928474426,8.753799438476562,-0.38519999384880066
1702298257647731700,15.398731689453125,1.7418999671936035,1.4426000118255615,1.0746999979019165
1702298257707731700,15.458731689453124,-2.4240000247955322,-2.2009999752044678,3.668299913406372
1702298257767731700,15.518731689453125,-3.906099796295166,-3.1933000087738037,3.4084999561309814
1702298257827731700,15.578731689453125,-1.4347000122070312,-3.161799907684326,5.4842000007629395
1702298257887760000,15.638759765625,-0.4267999827861786,3.2246999740600586,3.504699945449829
1702298257947731700,15.698731689453124,-2.5700998306274414,-3.1392998695373535,-8.306300163269043
1702298258007731700,15.758731689453125,1.5032999515533447,2.4902000427246094,-0.6007999777793884
1702298258067731700,15.818731689453125,-2.1424999237060547,6.283899784088135,0.9165999889373779
1702298258127731700,15.878731689453126,-3.7309999465942383,0.3714999854564667,3.149600028991699
1702298258187731700,15.938731689453125,-2.663599967956543,-0.5185999870300293,1.3336999416351318
1702298258247731700,15.998731689453125,0.07599999755620956,0.8637999892234802,1.223099946975708
1702298258307731700,16.058731689453126,-0.7283999919891357,-2.016200065612793,2.4305999279022217
1702298258367731700,16.118731689453124,-3.642400026321411,-0.5482000112533569,-1.6567000150680542
1702298258427731700,16.178731689453127,4.109899997711182,-2.2797000408172607,-1.9678999185562134
1702298258487731700,16.238731689453125,-0.1679999977350235,-0.45509999990463257,-0.5485000014305115
1702298258547731700,16.298731689453124,1.8823999166488647,-0.5734999775886536,-0.8649999499320984
1702298258607731700,16.358731689453126,-1.4311999082565308,-2.591899871826172,0.41439998149871826
1702298258667731700,16.418731689453125,1.9937999248504639,2.4693000316619873,-2.8408000469207764
1702298258727731700,16.478731689453124,-2.327699899673462,5.877699851989746,-3.982499837875366
1702298258787731700,16.538731689453126,4.733299732208252,2.0683999061584473,-0.376800000667572
1702298258847731700,16.598731689453125,-1.4345999956130981,-2.345099925994873,3.7092998027801514
1702298258907731700,16.658731689453123,-2.056999921798706,-3.432999849319458,3.9550998210906982
1702298258967731700,16.718731689453126,-2.2684998512268066,-3.037400007247925,4.650700092315674
1702298259027731700,16.778731689453124,0.8121999502182007,2.7163000106811523,3.0892999172210693
1702298259087731700,16.838731689453127,2.875499963760376,-1.0943999290466309,-6.021199703216553
1702298259147731700,16.898731689453125,2.3578999042510986,-1.9651999473571777,0.8334999680519104
1702298259207731700,16.958731689453124,0.8479999899864197,8.733099937438965,0.6606000065803528
1702298259267731700,17.018731689453126,-5.172599792480469,0.7741999626159668,2.524199962615967
1702298259327731700,17.078731689453125,-1.5509999990463257,-2.7716000080108643,2.6629998683929443
1702298259387731700,17.138731689453124,-2.4535000324249268,3.198499917984009,1.1277999877929688
1702298259447731700,17.198731689453126,1.916599988937378,-1.921799898147583,2.417799949645996
1702298259507731700,17.258731689453125,-4.9029998779296875,-0.09389999508857727,-1.2603999376296997
1702298259567731700,17.318731689453124,7.161099910736084,-2.658799886703491,-3.5924999713897705
1702298259627731700,17.378731689453126,0.7866999506950378,-1.3625999689102173,-2.179299831390381
1702298259687731700,17.438731689453125,2.594899892807007,-0.2872999906539917,-0.43799999356269836
1702298259747731700,17.498731689453123,-3.099799871444702,-0.37059998512268066,1.4976999759674072
1702298259807731700,17.558731689453126,2.375499963760376,0.5076000094413757,-6.738399982452393
1702298259867731700,17.618731689453124,-1.202299952507019,6.461400032043457,-1.6633999347686768
1702298259927731700,17.678731689453127,2.515899896621704,1.9290999174118042,-0.5412999987602234
1702298259987731700,17.738731689453125,-1.2314000129699707,-2.5951998233795166,2.4375998973846436
1702298260047731700,17.798731689453124,1.9050999879837036,-3.074699878692627,1.6791999340057373
1702298260107731700,17.858731689453126,-3.219599962234497,-3.348599910736084,4.357199668884277
1702298260167731700,17.918731689453125,-2.886899948120117,-1.1545000076293945,6.030600070953369
1702298260227731700,17.978731689453124,3.869499921798706,3.4970998764038086,-2.861799955368042
1702298260287731700,18.038731689453126,3.885499954223633,2.2455999851226807,-0.32850000262260437
1702298260347731700,18.098731689453125,-3.5374999046325684,1.6653999090194702,1.3614000082015991
1702298260407731700,18.158731689453123,-3.1542999744415283,1.2856999635696411,2.694200038909912
1702298260467731700,18.218731689453126,-2.956899881362915,1.974199891090393,2.225100040435791
1702298260527731700,18.278731689453124,-0.13050000369548798,-1.4506999254226685,2.7590999603271484
1702298260587731700,18.338731689453127,1.770900011062622,-0.975600004196167,0.03590000048279762
1702298260647731700,18.398731689453125,0.02449999935925007,-2.765699863433838,-4.951699733734131
1702298260707731700,18.458731689453124,3.2249999046325684,-2.040299892425537,-0.6676999926567078
1702298260767731700,18.518731689453126,-0.8619999885559082,0.07889999449253082,-0.384799987077713
1702298260827731700,18.578731689453125,1.4458999633789062,0.16910000145435333,-2.1482999324798584
1702298260887731700,18.638731689453124,0.15349999070167542,0.13529999554157257,-2.089900016784668
1702298260947731700,18.698731689453126,-0.45669999718666077,2.844599962234497,-2.3413000106811523
1702298261007731700,18.758731689453125,1.1173999309539795,9.34060001373291,1.3950999975204468
1702298261067731700,18.818731689453124,1.7182999849319458,-1.8372999429702759,1.8360999822616577
1702298261127731700,18.878731689453126,-2.0429999828338623,-3.434000015258789,3.9980998039245605
1702298261187731700,18.938731689453125,-2.1233999729156494,-3.3030998706817627,2.5815999507904053
1702298261247731700,18.998731689453123,0.5577999949455261,-2.8996999263763428,4.529399871826172
1702298261307731700,19.058731689453126,8.288800239562988,5.855400085449219,-5.377099990844727
1702298261367731700,19.118731689453124,2.757699966430664,-2.253700017929077,0.6293999552726746
1702298261427731700,19.178731689453127,-3.1698999404907227,4.101200103759766,0.5192999839782715
1702298261487731700,19.238731689453125,-2.3701999187469482,2.276099920272827,0.8315999507904053
1702298261547731700,19.298731689453124,-2.9182000160217285,1.5429999828338623,2.2832999229431152
1702298261607731700,19.358731689453126,1.9976999759674072,0.7859999537467957,-0.8485999703407288
1702298261667731700,19.418731689453125,2.169800043106079,-3.7732999324798584,1.076300024986267
1702298261727731700,19.478731689453124,-2.3743999004364014,-1.1603000164031982,0.8204999566078186
1702298261787731700,19.538731689453126,3.7276999950408936,-2.1464998722076416,-1.878499984741211
1702298261847731700,19.598731689453125,0.8428999781608582,-0.7333999872207642,-1.2960000038146973
1702298261907731700,19.658731689453123,-0.4131999909877777,-0.34129998087882996,-0.9733999967575073
1702298261967731700,19.718731689453126,2.683199882507324,-0.677899956703186,-0.7045999765396118
1702298262027731700,19.778731689453124,-1.246399998664856,-1.771399974822998,-1.6029999256134033
1702298262087731700,19.838731689453127,0.5404999852180481,1.0346999168395996,-3.434799909591675
1702298262147731700,19.898731689453125,-0.12729999423027039,7.531299591064453,-1.0578999519348145
1702298262207731700,19.958731689453124,1.2767999172210693,0.29670000076293945,0.73089998960495
1702298262267731700,20.018731689453126,-1.7409999370574951,-1.7243999242782593,3.458899974822998
1702298262327731700,20.078731689453125,-2.812999963760376,-2.05049991607666,2.744799852371216
1702298262387731700,20.138731689453124,-2.195199966430664,-2.61080002784729,4.411099910736084
1702298262447731700,20.198731689453126,1.9412999153137207,0.7526999711990356,3.979299783706665
1702298262507731700,20.258731689453125,0.8086999654769897,-1.5613999366760254,-6.930299758911133
1702298262567731700,20.318731689453124,0.15609999001026154,2.4057998657226562,-0.44929999113082886
1702298262627731700,20.378731689453126,-2.9094998836517334,4.410699844360352,2.123699903488159
1702298262687731700,20.438731689453125,-3.9761998653411865,1.1138999462127686,3.7233998775482178
1702298262747731700,20.498731689453123,-1.6316999197006226,0.4950999915599823,-0.14919999241828918
1702298262807731700,20.558731689453126,0.7436999678611755,-0.8223999738693237,1.903899908065796
1702298262867731700,20.618731689453124,-0.8030999898910522,-2.219899892807007,1.8492999076843262
1702298262927733200,20.678733154296875,1.8291000127792358,-1.625499963760376,-2.8108999729156494
1702298262987731700,20.738731689453125,0.241799995303154,-1.1941999197006226,-1.522499918937683
1702298263047731700,20.798731689453124,0.7543999552726746,-0.6484000086784363,-1.1672999858856201
1702298263107731700,20.858731689453126,3.4654998779296875,-1.0307999849319458,-1.4235999584197998
1702298263167731700,20.918731689453125,-1.6998000144958496,-1.1455999612808228,-2.6157000064849854
1702298263227731700,20.978731689453124,0.9919999837875366,1.5748000144958496,-3.7630999088287354
1702298263287731700,21.038731689453126,-3.247299909591675,8.449600219726562,-0.8837999701499939
1702298263347731700,21.098731689453125,3.0615999698638916,1.0792999267578125,4.190899848937988
1702298263407731700,21.158731689453123,-1.9184999465942383,-3.469599962234497,4.116199970245361
1702298263467731700,21.218731689453126,-2.33870005607605,-3.2401998043060303,0.555400013923645
1702298263527731700,21.278731689453124,-0.7847999930381775,-4.495899677276611,4.677299976348877
1702298263587731700,21.338731689453127,5.388299942016602,9.246099472045898,2.544100046157837
1702298263647731700,21.398731689453125,3.2651000022888184,-6.658799648284912,-11.925799369812012
1702298263707731700,21.458731689453124,-4.447499752044678,4.859899997711182,-0.5690000057220459
1702298263767731700,21.518731689453126,-3.1793999671936035,2.6826999187469482,4.495299816131592
1702298263827731700,21.578731689453125,-3.012899875640869,0.6688999533653259,3.469099998474121
1702298263887731700,21.638731689453124,-1.12309992313385,0.45399999618530273,0.6656999588012695
1702298263947731700,21.698731689453126,0.830299973487854,-2.7070999145507812,2.079900026321411
1702298264007731700,21.758731689453125,-6.017099857330322,-0.23309999704360962,-1.9835000038146973
1702298264067731700,21.818731689453124,5.216099739074707,-3.060299873352051,-1.587399959564209
1702298264127731700,21.878731689453126,1.4541000127792358,-0.5771999955177307,-1.1948000192642212
1702298264187731700,21.938731689453125,-0.3432999849319458,0.5090000033378601,-0.3182999789714813
1702298264247731700,21.998731689453123,-0.7313999533653259,-0.1607999950647354,-0.7297999858856201
1702298264307731700,22.058731689453126,-1.09089994430542,2.290599822998047,-3.8939998149871826
1702298264367731700,22.118731689453124,4.636600017547607,9.913199424743652,0.583899974822998
1702298264427731700,22.178731689453127,0.38989999890327454,-1.4797999858856201,2.6327998638153076
1702298264487731700,22.238731689453125,-1.6108999252319336,-2.6928999423980713,3.108599901199341
1702298264547731700,22.298731689453124,-1.7418999671936035,-1.4088000059127808,3.1166999340057373
1702298264607731700,22.358731689453126,-0.15709999203681946,-3.517699956893921,4.667299747467041
1702298264667731700,22.418731689453125,1.3454999923706055,5.896899700164795,1.570599913597107
1702298264727731700,22.478731689453124,3.8695998191833496,-5.57289981842041,-7.884699821472168
1702298264787731700,22.538731689453126,-4.328999996185303,-1.5645999908447266,0.5442000031471252
1702298264847731700,22.598731689453125,1.378600001335144,11.10319995880127,0.9099999666213989
1702298264907731700,22.658731689453123,-4.18779993057251,-0.776199996471405,2.9589998722076416
1702298264967731700,22.718731689453126,-3.9605000019073486,1.3401999473571777,2.7177000045776367
1702298265027731700,22.778731689453124,4.113999843597412,-1.034600019454956,1.6895999908447266
1702298265087731700,22.838731689453127,-2.244499921798706,-1.36899995803833,0.5580999851226807
1702298265147731700,22.898731689453125,8.648499488830566,-3.1545000076293945,-5.142199993133545
1702298265207731700,22.958731689453124,0.5568999648094177,-0.7190999984741211,-1.0465999841690063
1702298265267731700,23.018731689453126,-0.46149998903274536,-0.22369998693466187,-1.1771999597549438
1702298265327731700,23.078731689453125,1.3402999639511108,-0.3303000032901764,-1.7999999523162842
1702298265387731700,23.138731689453124,0.9185000061988831,1.6291999816894531,-2.8362998962402344
1702298265447731700,23.198731689453126,-0.6191999912261963,7.239899635314941,-0.1891999989748001
1702298265507731700,23.258731689453125,3.1178998947143555,1.2623999118804932,1.6150000095367432
1702298265567731700,23.318731689453124,-1.6901999711990356,-3.006700038909912,3.0013999938964844
1702298265627731700,23.378731689453126,-1.1816999912261963,-1.680999994277954,2.5053999423980713
1702298265687731700,23.438731689453125,-0.9228000044822693,-2.421999931335449,4.557199954986572
1702298265747731700,23.498731689453123,0.9750999808311462,0.15189999341964722,3.5464999675750732
1702298265807731700,23.558731689453126,3.9435999393463135,-0.4643999934196472,-8.503600120544434
1702298265867731700,23.618731689453124,4.111599922180176,-0.33219999074935913,0.8799999952316284
1702298265927731700,23.678731689453127,-4.826299667358398,5.415800094604492,1.4614999294281006
1702298265987731700,23.738731689453125,-1.1797000169754028,1.8808000087738037,2.3153998851776123
1702298266047731700,23.798731689453124,-2.6584999561309814,0.08349999785423279,3.0074000358581543
1702298266107731700,23.858731689453126,1.4975999593734741,-0.30879998207092285,2.2797999382019043
1702298266167731700,23.918731689453125,-2.9066998958587646,-0.3271999955177307,1.4900000095367432
1702298266227731700,23.978731689453124,1.256500005722046,-1.365899920463562,-0.7121999859809875
1702298266287731700,24.038731689453126,3.5576999187469482,-1.7203999757766724,-3.2072999477386475
1702298266347731700,24.098731689453125,0.501800000667572,0.7364000082015991,-1.4194999933242798
1702298266407731700,24.158731689453123,2.2918999195098877,0.08240000158548355,-1.9327999353408813
1702298266467731700,24.218731689453126,1.6073999404907227,-2.1205999851226807,-3.415299892425537
1702298266527731700,24.278731689453124,1.205199956893921,2.592099905014038,-2.2876999378204346
1702298266587731700,24.338731689453127,-0.11009999364614487,8.472299575805664,-0.1826999932527542
1702298266647731700,24.398731689453125,3.009500026702881,-0.33559998869895935,2.262699842453003
1702298266707731700,24.458731689453124,-3.3292999267578125,-3.36899995803833,4.006999969482422
1702298266767731700,24.518731689453126,0.33399999141693115,-2.852299928665161,1.305999994277954
1702298266827731700,24.578731689453125,-1.8112999200820923,-3.5734000205993652,4.9328999519348145
1702298266887731700,24.638731689453124,3.534299850463867,8.059399604797363,2.555299997329712
1702298266947731700,24.698731689453126,3.5467000007629395,-5.441999912261963,-7.110299587249756
1702298267007731700,24.758731689453125,-2.7093000411987305,4.513700008392334,-1.0575000047683716
1702298267067731700,24.818731689453124,-1.5053999423980713,2.2976999282836914,1.0994999408721924
1702298267127731700,24.878731689453126,-2.8392999172210693,1.5856999158859253,4.536200046539307
1702298267187731700,24.938731689453125,-2.037299871444702,1.3356000185012817,0.8743999600410461
1702298267247731700,24.998731689453123,4.9456000328063965,-1.913699984550476,1.3461999893188477
1702298267307731700,25.058731689453126,-1.3493999242782593,-1.8423999547958374,-0.7775999903678894
1702298267367731700,25.118731689453124,5.955199718475342,-2.5035998821258545,-4.326900005340576
1702298267427731700,25.178731689453127,1.9537999629974365,-2.248199939727783,-2.5683000087738037
1702298267487731700,25.238731689453125,-2.264899969100952,1.3016999959945679,-0.17880000174045563
1702298267547731700,25.298731689453124,1.8944000005722046,-0.6960999965667725,-1.8085999488830566
1702298267607731700,25.358731689453126,0.43219998478889465,-0.07719999551773071,-1.7059999704360962
1702298267667731700,25.418731689453125,-0.054899998009204865,4.38100004196167,-2.563199996948242
1702298267727731700,25.478731689453124,1.8615999221801758,4.142600059509277,0.7498999834060669
1702298267787731700,25.538731689453126,0.5210999846458435,-1.1943999528884888,3.1562998294830322
1702298267847731700,25.598731689453125,-2.61299991607666,-2.4296998977661133,3.8248000144958496
1702298267907731700,25.658731689453123,0.22190000116825104,-2.1282999515533447,2.7951998710632324
1702298267967731700,25.718731689453126,0.07999999821186066,-3.7243998050689697,4.288099765777588
1702298268027731700,25.778731689453124,9.962299346923828,8.69629955291748,-0.2491999864578247
1702298268087731700,25.838731689453127,4.749799728393555,-4.403899669647217,-3.566200017929077
1702298268147731700,25.898731689453125,-2.6489999294281006,3.7986998558044434,1.4334999322891235
1702298268207731700,25.958731689453124,-1.1543999910354614,0.9466999769210815,0.597000002861023
1702298268267731700,26.018731689453126,-3.3601999282836914,0.9875999689102173,2.0929999351501465
1702298268327731700,26.078731689453125,0.6807000041007996,0.7774999737739563,0.15109999477863312
1702298268387731700,26.138731689453124,-0.680899977684021,-2.0845999717712402,2.431299924850464
1702298268447731700,26.198731689453126,1.034600019454956,-1.4184999465942383,0.9794999957084656
1702298268507731700,26.258731689453125,4.944499969482422,-2.0271999835968018,-3.714900016784668
1702298268567731700,26.318731689453124,2.4724998474121094,-1.4218000173568726,-2.2468998432159424
1702298268627731700,26.378731689453126,0.5256999731063843,-0.12099999934434891,-0.7443999648094177
1702298268687731700,26.438731689453125,0.5160999894142151,0.2953000068664551,-2.155400037765503
1702298268747731700,26.498731689453123,2.1196000576019287,-0.6978999972343445,-3.125699996948242
1702298268807731700,26.558731689453126,-1.3880999088287354,4.265399932861328,-4.679299831390381
1702298268867731700,26.618731689453124,3.9012999534606934,5.285699844360352,2.6842000484466553
1702298268927731700,26.678731689453127,0.16899999976158142,-2.326900005340576,2.061199903488159
1702298268987731700,26.738731689453125,-2.3901000022888184,-3.850399971008301,3.3508999347686768
1702298269047731700,26.798731689453124,-2.687299966812134,-3.305299997329712,3.7483999729156494
1702298269107731700,26.858731689453126,0.10369999706745148,-0.6247000098228455,5.00570011138916
1702298269167731700,26.918731689453125,6.287999629974365,1.6146999597549438,-5.636399745941162
1702298269227731700,26.978731689453124,2.162099838256836,-2.4694998264312744,0.6717000007629395
1702298269287731700,27.038731689453126,-3.2702999114990234,6.709699630737305,1.5471999645233154
1702298269347731700,27.098731689453125,-4.023499965667725,1.4218999147415161,1.6878999471664429
1702298269407731700,27.158731689453123,-1.9743999242782593,-0.3073999881744385,0.31299999356269836
1702298269467733200,27.218733154296874,0.4997999966144562,-0.18609999120235443,1.559999942779541
1702298269527731700,27.278731689453124,-1.473099946975708,-2.5264999866485596,3.862299919128418
1702298269587731700,27.338731689453127,1.9399999380111694,-0.5069999694824219,-3.146699905395508
1702298269647731700,27.398731689453125,3.1129000186920166,-2.009000062942505,-2.50249981880188
1702298269707731700,27.458731689453124,-0.48639997839927673,-0.35359999537467957,-2.319200038909912
1702298269767731700,27.518731689453126,2.9773998260498047,0.05719999969005585,-0.6972999572753906
1702298269827731700,27.578731689453125,-1.6399999856948853,-0.3287999927997589,-0.561199963092804
1702298269887731700,27.638731689453124,-1.0144000053405762,3.947199821472168,-4.056699752807617
1702298269947731700,27.698731689453126,3.447999954223633,7.858799934387207,3.0077998638153076
1702298270007731700,27.758731689453125,0.5852000117301941,-0.5598999857902527,3.602299928665161
1702298270067731700,27.818731689453124,-1.8646999597549438,-2.9291000366210938,3.019199848175049
1702298270127731700,27.878731689453126,-0.4799000024795532,-2.6706998348236084,3.68999981880188
1702298270187731700,27.938731689453125,-0.5597000122070312,-1.9188998937606812,5.685800075531006
1702298270247731700,27.998731689453123,5.742599964141846,5.395599842071533,-1.945099949836731
1702298270307731700,28.058731689453126,1.493299961090088,-7.563499927520752,-6.340399742126465
1702298270367731700,28.118731689453124,-0.7900999784469604,6.174799919128418,-0.40789997577667236
1702298270427731700,28.178731689453127,3.3864998817443848,4.339900016784668,3.5419998168945312
1702298270487731700,28.238731689453125,-1.6058999300003052,3.4930999279022217,6.702899932861328
1702298270547731700,28.298731689453124,-2.2249999046325684,0.5885999798774719,1.938499927520752
1702298270607731700,28.358731689453126,11.779099464416504,-1.0686999559402466,-4.543799877166748
1702298270667731700,28.418731689453125,2.867300033569336,-7.2089996337890625,-1.6607999801635742
1702298270727731700,28.478731689453124,10.629199981689453,-1.9864000082015991,-4.131400108337402
1702298270787731700,28.538731689453126,-0.3797999918460846,-3.5092999935150146,-2.3782999515533447
1702298270847731700,28.598731689453125,-3.0032999515533447,-2.0703999996185303,-1.1929999589920044
1702298270907731700,28.658731689453123,1.9325000047683716,-1.344099998474121,0.2368999868631363
1702298270967731700,28.718731689453126,-0.2019999921321869,1.1352999210357666,-2.054499864578247
1702298271027731700,28.778731689453124,-0.6481999754905701,3.537099838256836,-3.8399999141693115
1702298271087731700,28.838731689453127,1.3150999546051025,8.892399787902832,3.043599843978882
1702298271147731700,28.898731689453125,2.183799982070923,-0.8384999632835388,1.777899980545044
1702298271207731700,28.958731689453124,-5.632400035858154,-3.4103000164031982,4.703499794006348
1702298271267731700,29.018731689453126,2.265199899673462,-3.5676000118255615,-0.18389999866485596
1702298271327731700,29.078731689453125,-1.2590999603271484,-2.6225998401641846,3.4539999961853027
1702298271387731700,29.138731689453124,5.423299789428711,5.6479997634887695,1.2178000211715698
1702298271447731700,29.198731689453126,4.26800012588501,-5.76639986038208,-8.31029987335205
1702298271507731700,29.258731689453125,-5.058000087738037,2.0725998878479004,-1.6478999853134155
1702298271567731700,29.318731689453124,1.4498999118804932,6.990299701690674,-0.16200000047683716
1702298271627731700,29.378731689453126,-3.628000020980835,0.0786999985575676,3.1064999103546143
1702298271687731700,29.438731689453125,-1.799399971961975,0.6049999594688416,2.2978999614715576
1702298271747731700,29.498731689453123,-0.4643999934196472,-0.21899999678134918,3.871500015258789
1702298271807731700,29.558731689453126,1.0295000076293945,-0.48969998955726624,0.8619999885559082
1702298271867731700,29.618731689453124,1.8971999883651733,-2.0588998794555664,-4.654599666595459
1702298271927731700,29.678731689453127,2.544600009918213,-1.2587999105453491,-2.9769999980926514
1702298271987731700,29.738731689453125,0.10589999705553055,-0.9710999727249146,-1.253600001335144
1702298272047731700,29.798731689453124,2.0083999633789062,-1.4222999811172485,-1.626599907875061
1702298272107731700,29.858731689453126,0.8870999813079834,0.7590000033378601,-1.2706999778747559
1702298272167731700,29.918731689453125,-1.200600028038025,3.839099884033203,-3.5612998008728027
1702298272227731700,29.978731689453124,4.327399730682373,4.4532999992370605,0.027499999850988388
1702298272287731700,30.038731689453126,-0.24309998750686646,-1.9128999710083008,3.0546998977661133
1702298272347731700,30.098731689453125,-2.5127999782562256,-3.374499797821045,3.7502999305725098
1702298272407731700,30.158731689453123,-1.2719999551773071,-2.9607999324798584,3.993799924850464
1702298272467731700,30.218731689453126,0.8194999694824219,0.17009998857975006,4.954799652099609
1702298272527731700,30.278731689453124,5.593199729919434,1.9014999866485596,-4.514999866485596
1702298272587731700,30.338731689453127,2.687700033187866,-0.05729999765753746,-2.035599946975708
1702298272647731700,30.398731689453125,-3.6145999431610107,5.475399971008301,0.6704999804496765
1702298272707731700,30.458731689453124,-3.4433000087738037,1.0555999279022217,2.8099000453948975
1702298272767731700,30.518731689453126,-2.802799940109253,1.0418999195098877,1.7519999742507935
1702298272827731700,30.578731689453125,0.37449997663497925,0.14239999651908875,1.7259999513626099
1702298272887731700,30.638731689453124,-0.30320000648498535,-2.688499927520752,1.802299976348877
1702298272947731700,30.698731689453126,-3.710399866104126,-0.47609999775886536,-1.5321999788284302
1702298273007731700,30.758731689453125,2.51419997215271,-1.9643999338150024,-1.6930999755859375
1702298273067731700,30.818731689453124,2.6415998935699463,-1.0286999940872192,-2.1552000045776367
1702298273127731700,30.878731689453126,2.5628998279571533,0.06499999761581421,-1.5521999597549438
1702298273187731700,30.938731689453125,0.0737999975681305,-1.7853999137878418,-0.6100999712944031
1702298273247731700,30.998731689453123,-0.49079999327659607,2.9336998462677,-3.5588998794555664
1702298273307731700,31.058731689453126,1.173200011253357,9.635099411010742,-0.8605999946594238
1702298273367731700,31.118731689453124,2.194999933242798,-0.30730000138282776,1.5932999849319458
1702298273427731700,31.178731689453127,-2.0690999031066895,-4.168600082397461,4.310400009155273
1702298273487731700,31.238731689453125,-2.2035000324249268,-3.5356998443603516,2.7627999782562256
1702298273547731700,31.298731689453124,-0.23349998891353607,-2.6689999103546143,5.318299770355225
1702298273607731700,31.358731689453126,20.9783992767334,13.702399253845215,0.18599998950958252
1702298273667731700,31.418731689453125,2.5937998294830322,-6.817599773406982,-4.877699851989746
1702298273727731700,31.478731689453124,-3.4853999614715576,4.7353997230529785,-1.2069000005722046
1702298273787731700,31.538731689453126,-3.913599967956543,6.2444000244140625,2.18179988861084
1702298273847731700,31.598731689453125,-1.834999918937683,-1.5364999771118164,2.4519999027252197
1702298273907731700,31.658731689453123,-1.6782000064849854,0.5018999576568604,0.8661999702453613
1702298273967731700,31.718731689453126,0.5878999829292297,-2.006999969482422,1.4874999523162842
1702298274027731700,31.778731689453124,-0.32109999656677246,-0.1492999941110611,0.586899995803833
1702298274087731700,31.838731689453127,6.185699939727783,-2.969899892807007,-3.4398000240325928
1702298274147731700,31.898731689453125,1.3357999324798584,-0.8550999760627747,-2.6115000247955322
1702298274207731700,31.958731689453124,2.5067999362945557,0.30300000309944153,-0.9642999768257141
1702298274267731700,32.018731689453126,0.5806999802589417,-0.9544999599456787,-0.25439998507499695
1702298274327731700,32.07873168945312,-0.5144999623298645,2.4321000576019287,-4.13100004196167
1702298274387731700,32.138731689453124,-0.5436999797821045,7.937999725341797,-0.6735999584197998
1702298274447731700,32.198731689453126,3.2883999347686768,1.2170000076293945,1.6704999208450317
1702298274507731700,32.25873168945313,-1.3209999799728394,-2.582399845123291,4.68120002746582
1702298274567731700,32.318731689453124,-3.184499979019165,-3.2132999897003174,4.06850004196167
1702298274627731700,32.378731689453126,-0.4899999797344208,-2.7919998168945312,5.055699825286865
1702298274687731700,32.43873168945313,9.806499481201172,6.9888997077941895,-0.01850000023841858
1702298274747731700,32.49873168945312,3.6880998611450195,-4.8225998878479,-9.029600143432617
1702298274807731700,32.558731689453126,-1.744499921798706,5.455399990081787,1.2835999727249146
1702298274867731700,32.61873168945313,-1.01010000705719,1.5103999376296997,1.9627999067306519
1702298274927731700,32.67873168945312,-3.364499807357788,4.257599830627441,4.0879998207092285
1702298274987731700,32.738731689453125,-1.1663999557495117,0.48489999771118164,0.29490000009536743
1702298275047731700,32.79873168945313,0.3246999979019165,-1.7513999938964844,3.3640999794006348
1702298275107731700,32.85873168945312,0.40230000019073486,-2.7893998622894287,1.0336999893188477
1702298275167731700,32.918731689453125,1.497399926185608,-0.1703999936580658,-5.119499683380127
1702298275227731700,32.97873168945313,4.753299713134766,-2.3107998371124268,-3.3287999629974365
1702298275287731700,33.03873168945312,1.2752000093460083,0.25519999861717224,-1.2188999652862549
1702298275347731700,33.098731689453125,0.05480000004172325,1.604099988937378,0.3084000051021576
1702298275407731700,33.15873168945313,3.909299850463867,0.6141999959945679,-2.062000036239624
1702298275467731700,33.21873168945312,-0.5740000009536743,3.3924999237060547,-2.6793999671936035
1702298275527731700,33.278731689453124,2.812000036239624,5.550899982452393,0.9501999616622925
1702298275587731700,33.33873168945313,1.034500002861023,-2.6754000186920166,1.3335999250411987
1702298275647731700,33.39873168945312,-4.460400104522705,-2.6064000129699707,4.196199893951416
1702298275707731700,33.458731689453124,-1.8191999197006226,-2.779599905014038,4.952499866485596
1702298275767731700,33.518731689453126,1.3667999505996704,-2.082200050354004,4.894199848175049
1702298275827731700,33.57873168945312,9.574600219726562,5.812399864196777,-3.7700998783111572
1702298275887731700,33.638731689453124,4.097399711608887,-0.7337999939918518,-1.642699956893921
1702298275947731700,33.698731689453126,-4.075999736785889,3.6295998096466064,-0.8585999608039856
1702298276007731700,33.75873168945313,-2.7619998455047607,1.1708999872207642,2.05079984664917
1702298276067731700,33.818731689453124,-3.089200019836426,0.7231000065803528,0.9567999839782715
1702298276127731700,33.878731689453126,0.06909999996423721,-0.05350000038743019,1.0246000289916992
1702298276187731700,33.93873168945313,-0.6741999983787537,-2.250999927520752,3.36329984664917
1702298276247731700,33.99873168945312,-3.4054999351501465,-0.34849998354911804,-0.8783999681472778
1702298276307731700,34.058731689453126,3.621299982070923,-1.2716000080108643,-1.9929999113082886
1702298276367731700,34.11873168945313,2.860499858856201,-0.5133000016212463,-0.9978999495506287
1702298276427731700,34.17873168945312,1.6159999370574951,0.28679999709129333,-0.47039997577667236
1702298276487731700,34.238731689453125,-0.10679999738931656,-0.22419999539852142,-0.4388999938964844
1702298276547731700,34.29873168945313,2.2630999088287354,-1.375100016593933,-2.936199903488159
1702298276607731700,34.35873168945312,-1.6765999794006348,5.458600044250488,-5.911599636077881
1702298276667731700,34.418731689453125,4.744699954986572,1.4536999464035034,0.00019999999494757503
1702298276727731700,34.47873168945313,-0.8779999613761902,-2.115299940109253,2.9866998195648193
1702298276787731700,34.53873168945312,-2.686800003051758,-2.7416000366210938,3.4687998294830322
1702298276847731700,34.598731689453125,-1.7095999717712402,-3.466899871826172,4.681999683380127
1702298276907731700,34.65873168945313,-0.8729999661445618,1.8544999361038208,3.9198999404907227
1702298276967731700,34.71873168945312,2.174799919128418,-1.361299991607666,-4.422100067138672
1702298277027731700,34.778731689453124,3.0160000324249268,-0.7701999545097351,-2.9875998497009277
1702298277087731700,34.83873168945313,-2.489799976348877,8.250699996948242,0.37689998745918274
1702298277147731700,34.89873168945312,-3.7311999797821045,-0.9584999680519104,3.250499963760376
1702298277207731700,34.958731689453124,-3.648699998855591,1.8592000007629395,1.754699945449829
1702298277267731700,35.018731689453126,0.16609999537467957,0.9554999470710754,1.548200011253357
1702298277327731700,35.07873168945312,0.8375999927520752,-2.3866000175476074,0.905299961566925
1702298277387731700,35.138731689453124,-3.5932998657226562,-2.027099847793579,-2.475600004196167
1702298277447731700,35.198731689453126,3.673799991607666,-2.5219998359680176,-1.1019999980926514
1702298277507731700,35.25873168945313,0.40230000019073486,-0.013899999670684338,-0.39419999718666077
1702298277567731700,35.318731689453124,1.7877999544143677,0.9770999550819397,-1.9139999151229858
1702298277627731700,35.378731689453126,0.3353999853134155,0.8014000058174133,-1.57669997215271
1702298277687731700,35.43873168945313,-0.3903999924659729,4.093899726867676,-2.7237000465393066
1702298277747731700,35.49873168945312,4.543799877166748,5.18209981918335,0.1241999939084053
1702298277807731700,35.558731689453126,0.4186999797821045,-2.3155999183654785,2.9564998149871826
1702298277867731700,35.61873168945313,-1.5899999141693115,-3.471400022506714,3.573899984359741
1702298277927731700,35.67873168945312,-1.1603999137878418,-2.7802999019622803,3.791299819946289
1702298277987731700,35.738731689453125,0.24469999969005585,-2.23009991645813,5.269599914550781
1702298278047731700,35.79873168945313,12.458799362182617,6.024699687957764,-4.153199672698975
1702298278107731700,35.85873168945312,6.278599739074707,-3.9953999519348145,-1.4052000045776367
1702298278167731700,35.918731689453125,-3.834399938583374,4.500899791717529,1.077799916267395
1702298278227731700,35.97873168945313,-1.8178999423980713,3.169299840927124,2.540799856185913
1702298278287731700,36.03873168945312,-2.823899984359741,0.5194000005722046,2.779099941253662
1702298278347731700,36.098731689453125,-0.5983999967575073,1.7181999683380127,1.302799940109253
1702298278407731700,36.15873168945313,0.1265999972820282,-2.4522998332977295,2.6963999271392822
1702298278467731700,36.21873168945312,1.459299921989441,-1.4638999700546265,-0.282399982213974
1702298278527731700,36.278731689453124,6.061299800872803,-2.334199905395508,-3.972399950027466
1702298278587731700,36.33873168945313,2.2087998390197754,-0.3621000051498413,-2.0957999229431152
1702298278647731700,36.39873168945312,2.337599992752075,-0.40779998898506165,-0.6038999557495117
1702298278707731700,36.458731689453124,0.7497999668121338,-1.0354000329971313,-1.286099910736084
1702298278767731700,36.518731689453126,2.1280999183654785,1.7472000122070312,-2.631899833679199
1702298278827731700,36.57873168945312,-0.06260000169277191,5.3618998527526855,-2.029599905014038
1702298278887731700,36.638731689453124,2.7844998836517334,2.4944000244140625,-0.05429999902844429
1702298278947731700,36.698731689453126,-0.04820000007748604,-1.4340999126434326,3.4911999702453613
1702298279007731700,36.75873168945313,-2.2544000148773193,-2.481099843978882,4.081200122833252
1702298279067731700,36.818731689453124,-0.9529999494552612,-2.8620998859405518,4.786999702453613
1702298279127731700,36.878731689453126,0.7701999545097351,-0.26499998569488525,4.134599685668945
1702298279187731700,36.93873168945313,-0.2800999879837036,-0.36800000071525574,-8.671599388122559
1702298279247731700,36.99873168945312,2.5981998443603516,2.540099859237671,-2.6857998371124268
1702298279307731700,37.058731689453126,-2.4621999263763428,1.5306999683380127,0.701200008392334
1702298279367731700,37.11873168945313,-3.838399887084961,2.1347999572753906,2.662899971008301
1702298279427731700,37.17873168945312,-2.3396999835968018,1.129499912261963,1.6588999032974243
1702298279487731700,37.238731689453125,2.8792998790740967,-0.9193999767303467,1.1024999618530273
1702298279547731700,37.29873168945313,-1.32069993019104,-2.1749000549316406,2.3099000453948975
1702298279607731700,37.35873168945312,1.176800012588501,-0.8700000047683716,-1.4538999795913696
1702298279667731700,37.418731689453125,1.7807999849319458,-1.7924000024795532,-1.7950999736785889
1702298279727731700,37.47873168945313,1.567099928855896,-0.22579999268054962,-0.9223999977111816
1702298279787731700,37.53873168945312,1.5123000144958496,0.5748999714851379,-0.7226999998092651
1702298279847731700,37.598731689453125,0.44359999895095825,-0.5304999947547913,-1.264799952507019
1702298279907731700,37.65873168945313,-0.29319998621940613,2.186499834060669,-2.099599838256836
1702298279967731700,37.71873168945312,2.551800012588501,8.364399909973145,0.33980000019073486
1702298280027731700,37.778731689453124,1.531999945640564,-0.27570000290870667,1.5414999723434448
1702298280087731700,37.83873168945313,-1.1456999778747559,-3.033099889755249,4.113500118255615
1702298280147731700,37.89873168945312,-1.539699912071228,-2.435299873352051,2.613600015640259
1702298280207731700,37.958731689453124,0.13619999587535858,-1.76419997215271,4.51099967956543
1702298280267731700,38.018731689453126,4.700799942016602,7.3541998863220215,-0.4668999910354614
1702298280327731700,38.07873168945312,2.3294999599456787,-3.225299835205078,-3.2193000316619873
1702298280387731700,38.138731689453124,1.7624999284744263,3.2555999755859375,0.5047999620437622
1702298280447731700,38.198731689453126,-1.8939999341964722,5.152299880981445,2.907899856567383
1702298280507731700,38.25873168945313,-3.346299886703491,-0.23339998722076416,1.1936999559402466
1702298280567731700,38.318731689453124,-0.5879999995231628,0.020499998703598976,-0.05389999970793724
1702298280627731700,38.378731689453126,0.8937000036239624,-1.466399908065796,1.685499906539917
1702298280687731700,38.43873168945313,-2.7563998699188232,-0.5015999674797058,2.08870005607605
1702298280747731700,38.49873168945312,5.213099956512451,-0.9447999596595764,-1.961899995803833
1702298280807731700,38.558731689453126,2.165099859237671,-1.4386999607086182,-1.0698999166488647
1702298280867731700,38.61873168945313,0.274399995803833,-0.014800000004470348,-1.5099999904632568
1702298280927731700,38.67873168945312,2.410799980163574,0.017999999225139618,-1.353600025177002
1702298280987731700,38.738731689453125,-0.5913999676704407,-0.06920000165700912,-1.9845999479293823
1702298281047731700,38.79873168945313,0.777899980545044,2.2732999324798584,-2.412400007247925
1702298281107731700,38.85873168945312,2.404399871826172,8.879799842834473,0.9215999841690063
1702298281167731700,38.918731689453125,1.7604999542236328,-1.2668999433517456,1.7924998998641968
1702298281227731700,38.97873168945313,-1.5503000020980835,-3.1180999279022217,3.515199899673462
1702298281287731700,39.03873168945312,-1.3075000047683716,-2.708199977874756,2.711199998855591
1702298281347731700,39.098731689453125,-0.15549999475479126,-2.5978000164031982,4.804100036621094
1702298281407731700,39.15873168945313,11.41349983215332,9.389699935913086,-1.4910999536514282
1702298281467731700,39.21873168945312,4.836999893188477,-1.6626999378204346,-2.504999876022339
1702298281527731700,39.278731689453124,-3.5481998920440674,3.026899814605713,1.2182999849319458
1702298281587731700,39.33873168945313,-4.593100070953369,2.7035999298095703,2.124300003051758
1702298281647731700,39.39873168945312,-2.596099853515625,-0.12129999697208405,-0.281499981880188
1702298281707731700,39.458731689453124,1.872999906539917,-1.5820999145507812,0.25529998540878296
1702298281767731700,39.518731689453126,1.8705999851226807,-2.547299861907959,1.6557999849319458
1702298281827731700,39.57873168945312,3.908399820327759,-0.3504999876022339,-1.0045000314712524
1702298281887731700,39.638731689453124,1.720099925994873,-2.0601999759674072,-1.4332000017166138
1702298281947731700,39.698731689453126,0.7513999938964844,0.2793000042438507,-0.9168999791145325
1702298282007731700,39.75873168945313,0.8188999891281128,0.12209999561309814,-0.995199978351593
1702298282067731700,39.818731689453124,1.5037999153137207,-1.222999930381775,-2.44569993019104
1702298282127731700,39.878731689453126,2.415799856185913,0.053599998354911804,-2.4831998348236084
1702298282187731700,39.93873168945313,-0.4332999885082245,6.643699645996094,-1.2308999300003052
1702298282247731700,39.99873168945312,2.7426998615264893,3.044299840927124,2.3220999240875244
1702298282307731700,40.058731689453126,-0.3929999768733978,-2.0571000576019287,3.741799831390381
1702298282367731700,40.11873168945313,-2.4970998764038086,-3.0134999752044678,3.2124998569488525
1702298282427731700,40.17873168945312,0.5012999773025513,-4.011600017547607,4.041399955749512
1702298282487731700,40.238731689453125,4.475500106811523,4.219599723815918,3.614499807357788
1702298282547731700,40.29873168945313,2.2503998279571533,-5.938299655914307,-6.473199844360352
1702298282607731700,40.35873168945312,-2.9563000202178955,9.174200057983398,0.47119998931884766
1702298282667731700,40.418731689453125,1.3989999294281006,-2.5037999153137207,-0.05590000003576279
1702298282727731700,40.47873168945313,-4.514999866485596,2.4277000427246094,1.3329999446868896
1702298282787731700,40.53873168945312,-0.2839999794960022,1.3679999113082886,1.3468999862670898
1702298282847731700,40.598731689453125,-0.5891000032424927,-1.9931999444961548,2.336899995803833
1702298282907731700,40.65873168945313,0.5988999605178833,-0.9043999910354614,0.4291999936103821
1702298282967731700,40.71873168945312,1.1796000003814697,-0.4634999930858612,-1.0534999370574951
1702298283027731700,40.778731689453124,3.010999917984009,-1.3870999813079834,0.13899999856948853
1702298283087731700,40.83873168945313,1.0921000242233276,0.050200000405311584,-2.3454999923706055
1702298283147731700,40.89873168945312,2.6970999240875244,0.27879998087882996,-0.983299970626831
1702298283207731700,40.958731689453124,0.16200000047683716,1.337399959564209,-2.037400007247925
1702298283267731700,41.018731689453126,0.6861000061035156,-0.4287000000476837,-1.3500999212265015
1702298283327731700,41.07873168945312,0.31439998745918274,5.867099761962891,-0.9949999451637268
1702298283387731700,41.138731689453124,1.6905999183654785,0.8464999794960022,1.7551000118255615
1702298283447731700,41.198731689453126,-0.6710000038146973,-2.671799898147583,3.575399875640869
1702298283507731700,41.25873168945313,-1.1373000144958496,-1.46999990940094,1.7846999168395996
1702298283567731700,41.318731689453124,-0.7500999569892883,-2.1796000003814697,4.352799892425537
1702298283627731700,41.378731689453126,0.06399999558925629,-0.013799999840557575,3.6541998386383057
1702298283687731700,41.43873168945313,2.0130999088287354,0.7239999771118164,-5.277100086212158
1702298283747731700,41.49873168945312,3.9928998947143555,-0.5430999994277954,-1.6917999982833862
1702298283807731700,41.558731689453126,0.23199999332427979,4.947299957275391,2.7714998722076416
1702298283867731700,41.61873168945313,-2.9169998168945312,0.17009998857975006,3.8981997966766357
1702298283927731700,41.67873168945312,-1.7939999103546143,2.3987998962402344,1.6938999891281128
1702298283987731700,41.738731689453125,0.6739999651908875,0.33550000190734863,1.813599944114685
1702298284047731700,41.79873168945313,-0.960599958896637,-1.3289999961853027,1.5295000076293945
1702298284107731700,41.85873168945312,1.2015999555587769,-0.8509999513626099,-0.4235000014305115
1702298284167731700,41.918731689453125,2.9465999603271484,-2.4001998901367188,-2.813499927520752
1702298284227731700,41.97873168945313,2.1784000396728516,-2.0736000537872314,-2.2812998294830322
1702298284287731700,42.03873168945312,2.13349986076355,1.1782000064849854,-0.8348999619483948
1702298284347731700,42.098731689453125,-1.153499960899353,2.3938000202178955,-0.5297999978065491
1702298284407731700,42.15873168945313,5.527299880981445,-0.9214999675750732,-4.462100028991699
1702298284467731700,42.21873168945312,-0.37599998712539673,2.7360999584198,-2.435499906539917
1702298284527731700,42.278731689453124,1.883099913597107,6.732399940490723,2.63100004196167
1702298284587731700,42.33873168945313,1.3561999797821045,-1.8930999040603638,2.1758999824523926
1702298284647731700,42.39873168945312,-2.3685998916625977,-1.9460999965667725,3.4059998989105225
1702298284707731700,42.458731689453124,-0.6017000079154968,-2.6420998573303223,2.796599864959717
1702298284767801900,42.5188017578125,1.0556999444961548,-2.4075000286102295,4.0167999267578125
1702298284827733200,42.57873315429688,3.74399995803833,3.190999984741211,-6.131199836730957
1702298284887731700,42.638731689453124,4.152699947357178,1.2982999086380005,-3.584699869155884
1702298284947731700,42.698731689453126,-3.1855998039245605,2.353299856185913,0.2669000029563904
1702298285007731700,42.75873168945313,-3.3043999671936035,0.06159999966621399,2.6187000274658203
1702298285067731700,42.818731689453124,-3.005499839782715,4.507499694824219,3.2784998416900635
1702298285127731700,42.878731689453126,5.711599826812744,-2.4965999126434326,-0.2150999903678894
1702298285187731700,42.93873168945313,-0.3447999954223633,-3.8295998573303223,0.7827000021934509
1702298285247731700,42.99873168945312,3.260200023651123,-1.4369999170303345,-2.464900016784668
1702298285307731700,43.058731689453126,1.6579999923706055,-0.9535999894142151,0.4876999855041504
1702298285367731700,43.11873168945313,0.8542999625205994,1.1979999542236328,-1.411099910736084
1702298285427731700,43.17873168945312,2.269399881362915,0.30640000104904175,-0.8596999645233154
1702298285487731700,43.238731689453125,0.5317999720573425,-0.8621999621391296,-3.454699993133545
1702298285547731700,43.29873168945313,0.6628999710083008,0.7196999788284302,-2.0394999980926514
1702298285607731700,43.35873168945312,-0.5863999724388123,6.583899974822998,-0.14100000262260437
1702298285667731700,43.418731689453125,2.552799940109253,1.1586999893188477,1.6887999773025513
1702298285727731700,43.47873168945313,-0.8937999606132507,-3.014400005340576,2.8394999504089355
1702298285787731700,43.53873168945312,-1.0210000276565552,-2.1476998329162598,1.209999918937683
1702298285847731700,43.598731689453125,-0.7163999676704407,-1.9740999937057495,3.2179999351501465
1702298285907731700,43.65873168945313,-0.4578999876976013,-1.9291999340057373,4.947499752044678
1702298285967731700,43.71873168945312,10.460599899291992,2.484099864959717,-5.630699634552002
1702298286027731700,43.778731689453124,2.859499931335449,-0.5990999937057495,1.26010000705719
1702298286087731700,43.83873168945313,-3.126199960708618,8.72599983215332,2.1947999000549316
1702298286147731700,43.89873168945312,-3.1712000370025635,-0.689300000667572,2.562199831008911
1702298286207731700,43.958731689453124,-2.9789998531341553,2.2426998615264893,0.6337999701499939
1702298286267731700,44.018731689453126,3.615999937057495,-0.8919999599456787,0.899899959564209
1702298286327731700,44.07873168945312,-1.7143999338150024,-2.0047998428344727,3.599599838256836
1702298286387731700,44.138731689453124,-1.1150000095367432,-0.5586999654769897,-1.3203999996185303
1702298286447731700,44.198731689453126,4.640199661254883,-1.8868999481201172,-2.4803998470306396
1702298286507731700,44.25873168945313,2.344099998474121,-0.3677999973297119,-1.7716999053955078
1702298286567731700,44.318731689453124,2.0867998600006104,-0.017799999564886093,-0.7042999863624573
1702298286627731700,44.378731689453126,1.592099905014038,-0.12719999253749847,-2.614799976348877
1702298286687731700,44.43873168945313,1.5166000127792358,-0.5873000025749207,-0.07979999482631683
1702298286747731700,44.49873168945312,-1.4164999723434448,5.292500019073486,-4.250699996948242
1702298286807731700,44.558731689453126,3.4283998012542725,3.5607998371124268,0.6334999799728394
1702298286867731700,44.61873168945313,0.028599999845027924,-0.8276000022888184,3.0862998962402344
1702298286927731700,44.67873168945312,-2.248800039291382,-2.6980998516082764,3.4731998443603516
1702298286987731700,44.738731689453125,-1.3120999336242676,-1.712499976158142,3.8023998737335205
1702298287047731700,44.79873168945313,0.16409999132156372,-1.365299940109253,4.9965996742248535
1702298287107731700,44.85873168945312,7.74399995803833,6.408599853515625,1.667099952697754
1702298287167731700,44.918731689453125,0.3431999981403351,-7.34589958190918,-7.114500045776367
1702298287227731700,44.97873168945313,-1.2599999904632568,6.196300029754639,-1.1403999328613281
1702298287287731700,45.03873168945312,0.6394000053405762,0.6209999918937683,-0.07959999889135361
1702298287347731700,45.098731689453125,-3.7164998054504395,0.9847999811172485,3.3055999279022217
1702298287407731700,45.15873168945313,0.07589999586343765,1.2160999774932861,1.2448999881744385
1702298287467731700,45.21873168945312,0.24459999799728394,-1.518399953842163,2.0599000453948975
1702298287527731700,45.278731689453124,0.47419998049736023,-0.4869999885559082,1.61899995803833
1702298287587731700,45.33873168945313,1.6904999017715454,-1.0947999954223633,-1.801800012588501
1702298287647731700,45.39873168945312,2.9986000061035156,-1.374400019645691,-1.6713999509811401
1702298287707731700,45.458731689453124,0.9994999766349792,0.23089998960494995,-0.4267999827861786
1702298287767731700,45.518731689453126,2.1888999938964844,0.2825999855995178,-1.416700005531311
1702298287827731700,45.57873168945312,0.352400004863739,-1.0508999824523926,-1.7263000011444092
1702298287887731700,45.638731689453124,-0.2789999842643738,2.769899845123291,-2.8160998821258545
1702298287947731700,45.698731689453126,2.7490999698638916,8.548399925231934,0.6644999980926514
1702298288007731700,45.75873168945313,1.9359999895095825,-0.94159996509552,1.2477999925613403
1702298288067731700,45.818731689453124,-1.3803999423980713,-3.323199987411499,3.6512999534606934
1702298288127731700,45.878731689453126,-1.246399998664856,-2.322200059890747,2.352299928665161
1702298288187731700,45.93873168945313,-1.0339000225067139,-1.9875999689102173,4.406599998474121
1702298288247731700,45.99873168945312,1.1395999193191528,5.3917999267578125,2.9937000274658203
1702298288307731700,46.058731689453126,-0.7598999738693237,-4.639100074768066,-7.240900039672852
1702298288367731700,46.11873168945313,1.678299903869629,4.865699768066406,-0.2721000015735626
1702298288427731700,46.17873168945312,-0.7080000042915344,0.31599998474121094,0.3488999903202057
1702298288487731700,46.238731689453125,-3.9293999671936035,2.756199836730957,3.9983999729156494
1702298288547731700,46.29873168945313,-0.8543999791145325,2.7075998783111572,2.3431999683380127
1702298288607760000,46.358759765625,1.862399935722351,-1.6197999715805054,1.3083000183105469
1702298288667731700,46.418731689453125,-0.7583999633789062,-1.3687999248504639,-0.07249999791383743
1702298288727731700,46.47873168945313,-1.1195999383926392,-1.6571999788284302,-0.4009999930858612
1702298288787731700,46.53873168945312,6.646999835968018,-1.7103999853134155,-2.2595999240875244
1702298288847731700,46.598731689453125,0.7663999795913696,0.5210999846458435,-0.9016000032424927
1702298288907731700,46.65873168945313,3.2072999477386475,0.2939999997615814,-0.48259997367858887
1702298288967731700,46.71873168945312,0.6588000059127808,0.12539999186992645,-2.8748998641967773
1702298289027731700,46.778731689453124,1.0174000263214111,1.9496999979019165,-2.4319000244140625
1702298289087731700,46.83873168945313,0.9469999670982361,8.24839973449707,-0.2433999925851822
1702298289147731700,46.89873168945312,2.3178999423980713,0.861799955368042,1.3727999925613403
1702298289207731700,46.958731689453124,-0.8980000019073486,-2.7129998207092285,3.442199945449829
1702298289267731700,47.018731689453126,-1.5525000095367432,-2.8824000358581543,2.046999931335449
1702298289327731700,47.07873168945312,0.03799999877810478,-2.4621999263763428,4.444499969482422
1702298289387731700,47.138731689453124,0.3824999928474426,4.37529993057251,2.779599905014038
1702298289447731700,47.198731689453126,2.338399887084961,-5.257499694824219,-7.291299819946289
1702298289507731700,47.25873168945313,-1.381600022315979,-0.4490000009536743,-0.10520000010728836
1702298289567731700,47.318731689453124,-1.042699933052063,4.8526997566223145,1.398800015449524
1702298289627733200,47.378733154296874,-2.189300060272217,1.604699969291687,1.7030999660491943
1702298289687731700,47.43873168945313,-1.8322999477386475,0.384799987077713,2.227099895477295
1702298289747731700,47.49873168945312,0.6035000085830688,0.3698999881744385,1.0738999843597412
1702298289807731700,47.558731689453126,-1.3280999660491943,-1.44760000705719,2.4544999599456787
1702298289867731700,47.61873168945313,-0.7315999865531921,-0.37279999256134033,-0.34869998693466187
1702298289927731700,47.67873168945312,3.6438000202178955,-1.525499939918518,-1.2832000255584717
1702298289987731700,47.738731689453125,1.3083999156951904,0.875,-0.7427999973297119
1702298290047731700,47.79873168945313,3.1023998260498047,-0.7652999758720398,-1.436900019645691
1702298290107731700,47.85873168945312,1.708799958229065,-0.7421999573707581,-1.4615999460220337
1702298290167731700,47.918731689453125,2.3767998218536377,0.6162999868392944,-2.755499839782715
1702298290227731700,47.97873168945313,-1.0830999612808228,3.686499834060669,-3.2028000354766846
1702298290287731700,48.03873168945312,4.027199745178223,5.046199798583984,2.0665998458862305
1702298290347731700,48.098731689453125,-0.13939999043941498,-2.5937998294830322,2.901700019836426
1702298290407731700,48.15873168945313,-1.9464999437332153,-1.8535000085830688,3.02810001373291
1702298290467731700,48.21873168945312,-1.4014999866485596,-2.7897000312805176,4.319799900054932
1702298290527731700,48.278731689453124,-0.49729999899864197,-0.9050999879837036,5.481400012969971
1702298290587731700,48.33873168945313,6.250199794769287,2.941200017929077,-4.6113996505737305
1702298290647731700,48.39873168945312,4.989299774169922,-2.8424999713897705,-0.27480000257492065
1702298290707731700,48.458731689453124,-2.7826998233795166,5.837899684906006,3.4529998302459717
1702298290767731700,48.518731689453126,-3.3645999431610107,2.345900058746338,2.001800060272217
1702298290827731700,48.57873168945312,-1.5401999950408936,1.1348999738693237,2.2577998638153076
1702298290887731700,48.638731689453124,0.6466000080108643,0.03319999948143959,1.4639999866485596
1702298290947731700,48.698731689453126,-0.9939000010490417,-1.7279999256134033,2.8643999099731445
1702298291007731700,48.75873168945313,-2.849599838256836,-0.746999979019165,-0.9352999925613403
1702298291067731700,48.818731689453124,5.70389986038208,-2.5281999111175537,-2.8132998943328857
1702298291127731700,48.878731689453126,1.34499990940094,0.16120000183582306,-2.0632998943328857
1702298291187731700,48.93873168945313,1.760599970817566,0.08969999849796295,-0.5888999700546265
1702298291247731700,48.99873168945312,1.6398999691009521,-0.05219999700784683,-2.5391998291015625
1702298291307731700,49.058731689453126,1.4027999639511108,0.6225999593734741,-2.1935999393463135
1702298291367731700,49.11873168945313,-0.0916999951004982,7.0843000411987305,-1.8628000020980835
1702298291427731700,49.17873168945312,3.90939998626709,1.0227999687194824,1.5291999578475952
1702298291487731700,49.238731689453125,-0.8394999504089355,-3.281599998474121,3.4482998847961426
1702298291547731700,49.29873168945313,-2.019700050354004,-3.6875,2.529099941253662
1702298291607731700,49.35873168945312,-0.9110999703407288,-2.640199899673462,4.451399803161621
1702298291667731700,49.418731689453125,2.262500047683716,6.75029993057251,3.628700017929077
1702298291727731700,49.47873168945313,0.04659999907016754,-5.083899974822998,-7.927999973297119
1702298291787731700,49.53873168945312,-1.499400019645691,3.6750998497009277,-1.917799949645996
1702298291847731700,49.598731689453125,0.4169999957084656,6.969399929046631,4.202899932861328
1702298291907731700,49.65873168945313,-3.193499803543091,1.1474000215530396,2.466399908065796
1702298291967731700,49.71873168945312,-0.8813999891281128,-0.5568999648094177,0.630899965763092
1702298292027731700,49.778731689453124,1.6892999410629272,-0.9595999717712402,1.3152999877929688
1702298292087731700,49.83873168945313,-0.7554999589920044,-1.4434999227523804,2.2955000400543213
1702298292147731700,49.89873168945312,2.849299907684326,-0.3206999897956848,-2.2899999618530273
1702298292207731700,49.958731689453124,1.8823999166488647,-1.4958999156951904,-1.6567999124526978
1702298292267731700,50.018731689453126,1.0092999935150146,0.05719999969005585,-1.756500005722046
1702298292327731700,50.07873168945312,2.5346999168395996,-0.8118999600410461,-1.6905999183654785
1702298292387731700,50.138731689453124,-0.7261999845504761,-1.6714999675750732,-1.0684999227523804
1702298292447731700,50.198731689453126,1.086400032043457,3.200699806213379,-3.133699893951416
1702298292507731700,50.25873168945313,0.8657999634742737,9.746500015258789,1.3561999797821045
1702298292567731700,50.318731689453124,3.0669000148773193,-0.9485999941825867,1.5709999799728394
1702298292627731700,50.378731689453126,-1.7400000095367432,-3.015899896621704,3.927299976348877
1702298292687731700,50.43873168945313,-1.74809992313385,-3.302500009536743,2.1706998348236084
1702298292747731700,50.49873168945312,0.07289999723434448,-2.5759999752044678,5.893899917602539
1702298292807731700,50.558731689453126,13.420000076293945,11.680699348449707,0.7168999910354614
1702298292867731700,50.61873168945313,4.359600067138672,-7.0817999839782715,-6.022799968719482
1702298292927731700,50.67873168945312,-4.097399711608887,4.261099815368652,1.0206999778747559
1702298292987731700,50.738731689453125,-1.569700002670288,4.281799793243408,1.448099970817566
1702298293047731700,50.79873168945313,-2.0521998405456543,0.559499979019165,2.3137998580932617
1702298293107731700,50.85873168945312,-1.1167999505996704,0.24799999594688416,1.8357999324798584
1702298293167731700,50.918731689453125,-0.11949999630451202,-1.75,3.4071998596191406
1702298293227731700,50.97873168945313,2.6312999725341797,-0.5156999826431274,-0.33570000529289246
1702298293287731700,51.03873168945312,6.2769999504089355,-2.147199869155884,-4.873600006103516
1702298293347731700,51.098731689453125,2.1693999767303467,-1.0197999477386475,-2.633699893951416
1702298293407731700,51.15873168945313,2.090100049972534,-0.2750999927520752,-0.9776999950408936
1702298293467731700,51.21873168945312,-0.486299991607666,-0.590499997138977,-0.12780000269412994
1702298293527731700,51.278731689453124,2.810499906539917,0.7549999952316284,-1.604599952697754
1702298293587731700,51.33873168945313,1.3227999210357666,6.397500038146973,-5.387399673461914
1702298293647731700,51.39873168945312,2.177799940109253,3.0192999839782715,1.4146000146865845
1702298293707731700,51.458731689453124,-0.11409999430179596,-1.5541999340057373,2.8016998767852783
1702298293767731700,51.518731689453126,-2.9838998317718506,-2.450700044631958,3.8152999877929688
1702298293827731700,51.57873168945312,-2.916599988937378,-2.5441999435424805,4.773200035095215
1702298293887731700,51.638731689453124,-1.0077999830245972,-0.24849998950958252,5.786900043487549
1702298293947731700,51.698731689453126,12.3818998336792,5.143899917602539,0.6762999892234802
1702298294007731700,51.75873168945313,4.171899795532227,-6.8919997215271,-5.376399993896484
1702298294067731700,51.818731689453124,-1.698599934577942,6.420599937438965,-1.992799997329712
1702298294127731700,51.878731689453126,-1.0321999788284302,-0.5184000134468079,1.4816999435424805
1702298294187731700,51.93873168945313,-3.0662999153137207,1.2268999814987183,3.475399971008301
1702298294247731700,51.99873168945312,0.38189998269081116,1.7009999752044678,0.32989999651908875
1702298294307731700,52.058731689453126,0.2369999885559082,-3.210700035095215,1.909500002861023
1702298294367731700,52.11873168945313,-2.985100030899048,-0.8700999617576599,1.2023999691009521
1702298294427731700,52.17873168945312,5.621200084686279,-1.792699933052063,-2.276599884033203
1702298294487731700,52.238731689453125,2.3885998725891113,-0.009999999776482582,-1.7400999069213867
1702298294547731700,52.29873168945313,0.8132999539375305,-0.1021999940276146,-1.2911999225616455
1702298294607731700,52.35873168945312,1.8889999389648438,-0.7143999934196472,-2.983299970626831
1702298294667731700,52.418731689453125,1.273800015449524,1.1973999738693237,-2.01639986038208
1702298294727731700,52.47873168945313,0.8611999750137329,8.49209976196289,-1.5841000080108643
1702298294787731700,52.53873168945312,2.6898000240325928,1.7518999576568604,1.9957998991012573
1702298294847731700,52.598731689453125,0.04259999841451645,-3.080899953842163,3.5425000190734863
1702298294907731700,52.65873168945313,-2.3065998554229736,-2.9243998527526855,2.188499927520752
1702298294967731700,52.71873168945312,0.2583000063896179,-2.6068999767303467,4.343499660491943
1702298295027731700,52.778731689453124,-0.10749999433755875,1.4768999814987183,3.967399835586548
1702298295087731700,52.83873168945313,1.2457000017166138,-2.5105998516082764,-7.659299850463867
1702298295147731700,52.89873168945312,-1.817699909210205,4.069499969482422,-0.2263999879360199
1702298295207731700,52.958731689453124,5.159499645233154,3.1972999572753906,2.8299999237060547
1702298295267731700,53.018731689453126,-5.861499786376953,1.78249990940094,1.6713999509811401
1702298295327731700,53.07873168945312,-0.9872999787330627,2.317999839782715,1.7379999160766602
1702298295387731700,53.138731689453124,0.5462999939918518,-1.3598999977111816,2.2540998458862305
1702298295447731700,53.198731689453126,-0.3164999783039093,-2.2286999225616455,1.5410000085830688
1702298295507731700,53.25873168945313,-0.16849999129772186,-1.0078999996185303,-1.8524999618530273
1702298295567731700,53.318731689453124,4.027899742126465,-0.6464999914169312,-1.319700002670288
1702298295627731700,53.378731689453126,1.92739999294281,0.2897000014781952,-1.1783000230789185
1702298295687731700,53.43873168945313,1.5923999547958374,-0.35749998688697815,-0.9299999475479126
1702298295747731700,53.49873168945312,2.655400037765503,-0.045399997383356094,-1.8895999193191528
1702298295807731700,53.558731689453126,-0.15719999372959137,1.0692999362945557,-1.4153000116348267
1702298295867731700,53.61873168945313,0.14880000054836273,6.714099884033203,-2.384999990463257
1702298295927731700,53.67873168945312,3.540299892425537,1.5712000131607056,0.8440999984741211
1702298295987731700,53.738731689453125,-0.44179999828338623,-2.59089994430542,4.000999927520752
1702298296047731700,53.79873168945313,-1.5132999420166016,-3.0444998741149902,2.4285998344421387
1702298296107731700,53.85873168945312,-0.512499988079071,-1.9810999631881714,4.259599685668945
1702298296167731700,53.918731689453125,2.0160999298095703,2.6168999671936035,3.3726999759674072
1702298296227731700,53.97873168945313,0.6570999622344971,-4.423799991607666,-7.345799922943115
1702298296287731700,54.03873168945312,1.1470999717712402,1.6456999778747559,2.1487998962402344
1702298296347731700,54.098731689453125,-0.15309999883174896,8.81190013885498,3.5247998237609863
1702298296407731700,54.15873168945313,-3.5530998706817627,-1.086400032043457,2.0011000633239746
1702298296467731700,54.21873168945312,-2.647599935531616,0.17499999701976776,0.9039999842643738
1702298296527731700,54.278731689453124,1.4191999435424805,0.16099999845027924,0.7357999682426453
1702298296587731700,54.33873168945313,-0.16249999403953552,-1.5606999397277832,3.1367998123168945
1702298296647731700,54.39873168945312,1.935499906539917,-0.19569998979568481,-1.1251999139785767
1702298296707731700,54.458731689453124,3.272599935531616,-2.0952000617980957,-1.7271000146865845
1702298296767731700,54.518731689453126,2.4405999183654785,-0.10830000042915344,-1.3366999626159668
1702298296827731700,54.57873168945312,2.82069993019104,0.38359999656677246,-0.5828999876976013
1702298296887731700,54.638731689453124,0.7432999610900879,0.3017999827861786,-1.3320999145507812
1702298296947731700,54.698731689453126,1.003999948501587,0.06079999729990959,-3.441499948501587
1702298297007731700,54.75873168945313,-0.1225999966263771,4.949899673461914,-2.1584999561309814
1702298297067731700,54.818731689453124,3.6044998168945312,3.5842998027801514,1.8278999328613281
1702298297127731700,54.878731689453126,-0.6103000044822693,-2.86299991607666,3.2251999378204346
1702298297187731700,54.93873168945313,-2.7888998985290527,-2.928499937057495,2.9793999195098877
1702298297247731700,54.99873168945312,-0.4034000039100647,-2.025899887084961,3.562199831008911
1702298297307731700,55.058731689453126,1.0551999807357788,2.142699956893921,4.325200080871582
1702298297367731700,55.11873168945313,0.14389999210834503,-1.8668999671936035,-8.464099884033203
1702298297427731700,55.17873168945312,2.8411998748779297,1.855799913406372,1.2562999725341797
1702298297487731700,55.238731689453125,-2.1210999488830566,4.77810001373291,3.253700017929077
1702298297547731700,55.29873168945313,-4.157299995422363,0.16200000047683716,0.7858999967575073
1702298297607731700,55.35873168945312,-0.94159996509552,3.3420000076293945,2.080399990081787
1702298297667731700,55.418731689453125,0.4447000026702881,-1.1532999277114868,1.444100022315979
1702298297727731700,55.47873168945313,-0.573199987411499,-1.430299997329712,2.9657998085021973
1702298297787731700,55.53873168945312,-0.14100000262260437,-0.8348999619483948,-0.36809998750686646
1702298297847731700,55.598731689453125,3.685299873352051,-1.313499927520752,-1.289699912071228
1702298297907731700,55.65873168945313,3.4621999263763428,-0.7217999696731567,-1.5698000192642212
1702298297967731700,55.71873168945312,0.917199969291687,0.8154000043869019,-0.18779999017715454
1702298298027731700,55.778731689453124,1.4055999517440796,-0.17799998819828033,-2.1438000202178955
1702298298087731700,55.83873168945313,2.3185999393463135,-0.4899999797344208,-2.1029999256134033
1702298298147731700,55.89873168945312,-1.2215999364852905,4.436399936676025,-3.4846999645233154
1702298298207731700,55.958731689453124,3.6589999198913574,5.466700077056885,2.550299882888794
1702298298267731700,56.018731689453126,0.590999960899353,-1.2947999238967896,2.73829984664917
1702298298327731700,56.07873168945312,-2.065199851989746,-3.3959999084472656,4.304800033569336
1702298298387731700,56.138731689453124,-1.4381999969482422,-2.3389999866485596,3.3051998615264893
1702298298447731700,56.198731689453126,1.1546999216079712,-1.954699993133545,5.049699783325195
1702298298507731700,56.25873168945313,11.837699890136719,9.304699897766113,-1.952199935913086
1702298298567731700,56.318731689453124,4.045199871063232,-5.9415998458862305,-2.912299871444702
1702298298627731700,56.378731689453126,-3.4921998977661133,4.091099739074707,-0.42159998416900635
1702298298687731700,56.43873168945313,-1.9520999193191528,4.59529972076416,2.358299970626831
1702298298747731700,56.49873168945312,-2.438699960708618,-1.4673999547958374,2.2565999031066895
1702298298807731700,56.558731689453126,-1.5951999425888062,2.0181000232696533,1.729200005531311
1702298298867731700,56.61873168945313,2.767400026321411,-1.9774999618530273,3.6858999729156494
1702298298927731700,56.67873168945312,-3.373499870300293,-0.04839999973773956,-1.1139999628067017
1702298298987731700,56.738731689453125,3.753199815750122,-2.194499969482422,-1.4778999090194702
1702298299047731700,56.79873168945313,2.7400999069213867,0.1704999953508377,-1.9681999683380127
1702298299107731700,56.85873168945312,1.1272000074386597,-0.46609997749328613,-2.4674999713897705
1702298299167731700,56.918731689453125,0.8054999709129333,-0.4364999830722809,-1.082800030708313
1702298299227731700,56.97873168945313,0.8064000010490417,2.122799873352051,-1.9163999557495117
1702298299287731700,57.03873168945312,1.0063999891281128,9.339699745178223,-0.607699990272522
1702298299347731700,57.098731689453125,3.0460000038146973,0.06039999797940254,1.927299976348877
1702298299407731700,57.15873168945313,-1.396399974822998,-3.265199899673462,3.474299907684326
1702298299467731700,57.21873168945312,-1.212899923324585,-1.8357999324798584,2.1905999183654785
1702298299527731700,57.278731689453124,-0.08339999616146088,-3.1036999225616455,5.31279993057251
1702298299587731700,57.33873168945313,-1.5235999822616577,2.935299873352051,4.042699813842773
1702298299647731700,57.39873168945312,2.387699842453003,-4.0578999519348145,-7.515699863433838
1702298299707731700,57.458731689453124,-3.9375,4.020299911499023,1.535499930381775
1702298299767731700,57.518731689453126,1.3281999826431274,2.639400005340576,0.3912999927997589
1702298299827731700,57.57873168945312,-4.329099655151367,1.8532999753952026,2.1798999309539795
1702298299887731700,57.638731689453124,-0.7206999659538269,1.5090999603271484,1.733799934387207
1702298299947731700,57.698731689453126,0.19370000064373016,-1.3277000188827515,3.0605998039245605
1702298300007731700,57.75873168945313,-2.6877999305725098,-0.9607999920845032,0.24799999594688416
1702298300067731700,57.818731689453124,5.713299751281738,-1.928299903869629,-2.3680999279022217
1702298300127731700,57.878731689453126,2.7995998859405518,-1.681999921798706,-1.3086999654769897
1702298300187733200,57.93873315429688,-1.6687999963760376,0.5318999886512756,-0.34919998049736023
1702298300247731700,57.99873168945312,3.769699811935425,0.13109999895095825,0.30379998683929443
1702298300307731700,58.058731689453126,0.06300000101327896,-0.23249998688697815,-1.4656000137329102
1702298300367731700,58.11873168945313,-0.6331999897956848,4.645400047302246,-3.7688000202178955
1702298300427731700,58.17873168945312,3.9701998233795166,5.3389997482299805,2.5200998783111572
1702298300487731700,58.238731689453125,0.041999999433755875,-2.0937998294830322,2.361799955368042
1702298300547731700,58.29873168945313,-0.7324999570846558,-2.25819993019104,2.599599838256836
1702298300607731700,58.35873168945312,-1.6477999687194824,-2.212100028991699,4.132999897003174
1702298300667731700,58.418731689453125,-0.3236999809741974,-0.2685000002384186,5.481499671936035
1702298300727731700,58.47873168945313,13.033100128173828,4.036499977111816,-3.473099946975708
1702298300787731700,58.53873168945312,1.3710999488830566,-3.9839999675750732,-3.1111998558044434
1702298300847731700,58.598731689453125,-0.30969998240470886,4.613399982452393,0.9048999547958374
1702298300907731700,58.65873168945313,-3.8521997928619385,3.360999822616577,1.8361999988555908
1702298300967731700,58.71873168945312,-2.1786999702453613,-0.5027999877929688,3.1267998218536377
1702298301027731700,58.778731689453124,-0.5123000144958496,3.2279000282287598,1.4541999101638794
1702298301087731700,58.83873168945313,2.268399953842163,-1.994499921798706,2.0764999389648438
1702298301147731700,58.89873168945312,-1.39329993724823,-1.0786999464035034,1.0749000310897827
1702298301207731700,58.958731689453124,5.849299907684326,-1.4329999685287476,-3.708899974822998
1702298301267731700,59.018731689453126,2.0743000507354736,-1.4693999290466309,-1.9124000072479248
1702298301327731700,59.07873168945312,0.44279998540878296,0.21069999039173126,-0.663100004196167
1702298301387731700,59.138731689453124,2.8406999111175537,-0.08989999443292618,-0.673799991607666
1702298301447731700,59.198731689453126,-0.7798999547958374,-1.6856999397277832,-0.4359000027179718
1702298301507731700,59.25873168945313,1.0264999866485596,3.0985000133514404,-2.4099998474121094
1702298301567731700,59.318731689453124,4.197199821472168,10.10260009765625,0.9122999906539917
1702298301627731700,59.378731689453126,1.5674999952316284,-0.5895000100135803,1.5453999042510986
1702298301687731700,59.43873168945313,-0.3084000051021576,-2.990499973297119,3.25849986076355
1702298301747731700,59.49873168945312,-1.503999948501587,-1.8388999700546265,2.551300048828125
1702298301807731700,59.558731689453126,1.4679999351501465,-2.282899856567383,5.522799968719482
1702298301867731700,59.61873168945313,2.1073999404907227,7.951999664306641,1.5751999616622925
1702298301927731700,59.67873168945312,3.1830999851226807,-6.065899848937988,-5.975100040435791
1702298301987731700,59.738731689453125,-1.086300015449524,5.065700054168701,0.5113999843597412
1702298302047731700,59.79873168945313,0.2621999979019165,2.9828999042510986,0.23469999432563782
1702298302107731700,59.85873168945312,-3.3178999423980713,0.7252999544143677,2.372799873352051
1702298302167731700,59.918731689453125,-0.051899999380111694,1.708400011062622,0.6363999843597412
1702298302227731700,59.97873168945313,0.311599999666214,-1.2209999561309814,1.8345999717712402
1702298302287731700,60.03873168945312,-0.9174000024795532,-1.167699933052063,2.653599977493286
1702298302347731700,60.098731689453125,2.672600030899048,-0.6679999828338623,-1.8229999542236328
1702298302407731700,60.15873168945313,2.7437000274658203,-1.1140999794006348,-0.7060999870300293
1702298302467731700,60.21873168945312,1.4068999290466309,0.7102999687194824,-0.8644999861717224
1702298302527731700,60.278731689453124,3.601099967956543,0.05739999935030937,-1.0259000062942505
1702298302587731700,60.33873168945313,-0.008899999782443047,0.09629999846220016,-2.2914998531341553
1702298302647731700,60.39873168945312,1.795300006866455,0.11710000038146973,-2.372499942779541
1702298302707731700,60.458731689453124,-1.4211000204086304,5.877199649810791,-1.5529999732971191
1702298302767731700,60.518731689453126,4.245899677276611,1.0932999849319458,-0.2903999984264374
1702298302827731700,60.57873168945312,-0.9010999798774719,-2.5628998279571533,3.203399896621704
1702298302887731700,60.638731689453124,-1.9454998970031738,-2.5082998275756836,2.2451999187469482
1702298302947731700,60.698731689453126,-1.7136999368667603,-1.7078999280929565,4.956399917602539
1702298303007731700,60.75873168945313,1.292699933052063,3.929499864578247,4.603699684143066
1702298303067731700,60.818731689453124,-1.4538999795913696,-2.7612998485565186,-5.63700008392334
1702298303127731700,60.878731689453126,2.3817999362945557,2.7049999237060547,-2.6838998794555664
1702298303187731700,60.93873168945313,-2.623999834060669,5.063899993896484,0.7042999863624573
1702298303247731700,60.99873168945312,-3.936199903488159,0.9910999536514282,3.628199815750122
1702298303307731700,61.058731689453126,-2.036900043487549,2.722299814224243,3.513199806213379
1702298303367731700,61.11873168945313,3.8163998126983643,-0.8797999620437622,0.6150000095367432
1702298303427731700,61.17873168945312,-1.2243999242782593,-2.319499969482422,0.508899986743927
1702298303487731700,61.238731689453125,-0.36980000138282776,-1.309499979019165,-0.915399968624115
1702298303547731700,61.29873168945313,3.1203999519348145,-0.8567000031471252,-0.23099999129772186
1702298303607731700,61.35873168945312,1.069100022315979,0.00019999999494757503,-1.267799973487854
1702298303667731700,61.418731689453125,1.655900001525879,-0.06279999762773514,-1.4204000234603882
1702298303727731700,61.47873168945313,2.402400016784668,0.1882999986410141,-2.7079999446868896
1702298303787731700,61.53873168945312,1.8624999523162842,1.532599925994873,-0.7257999777793884
1702298303847731700,61.598731689453125,0.5514000058174133,7.759999752044678,-1.4622999429702759
1702298303907731700,61.65873168945313,3.2072999477386475,1.7776999473571777,1.4758999347686768
1702298303967760000,61.718759765625,-0.5579000115394592,-2.5490000247955322,4.032700061798096
1702298304027731700,61.778731689453124,-1.8640999794006348,-3.2570998668670654,2.751999855041504
1702298304087731700,61.83873168945313,0.18649999797344208,-2.647599935531616,4.948899745941162
1702298304147731700,61.89873168945312,1.1632000207901,3.1891000270843506,3.2276999950408936
1702298304207731700,61.958731689453124,1.990899920463562,-3.4056999683380127,-7.706099987030029
1702298304267731700,62.018731689453126,0.4388999938964844,3.246500015258789,0.7810999751091003
1702298304327731700,62.07873168945312,-0.9267999529838562,2.9888999462127686,3.309000015258789
1702298304387731700,62.138731689453124,-4.360300064086914,3.0175998210906982,-0.3244999945163727
1702298304447731700,62.198731689453126,-0.5357999801635742,2.008699893951416,1.9900999069213867
1702298304507731700,62.25873168945313,-0.2012999951839447,-0.0729999989271164,2.4038000106811523
1702298304567731700,62.318731689453124,-0.462799996137619,-0.6891999840736389,3.096599817276001
1702298304627731700,62.378731689453126,-1.0691999197006226,-1.281999945640564,0.7021999955177307
1702298304687731700,62.43873168945313,6.48259973526001,-2.3745999336242676,-4.133599758148193
1702298304747731700,62.49873168945312,1.4056999683380127,-0.705299973487854,-1.542799949645996
1702298304807731700,62.558731689453126,2.2321999073028564,-0.014099999330937862,-1.1266000270843506
1702298304867731700,62.61873168945313,1.5519999265670776,-0.42499998211860657,-2.044999837875366
1702298304927731700,62.67873168945312,2.64139986038208,-1.1324999332427979,-2.7826998233795166
1702298304987731700,62.738731689453125,-0.3644999861717224,5.3094000816345215,-4.905999660491943
1702298305047731700,62.79873168945313,4.237400054931641,6.310699939727783,2.2934000492095947
1702298305107731700,62.85873168945312,-0.10289999842643738,-1.9000999927520752,3.0090999603271484
1702298305167731700,62.918731689453125,-2.5676000118255615,-2.0397000312805176,2.561800003051758
1702298305227731700,62.97873168945313,-4.575900077819824,-2.1016998291015625,5.723099708557129
1702298305287731700,63.03873168945312,2.3698999881744385,1.1783000230789185,7.655599594116211
1702298305347731700,63.098731689453125,0.07449999451637268,-3.8356997966766357,-10.474899291992188
1702298305407731700,63.15873168945313,3.8566999435424805,0.14499999582767487,3.1606998443603516
1702298305467731700,63.21873168945312,-1.6337999105453491,9.077499389648438,3.10509991645813
1702298305527731700,63.278731689453124,-3.1331000328063965,1.70989990234375,1.1165999174118042
1702298305587731700,63.33873168945313,-2.4858999252319336,2.809499979019165,2.8487000465393066
1702298305647731700,63.39873168945312,0.3698999881744385,-0.616100013256073,1.4617999792099
1702298305707731700,63.458731689453124,-3.1238999366760254,-1.7347999811172485,4.006700038909912
1702298305767731700,63.518731689453126,3.3759000301361084,-0.8779000043869019,-2.2386999130249023
1702298305827731700,63.57873168945312,2.8167998790740967,-2.8720998764038086,-1.3535000085830688
1702298305887731700,63.638731689453124,1.5417999029159546,0.42559999227523804,-1.9660999774932861
1702298305947731700,63.698731689453126,2.278599977493286,0.30570000410079956,-0.46609997749328613
1702298306007731700,63.75873168945313,1.5643999576568604,-1.0501999855041504,-0.6987999677658081
1702298306067731700,63.818731689453124,1.7310999631881714,1.6202999353408813,-2.558500051498413
1702298306127731700,63.878731689453126,-0.2296999990940094,5.901599884033203,-1.761799931526184
1702298306187731700,63.93873168945313,4.987599849700928,1.6388999223709106,-0.3752000033855438
1702298306247731700,63.99873168945312,-0.2744999825954437,-1.5220999717712402,3.109999895095825
1702298306307731700,64.05873168945313,-1.8436999320983887,-2.5627999305725098,3.3055999279022217
1702298306367731700,64.11873168945313,-1.3386999368667603,-3.4495999813079834,5.438799858093262
1702298306427731700,64.17873168945313,0.8222999572753906,2.1420998573303223,4.553100109100342
1702298306487731700,64.23873168945312,0.5717999935150146,-0.925599992275238,-6.2500996589660645
1702298306547731700,64.29873168945312,3.1238999366760254,1.1935999393463135,-0.19509999454021454
1702298306607731700,64.35873168945312,-2.1338999271392822,6.828099727630615,1.5032999515533447
1702298306667731700,64.41873168945312,-3.5037999153137207,0.9420999884605408,2.4774999618530273
1702298306727731700,64.47873168945313,-2.3276000022888184,1.88510000705719,2.629999876022339
1702298306787731700,64.53873168945313,1.104599952697754,0.503600001335144,1.7457998991012573
1702298306847731700,64.59873168945313,-0.887999951839447,-1.7592999935150146,2.220900058746338
1702298306907731700,64.65873168945312,-0.7870999574661255,-1.017199993133545,-0.5828999876976013
1702298306967731700,64.71873168945312,7.423699855804443,-2.192699909210205,-3.0279998779296875
1702298307027731700,64.77873168945312,1.0412999391555786,-0.18150000274181366,-1.2121999263763428
1702298307087731700,64.83873168945313,2.0226998329162598,0.5878999829292297,-0.013399999588727951
1702298307147731700,64.89873168945313,0.28200000524520874,0.70169997215271,-1.8280999660491943
1702298307207731700,64.95873168945313,2.8408000469207764,0.9138999581336975,-2.952199935913086
1702298307267731700,65.01873168945312,-0.4728999733924866,5.220099925994873,-1.830399990081787
1702298307327731700,65.07873168945312,3.4029998779296875,1.9591000080108643,0.37689998745918274
1702298307387731700,65.13873168945312,-0.4341000020503998,-2.0755999088287354,3.3969998359680176
1702298307447731700,65.19873168945313,-2.512399911880493,-1.6167999505996704,3.6748998165130615
1702298307507731700,65.25873168945313,-1.9114999771118164,-2.700899839401245,4.830699920654297
1702298307567731700,65.31873168945313,0.644599974155426,4.757999897003174,4.373499870300293
1702298307627731700,65.37873168945312,-1.3661999702453613,-4.355000019073486,-5.570699691772461
1702298307687731700,65.43873168945312,0.507099986076355,1.2741999626159668,2.506199836730957
1702298307747731700,65.49873168945312,-0.36980000138282776,8.103400230407715,0.9307999610900879
1702298307807731700,65.55873168945313,-4.463299751281738,0.271699994802475,2.1325998306274414
1702298307867731700,65.61873168945313,-2.0140998363494873,1.737899899482727,1.7799999713897705
1702298307927731700,65.67873168945313,2.7863998413085938,-1.0062999725341797,1.340499997138977
1702298307987731700,65.73873168945312,-0.5899999737739563,-2.1280999183654785,2.6696999073028564
1702298308047731700,65.79873168945312,1.7031999826431274,-0.7077999711036682,-1.8991999626159668
1702298308107731700,65.85873168945312,3.461699962615967,-1.7460999488830566,-1.2218999862670898
1702298308167731700,65.91873168945312,1.0108000040054321,0.2962999939918518,-0.14839999377727509
1702298308227731700,65.97873168945313,0.32909998297691345,1.420799970626831,-0.4154999852180481
1702298308287731700,66.03873168945313,1.4763000011444092,1.135200023651123,-3.121699810028076
1702298308347731700,66.09873168945313,2.671599864959717,0.7418000102043152,-0.26249998807907104
1702298308407731700,66.15873168945312,-0.6060999631881714,6.0046000480651855,-0.06199999898672104
1702298308467731700,66.21873168945312,2.776700019836426,0.8109999895095825,1.1905999183654785
1702298308527731700,66.27873168945312,-0.20979999005794525,-2.6088998317718506,3.3098998069763184
1702298308587731700,66.33873168945313,-1.062999963760376,-2.434299945831299,1.9002000093460083
1702298308647731700,66.39873168945313,-0.5974000096321106,-1.455399990081787,4.173999786376953
1702298308707731700,66.45873168945313,0.5273999571800232,0.4477999806404114,4.44980001449585
1702298308767731700,66.51873168945312,5.224299907684326,1.9025999307632446,-6.042799949645996
1702298308827731700,66.57873168945312,5.095399856567383,1.712999939918518,0.8613999485969543
1702298308887731700,66.63873168945312,-2.9911999702453613,3.0580999851226807,1.107100009918213
1702298308947731700,66.69873168945313,-2.877699851989746,2.991299867630005,4.565499782562256
1702298309007731700,66.75873168945313,-1.0067999362945557,2.048099994659424,2.2739999294281006
1702298309067731700,66.81873168945313,2.344399929046631,-1.0885000228881836,1.1866999864578247
1702298309127731700,66.87873168945312,-0.4799000024795532,-1.9226999282836914,0.8978999853134155
1702298309187731700,66.93873168945312,0.5654999613761902,-1.5120999813079834,-1.427899956703186
1702298309247731700,66.99873168945312,5.045599937438965,-2.13349986076355,-2.392899990081787
1702298309307731700,67.05873168945313,0.6407999992370605,1.0322999954223633,-1.4120999574661255
1702298309367731700,67.11873168945313,2.8264000415802,0.37929999828338623,-0.29760000109672546
1702298309427731700,67.17873168945313,1.4594999551773071,0.26819998025894165,-2.7182998657226562
1702298309487731700,67.23873168945312,0.13179999589920044,1.597499966621399,-1.3848999738693237
1702298309547731700,67.29873168945312,0.702299952507019,7.261899948120117,-1.6595999002456665
1702298309607731700,67.35873168945312,4.236499786376953,0.6972000002861023,0.14429999887943268
1702298309667731700,67.41873168945312,-0.5796999931335449,-2.6678998470306396,3.6933999061584473
1702298309727731700,67.47873168945313,-2.609799861907959,-3.3279998302459717,2.5922999382019043
1702298309787731700,67.53873168945313,-0.6859999895095825,-2.9062998294830322,5.595699787139893
1702298309847731700,67.59873168945313,3.7216999530792236,6.570999622344971,4.518599987030029
1702298309907731700,67.65873168945312,-0.058799996972084045,-6.093800067901611,-7.921999931335449
1702298309967731700,67.71873168945312,-0.1559000015258789,2.570499897003174,-0.6468999981880188
1702298310027731700,67.77873168945312,-1.5126999616622925,9.161699295043945,4.035399913787842
1702298310087731700,67.83873168945313,-2.7472000122070312,1.7898999452590942,2.812700033187866
1702298310147731700,67.89873168945313,-2.012399911880493,1.2142999172210693,2.4846999645233154
1702298310207731700,67.95873168945313,0.8905999660491943,0.14800000190734863,1.7446999549865723
1702298310267731700,68.01873168945312,-0.7651999592781067,-1.8978999853134155,2.318699836730957
1702298310327731700,68.07873168945312,2.890699863433838,-1.4728999137878418,-1.8542999029159546
1702298310387731700,68.13873168945312,2.753199815750122,-1.9241999387741089,-1.4581999778747559
1702298310447731700,68.19873168945313,-0.7601999640464783,0.6804999709129333,-0.5347999930381775
1702298310507731700,68.25873168945313,2.4974000453948975,0.09829999506473541,-0.8287999629974365
1702298310567731700,68.31873168945313,1.570599913597107,-1.0604000091552734,-2.347899913787842
1702298310627731700,68.37873168945312,0.8414999842643738,2.586899995803833,-2.2939000129699707
1702298310687731700,68.43873168945312,1.0784000158309937,8.02400016784668,0.33869999647140503
1702298310747731700,68.49873168945312,2.871799945831299,-0.10740000009536743,1.70579993724823
1702298310807731700,68.55873168945313,-0.8571999669075012,-2.253000020980835,4.151700019836426
1702298310867731700,68.61873168945313,-1.4284999370574951,-2.7767999172210693,2.2337000370025635
1702298310927731700,68.67873168945313,0.13930000364780426,-2.6982998847961426,5.11929988861084
1702298310987731700,68.73873168945312,6.30519962310791,7.065899848937988,2.200199842453003
1702298311047731700,68.79873168945312,3.4893999099731445,-4.769499778747559,-10.311200141906738
1702298311107731700,68.85873168945312,-3.8521997928619385,1.3172999620437622,3.5174999237060547
1702298311167731700,68.91873168945312,-1.7716000080108643,4.759799957275391,0.9467999935150146
1702298311227731700,68.97873168945313,-2.803499937057495,2.303299903869629,3.337399959564209
1702298311287731700,69.03873168945313,0.09869999438524246,0.536300003528595,1.0820000171661377
1702298311347731700,69.09873168945313,0.09489999711513519,-1.9361999034881592,2.40559983253479
1702298311407731700,69.15873168945312,-2.5371999740600586,-0.6237999796867371,1.5759999752044678
1702298311467731700,69.21873168945312,5.499899864196777,-1.233299970626831,-2.7438998222351074
1702298311527731700,69.27873168945312,2.460399866104126,-0.7901999950408936,-1.9120999574661255
1702298311587731700,69.33873168945313,-0.17829999327659607,0.3061999976634979,-0.12929999828338623
1702298311647731700,69.39873168945313,1.7578999996185303,-0.0843999981880188,-1.9101999998092651
1702298311707731700,69.45873168945313,0.44669997692108154,0.5482999682426453,-2.9976999759674072
1702298311767731700,69.51873168945312,0.6074999570846558,2.4282000064849854,-1.222000002861023
1702298311827731700,69.57873168945312,2.5779998302459717,8.124799728393555,1.5920000076293945
1702298311887731700,69.63873168945312,1.7519999742507935,-1.4356999397277832,2.333400011062622
1702298311947731700,69.69873168945313,-1.3136999607086182,-2.1778998374938965,3.1294000148773193
1702298312007731700,69.75873168945313,-0.6644999980926514,-2.3036999702453613,2.702699899673462
1702298312067731700,69.81873168945313,-0.025499999523162842,-1.8463999032974243,6.001899719238281
1702298312127731700,69.87873168945312,10.96869945526123,6.030299663543701,-0.5690000057220459
1702298312187731700,69.93873168945312,2.872799873352051,-5.047800064086914,-3.9686999320983887
1702298312247731700,69.99873168945312,-2.6125998497009277,3.499799966812134,-1.986799955368042
1702298312307731700,70.05873168945313,0.15559999644756317,7.571199893951416,1.2721999883651733
1702298312367731700,70.11873168945313,-3.0309998989105225,0.8443999886512756,4.266200065612793
1702298312427731700,70.17873168945313,-2.872799873352051,2.1196999549865723,2.495800018310547
1702298312487731700,70.23873168945312,1.0856999158859253,-0.353300005197525,2.125200033187866
1702298312547731700,70.29873168945312,2.9049999713897705,-1.0448999404907227,1.8629999160766602
1702298312607731700,70.35873168945312,5.5453996658325195,-2.3279998302459717,-4.085000038146973
1702298312667731700,70.41873168945312,2.4883999824523926,-3.1248998641967773,-2.0421998500823975
1702298312727731700,70.47873168945313,-0.674299955368042,0.36419999599456787,0.24859999120235443
1702298312787731700,70.53873168945313,2.302000045776367,-0.26659998297691345,0.43629997968673706
1702298312847731700,70.59873168945313,-0.9711999893188477,-2.3137998580932617,-0.46619999408721924
1702298312907731700,70.65873168945312,1.9758999347686768,4.570099830627441,-5.323699951171875
1702298312967731700,70.71873168945312,2.842399835586548,9.816399574279785,1.4787999391555786
1702298313027731700,70.77873168945312,1.6947999000549316,-0.2653999924659729,2.226799964904785
1702298313087731700,70.83873168945313,-0.8278999924659729,-2.48829984664917,3.9460999965667725
1702298313147731700,70.89873168945313,-0.9080999493598938,-2.1018998622894287,3.414099931716919
1702298313207731700,70.95873168945313,-0.23339998722076416,-1.9893999099731445,5.973099708557129
1702298313267731700,71.01873168945312,1.6976999044418335,7.402400016784668,0.2936999797821045
1702298313327731700,71.07873168945312,3.8573999404907227,-5.478600025177002,-4.957900047302246
1702298313387731700,71.13873168945312,-2.6756999492645264,3.4754998683929443,-0.17289999127388
1702298313447731700,71.19873168945313,0.1841999888420105,7.994499683380127,2.7316999435424805
1702298313507731700,71.25873168945313,-3.2858998775482178,0.025499999523162842,2.2600998878479004
1702298313567731700,71.31873168945313,0.6782999634742737,1.8966999053955078,1.042699933052063
1702298313627731700,71.37873168945312,-0.6384999752044678,-0.3942999839782715,2.4667999744415283
1702298313687731700,71.43873168945312,0.675000011920929,-0.7342000007629395,3.032099962234497
1702298313747731700,71.49873168945312,2.8805999755859375,-1.0282999277114868,-2.705699920654297
1702298313807731700,71.55873168945313,2.1277999877929688,-1.152400016784668,-1.2912999391555786
1702298313867731700,71.61873168945313,0.788599967956543,-0.006799999624490738,-0.5654999613761902
1702298313927731700,71.67873168945313,2.2853000164031982,0.7172999978065491,0.23889999091625214
1702298313987731700,71.73873168945312,0.13409999012947083,-1.962899923324585,-0.3222000002861023
1702298314047731700,71.79873168945312,1.7695999145507812,4.270299911499023,-4.042699813842773
1702298314107731700,71.85873168945312,1.320199966430664,6.082900047302246,0.6712999939918518
1702298314167731700,71.91873168945312,1.9764999151229858,0.9106000065803528,0.6726999878883362
1702298314227731700,71.97873168945313,-0.4285999834537506,-0.48659998178482056,3.594599962234497
1702298314287731700,72.03873168945313,-0.8722999691963196,-2.444000005722046,3.298499822616577
1702298314347731700,72.09873168945313,0.5155999660491943,-2.56499981880188,4.925999641418457
1702298314407731700,72.15873168945312,4.279399871826172,5.55019998550415,-2.560699939727783
1702298314467731700,72.21873168945312,3.2037999629974365,-4.941999912261963,-0.1362999975681305
1702298314527731700,72.27873168945312,-0.9174000024795532,1.3320000171661377,4.1265997886657715
1702298314587731700,72.33873168945313,-0.9767999649047852,12.070699691772461,0.7127000093460083
1702298314647731700,72.39873168945313,-3.77839994430542,-1.4632999897003174,1.6204999685287476
1702298314707731700,72.45873168945313,-2.284299850463867,1.765899896621704,0.9736999869346619
1702298314767731700,72.51873168945312,2.7948999404907227,-0.48569998145103455,0.6401999592781067
1702298314827731700,72.57873168945312,-6.5102996826171875,-0.6629999876022339,3.2941999435424805
1702298314887731700,72.63873168945312,3.974599838256836,-0.6311999559402466,-2.005499839782715
1702298314947731700,72.69873168945313,2.077699899673462,-2.088599920272827,-1.486299991607666
1702298315007731700,72.75873168945313,3.0047998428344727,-0.4520999789237976,-0.583299994468689
1702298315067731700,72.81873168945313,1.2770999670028687,1.0530999898910522,0.09529999643564224
1702298315127731700,72.87873168945312,1.0432000160217285,0.5548999905586243,-1.397499918937683
1702298315187731700,72.93873168945312,0.0819999948143959,-1.5439999103546143,-1.476699948310852
1702298315247731700,72.99873168945312,0.6751999855041504,4.309700012207031,-1.6247999668121338
1702298315307731700,73.05873168945313,1.639699935913086,7.257999897003174,1.5683000087738037
1702298315367731700,73.11873168945313,1.5338999032974243,-1.4789999723434448,1.7924998998641968
1702298315427731700,73.17873168945313,-1.9183999300003052,-1.9144999980926514,2.412899971008301
1702298315487731700,73.23873168945312,-1.4408999681472778,-1.2728999853134155,2.9691998958587646
1702298315547733200,73.29873315429687,-0.8797999620437622,-0.9990999698638916,5.964600086212158
1702298315607731700,73.35873168945312,9.83389949798584,8.497499465942383,1.8752999305725098
1702298315667731700,73.41873168945312,0.16929998993873596,-6.063899993896484,-4.893199920654297
1702298315727731700,73.47873168945313,-2.178799867630005,-1.1546000242233276,2.4704999923706055
1702298315787731700,73.53873168945313,-1.8884999752044678,11.931900024414062,1.0020999908447266
1702298315847731700,73.59873168945313,-2.48009991645813,-0.6351000070571899,2.2822999954223633
1702298315907731700,73.65873168945312,-0.38519999384880066,1.2738999128341675,2.266899824142456
1702298315967731700,73.71873168945312,0.24279999732971191,0.030700000002980232,1.7381999492645264
1702298316027731700,73.77873168945312,-1.9488999843597412,-0.44099998474121094,3.16729998588562
1702298316087731700,73.83873168945313,4.660299777984619,-0.7888999581336975,-2.647199869155884
1702298316147731700,73.89873168945313,3.0483999252319336,-2.5314998626708984,-2.0267999172210693
1702298316207731700,73.95873168945313,-0.8894999623298645,0.9304999709129333,-1.4940999746322632
1702298316267731700,74.01873168945312,3.952899932861328,0.37860000133514404,0.1631999909877777
1702298316327731700,74.07873168945312,-1.7903999090194702,-0.2028999924659729,-1.4915000200271606
1702298316387731700,74.13873168945312,1.525999903678894,1.2062000036239624,-3.6073999404907227
1702298316447731700,74.19873168945313,1.8687999248504639,7.98769998550415,0.10260000079870224
1702298316507731700,74.25873168945313,2.043799877166748,-0.2671000063419342,1.3802999258041382
1702298316567731700,74.31873168945313,-0.8156999945640564,-2.276599884033203,3.973099946975708
1702298316627731700,74.37873168945312,-2.4417998790740967,-0.8499000072479248,1.6459999084472656
1702298316687731700,74.43873168945312,-0.019899999722838402,-1.2181999683380127,5.538300037384033
1702298316747731700,74.49873168945312,2.6038999557495117,3.308799982070923,3.8850998878479004
1702298316807731700,74.55873168945313,1.2213000059127808,-4.8780999183654785,-5.823800086975098
1702298316867731700,74.61873168945313,-1.1964999437332153,6.735599994659424,-2.341899871826172
1702298316927731700,74.67873168945313,5.086599826812744,0.6340999603271484,-0.32999998331069946
1702298316987731700,74.73873168945312,-5.169300079345703,1.5565999746322632,4.026700019836426
1702298317047731700,74.79873168945312,-2.626499891281128,2.7430999279022217,3.3227999210357666
1702298317107731700,74.85873168945312,7.526099681854248,-1.4957000017166138,0.8157999515533447
