time,seconds_elapsed,z,y,x
1705061416295864000,0.121864013671875,-0.017004986163286957,-0.04007797626180108,-0.10392453965386375
1705061416346286000,0.1722861328125,0.04960457795199472,0.05260486487967427,-0.03522074320568936
1705061416396701200,0.222701171875,-0.0828723536091391,0.0747511526043061,0.06999611726405565
1705061416447115300,0.273115234375,-0.292293787666969,0.034103783523291346,0.15204004352530465
1705061416497555000,0.323554931640625,-0.10951990284235216,0.11466768666012211,-0.01002907588619273
1705061416547993000,0.3739931640625,0.055291724776895715,0.044298973224009386,-0.1617204566708766
1705061416598409200,0.4244091796875,0.380584576995112,-0.25491432520756496,-0.47564909824188795
1705061416648824300,0.47482421875,0.37027298980653284,0.08782051406842656,-0.5978756210500374
1705061416699269000,0.52526904296875,-1.508889336081594,-0.14279737334302625,-0.13491893158550372
1705061416749685000,0.57568505859375,1.983894473864138,0.4293400592705235,0.5659491815658286
1705061416800109000,0.626109130859375,-1.8101674078561365,-0.10411161405802703,0.44645073201470076
1705061416850545200,0.676545166015625,-0.4378969482788816,0.2860814707570709,0.6210000741910189
1705061416900961300,0.726961181640625,-0.9940052654404192,2.225285647691786,0.13878165316195226
1705061416951376100,0.777376220703125,0.8902646127197891,3.2017475845918058,1.7691440542027352
1705061417001820200,0.827820068359375,5.438222150295973,1.391363757506013,0.7942566000778227
1705061417052229000,0.87822900390625,-0.13190935623967087,0.45242129432428624,-1.2903707960583268
1705061417102657000,0.928656982421875,2.0927856412157415,2.6364690322965383,-1.2959677392825484
1705061417153080300,0.979080322265625,0.7842102031640708,1.882091511207819,-0.2086066196767613
1705061417203511300,1.02951123046875,0.22816601901361716,1.442724673039466,-0.4581239264126867
1705061417253927200,1.07992724609375,-1.853030836418271,2.4814678556770087,0.4759289015639573
1705061417304372000,1.1303720703125,-1.435809486823529,0.09924232752122916,1.2923375660866498
1705061417354782200,1.1807822265625,-2.1156365015797314,0.18526779313273728,7.401026782119274
1705061417405202200,1.2312021484375,-3.913521058706939,-4.599550727495551,5.836987075093388
1705061417455647200,1.281647216796875,-1.0243608754113316,-2.0984771308556196,2.0784861899673936
1705061417506063000,1.33206298828125,1.8718267223030327,0.29703161157751456,2.0778278721891343
1705061417556478000,1.38247802734375,2.0630419525980948,0.3376362831611186,0.9827429899308829
1705061417606924000,1.432924072265625,-2.4192161282949147,-0.9243998142946511,2.3958989655934273
1705061417657339100,1.483339111328125,-0.6255388866644352,-2.6346236966907974,1.6796484921947121
1705061417707754200,1.533754150390625,0.3644162631349638,-2.529981418955326,0.8497645522881299
1705061417758199300,1.58419921875,0.25530334279146044,-2.0704552975945174,0.030182902018819003
1705061417808616200,1.6346162109375,-0.41259767184946683,-1.5845030877314508,-0.648855099517852
1705061417859042000,1.6850419921875,3.077507456938922,-1.4042308378636836,-0.7786948007434606
1705061417909456100,1.7354560546875,0.20621570595223454,1.8714432759433983,-1.1016903449378908
1705061417959904300,1.785904296875,0.4136059355765581,1.4324332883886992,-1.666854038681835
1705061418010319400,1.8363193359375,-2.310259056100249,0.28402722337469455,-1.3936696963608264
1705061418060751000,1.886751220703125,-5.000376091954112,0.7891668026581407,-1.0205589989103376
1705061418111165000,1.9371650390625,-1.6056772470548748,-0.08780962734823115,-0.33253348012939093
1705061418161611000,1.987611083984375,-0.5423968949342146,1.4840369266368447,-0.25079819512562823
1705061418212025000,2.038025146484375,-0.3340626989906654,1.1865198148310183,-0.3034566761889495
1705061418262451200,2.088451171875,-3.2157486374154685,-1.269249389835447,0.048567170328809875
1705061418312887300,2.13888720703125,-2.9603762845084067,0.09028270293087698,-0.3037697424598038
1705061418363302100,2.18930224609375,-1.833109892026335,0.4249184069033712,-0.6296099354956298
1705061418413717000,2.239717041015625,-0.5312860836593434,0.37895598941259084,-0.4147968258615583
1705061418464161300,2.290161376953125,0.4561216101469472,-0.4662749745665118,-0.0841206366371829
1705061418514577200,2.3405771484375,0.6107167267162352,-1.2285508842222392,0.15085793020180427
1705061418565005000,2.391005126953125,0.14317318438547663,-0.9994343047518283,0.6145840696688741
1705061418615421200,2.441421142578125,1.2027676967334002,-0.36126397311650216,0.9615087709832936
1705061418665866200,2.4918662109375,1.3239137308284639,-1.4002324158772825,1.0513475204057992
1705061418716282000,2.5422822265625,0.037376836677477696,-0.809527307511121,1.0333039872583
1705061418766713000,2.592713134765625,-0.0063162270922330205,-0.05471125800781883,0.8738185778968036
1705061418817128200,2.643128173828125,-0.01795103370010038,0.5587294594453648,0.602970752231963
1705061418867556000,2.69355615234375,-0.8762642174832522,0.8410602906983345,0.07591809119156095
1705061418917990100,2.743990234375,-0.9920570539820939,0.03817420673340093,-0.30328698217784983
1705061418968417300,2.794417236328125,-0.4460250174159184,-0.551364922026731,-0.4144199188405648
1705061419018819000,2.844819091796875,0.21455392897492273,-0.9007450171366334,-0.25316645862692966
1705061419069264100,2.89526416015625,0.4275658892048523,-0.952422159012407,0.11370471424632705
1705061419119680300,2.94568017578125,1.8093445471659302,-0.63055401141271,0.3187683549534529
1705061419170109000,2.99610888671875,1.4049403013072908,-0.9295187647435813,0.28090841550072654
1705061419220540200,3.0465400390625,1.3390719908632338,-0.7218579380169511,0.03600542502668686
1705061419270956000,3.0969560546875,1.6443731806740163,-1.8530524637281893,-0.22597682013995943
1705061419321372200,3.1473720703125,0.24265754050165414,-1.6457188961945473,-0.18909281304730102
1705061419371800000,3.197800048828125,-0.7119245730236172,-1.6235473963968454,-0.0033837566910224267
1705061419422244000,3.248244140625,0.07851424059802666,-1.2025078036881982,0.5253319244952872
1705061419472659200,3.2986591796875,0.6170761056803167,0.3597967501081526,1.358458974508941
1705061419523092000,3.349092041015625,1.0306877403452992,2.3560100227974354,0.3936510523824021
1705061419573507000,3.399507080078125,-1.1542684542413801,2.6963264118880033,-0.2299446643250063
1705061419623951000,3.449951171875,0.2639559289929457,0.7741976354546845,0.7601677949279546
1705061419674367200,3.5003671875,-0.5311795910775661,0.09566635046429,1.7733197324521839
1705061419724775200,3.550775146484375,-1.4358113865196704,0.288642663014587,1.6511001508414744
1705061419775228000,3.601227783203125,-1.09585177497752,-0.8323667696982622,0.9432308445580303
1705061419825642000,3.65164208984375,-1.8333252883426845,-1.1884460336532443,0.9385751277066766
1705061419876057000,3.70205712890625,-0.6872851487424224,-0.34864520496409385,0.6055758201638236
1705061419926504200,3.752504150390625,-0.9163408648710697,0.8086608268748968,0.9534731293700635
1705061419976918300,3.802918212890625,-1.1580448309749365,2.1501089722849427,0.060934959394834
1705061420027348000,3.853347900390625,-1.044767849754542,1.3925995829112827,-0.21812596050910651
1705061420077759000,3.903759033203125,-0.026598453961056655,-0.11223584727016277,0.5782515772454441
1705061420128208100,3.9542080078125,0.40725737026743586,0.8141860200371592,0.5644488965380936
1705061420178656500,4.004656494140625,1.3127522853448985,-0.5169767686041071,0.7944189510326832
1705061420229069600,4.055069580078125,-0.2806973300333135,-2.702753522326052,0.467457206621021
1705061420279510500,4.105510498046875,-0.35704748793262986,-3.3385330133020874,-0.35505119954887776
1705061420329915600,4.15591552734375,0.27352150185350327,-2.73370775577724,-0.7003877183564007
1705061420380362500,4.206362548828125,2.136376653400063,-1.2188735398165882,-1.0097936400722711
1705061420430777600,4.256777587890625,0.5246188443224877,-0.1358185838389676,0.37626258561015125
1705061420481191400,4.30719140625,0.24728264301903544,0.5624940726758911,0.863017124832049
1705061420531636500,4.357636474609375,-0.9054465458910912,-0.12437391923354006,1.6225513710968196
1705061420582040600,4.40804052734375,-1.3501267611019312,-0.8045833483029157,1.7767226727634666
1705061420632467500,4.458467529296875,1.016125473442301,-0.399415899519436,1.4515440854415296
1705061420682913500,4.50891357421875,3.5474364605009554,1.2883404592745005,1.2480788837738335
1705061420733328600,4.55932861328125,-3.35232948346436,-1.0621245696816592,0.4700566119970753
1705061420783743700,4.60974365234375,3.979411873243749,0.7262848876137286,-0.547854831546545
1705061420834183400,4.660183349609375,-0.888199716079235,-0.3295797083577141,0.5469037048341706
1705061420884617500,4.710617431640625,-2.8496754373863338,0.28643886935999613,0.4987597785858437
1705061420935032600,4.761032470703125,-1.1225303769361228,0.4520199104491621,1.1107992418058217
1705061420985464600,4.811464599609375,-1.9698932749100029,1.0498987098369748,1.660305639951676
1705061421035878400,4.86187841796875,-1.3992806681104004,1.0445045957084744,1.1989148937627672
1705061421086293500,4.91229345703125,-0.11895869838492944,-0.47881717035137117,0.5678179711123928
1705061421136739600,4.962739501953125,1.7414546677663922,-0.4912028238676488,-0.4946836151881143
1705061421187172400,5.01317236328125,3.4252243315443396,0.5660112139513716,-1.2913986778013407
1705061421237569500,5.063569580078125,0.9442208054434508,-0.47084023665543645,-2.7849191798374053
1705061421288014300,5.114014404296875,1.9580998151332139,-3.6350332031503316,-3.102984428022802
1705061421338429400,5.164429443359375,3.914944369508326,-5.033650000524521,-1.287219784681499
1705061421388876500,5.21487646484375,2.994927081146836,-2.8552599595203993,0.7564654332786798
1705061421439291400,5.26529150390625,1.2536420708589255,0.6817071294143796,4.0164445498257875
1705061421489706500,5.31570654296875,-5.186403105956316,2.4990251396775243,4.2900443410798905
1705061421540151600,5.366151611328125,-2.576043205167353,1.320468120419234,1.1394932021748274
1705061421590560500,5.416560546875,-3.9742970144480463,-1.9433606572933493,-0.18210903684087096
1705061421640996400,5.466996337890625,-3.2889854308009148,-1.418590787127614,-0.6422130311548709
1705061421691410400,5.517410400390625,-3.3307039271116254,-1.1232373561616986,-0.5935962266977876
1705061421741844500,5.567844482421875,6.030139410930872,5.02857751956582,0.09893446714845486
1705061421792263400,5.618263427734375,-3.3938182626724243,-2.038948983218521,-0.4014515700655058
1705061421842685400,5.668685546875,-1.3654760136641562,-1.4703928705573082,-0.954073214155063
1705061421893118700,5.71911865234375,2.928193093784153,-1.1507520436182617,-0.5870619295582175
1705061421943533300,5.769533203125,0.9643626991096883,-2.915185435912013,-0.09544113600682466
1705061421993979400,5.8199794921875,0.8000074186895042,-2.9974349723145366,0.6510211184453218
1705061422044396300,5.870396240234375,1.716225241702795,-0.43757396340221166,1.0134026243496685
1705061422094809600,5.9208095703125,0.41884237492531534,3.654909577748179,3.0051559219554065
1705061422145254700,5.971254638671875,-4.421566734695435,5.044279531088471,5.994239830031991
1705061422195669500,6.02166943359375,4.310940414114296,-0.2666136952264234,0.4798134148471057
1705061422246084400,6.07208447265625,-1.60122903547436,-0.9535774665273725,-0.4641782214829698
1705061422296529400,6.122529296875,-0.9826896523084491,-0.29041754546631127,0.4431664861796423
1705061422346959600,6.172959716796875,-0.39348395218718796,0.6731648534532636,0.5637362182240933
1705061422397374500,6.22337451171875,-1.3580463020548224,1.1774969157461077,1.0931951960541306
1705061422447788500,6.27378857421875,-0.3977662326162681,0.8296761423747986,0.7251681585434824
1705061422498234600,6.324234619140625,-1.725213288670033,0.6713808926459401,0.9326518751375377
1705061422548636400,6.374636474609375,-0.3469742395445704,0.07977625075732357,-0.15167581332279367
1705061422599081500,6.42508154296875,-2.830461618350446,0.9003944501332938,0.2999786430811509
1705061422649511700,6.47551171875,-0.6304829189378768,0.34290640558376906,0.09203254227288998
1705061422699911700,6.52591162109375,-0.18624688556427135,-0.03581703316498315,1.1536391433618962
1705061422750356500,6.5763564453125,-0.8563840434931218,-0.6997343690142035,0.8442100599661468
1705061422800772400,6.6267724609375,0.0028419300154579104,0.7889702571727335,0.6147784231971949
1705061422851217400,6.677217529296875,-1.6365237823478878,0.2545999072298407,0.894433130576089
1705061422901631500,6.727631591796875,0.37984654504414644,-0.35369149203561245,-0.27309596991781143
1705061422952060400,6.778060302734375,-0.3483977330090478,-0.34947982915733006,-0.022757307178888003
1705061423002492400,6.828492431640625,-0.17357328195208682,0.5531184146305546,0.07993120385701767
1705061423052907500,6.878907470703125,0.23353076091716066,-0.1441173425009474,1.2278281229056418
1705061423103324400,6.929324462890625,-0.3956770052520558,-0.651344505180791,-1.0771488280732184
1705061423153751600,6.97975146484375,0.3906017112817615,0.28499027798688037,-0.022071270276641006
1705061423204167700,7.030167724609375,-0.44860648527648295,0.3167483203679323,0.9562883329212665
1705061423254612500,7.080612548828125,-0.24667978175505995,-0.44492973299250005,0.7455121506530791
1705061423305027600,7.131027587890625,-0.5053587384594604,-0.5774317122299224,0.634787776524946
1705061423355460400,7.18146044921875,-0.15562577479127793,-0.2599453051120974,0.861337647312507
1705061423405869600,7.23186962890625,0.2593500061000697,-0.26318772109942506,0.33115411806758493
1705061423456303600,7.2823037109375,-0.07951904285955243,-0.14995330037912352,0.32482831257954237
1705061423506749400,7.33274951171875,-0.0017699422713587409,0.1755981205768883,0.38093861459717154
1705061423557164500,7.38316455078125,0.0809758814712055,-0.5360558918770403,0.31944428145363923
1705061423607580400,7.433580322265625,-0.19598165924558414,0.018085472593083976,0.5380216024594381
1705061423658011400,7.484011474609375,-0.18596547480700537,0.006039164287343737,0.6024140316646546
1705061423708426500,7.534426513671875,0.173410109013319,-0.2658147634010762,0.415488497920148
1705061423758871600,7.58487158203125,-0.27398829738134517,0.026390517148666547,0.2895237566980533
1705061423809286700,7.63528662109375,-0.5842965199654921,-0.04498875928618945,0.40521749847028404
1705061423859726300,7.685726318359375,0.2884494419974275,-0.425260754067637,0.20800622436450794
1705061423910129700,7.736129638671875,-0.278509263670817,-0.4437846180779859,0.25980295576564966
1705061423960575500,7.786575439453125,0.3314242767784744,-0.28174541431413963,0.1540174262791872
1705061424010977500,7.8369775390625,-0.17685915348865092,0.014164796584588475,0.6344556219611317
1705061424061422600,7.887422607421875,-0.10313552643433213,-0.699590722759813,0.009663039602374192
1705061424111836400,7.93783642578125,-0.10839588551479391,-0.1310707956568338,0.2916987991821952
1705061424162265600,7.988265625,-0.2873594000047073,-0.3876951031200587,0.7770138619191944
1705061424212681500,8.038681396484375,-0.08609814725522882,-0.735885367390886,0.8365212590292096
1705061424263127600,8.08912744140625,0.9493850563388317,0.3690784462597221,0.2540515891646966
1705061424313528600,8.139528564453125,0.4367595052141696,-0.25710198971126225,0.4026935694832355
1705061424363968500,8.189968505859374,1.1527305040843785,-0.498705454582721,0.6924597749013454
1705061424414388500,8.240388427734375,-0.7769780599534512,0.575700102664344,1.4984671646580099
1705061424464817400,8.2908173828125,-2.127031609688699,-0.03157982028691331,0.8601795633185655
1705061424515248600,8.34124853515625,-1.1149494933530688,0.06186789286339189,-0.2929594485014677
1705061424565664500,8.39166455078125,0.5000504029182717,0.6408356053218245,1.1584660520616918
1705061424616093400,8.442093505859376,-1.317046037016064,-4.871154376496374,-1.3446909997887908
1705061424666508500,8.492508544921876,0.48279889693129807,1.8874670667663216,-0.6547329785753041
1705061424716953600,8.54295361328125,-1.5812673206806183,0.5815124056722969,2.054002759965509
1705061424767369500,8.593369384765625,-1.973718824547529,-1.335266753361374,-0.39339740641489623
1705061424817783600,8.643783447265625,1.5831317993782459,-1.497769537782669,0.00964260302747716
1705061424868216600,8.694216552734375,0.4089942405300215,-0.08649279999546707,1.0692006455477328
1705061424918660400,8.744660400390625,0.2710315664676018,0.2695787921097129,1.1049185132041572
1705061424969076500,8.795076416015625,-0.6012590894758701,-0.12510310115776954,-0.0123798151472467
1705061425019490600,8.845490478515625,-0.5242565503487363,-0.08559739465885795,1.4275211125582457
1705061425069937400,8.8959375,-0.8046928730919957,-0.05484702691643033,0.3593830182081088
1705061425120352500,8.9463525390625,0.458123341890797,0.49269930950310076,-0.26640472865086046
1705061425170813400,8.9968134765625,0.09267679499317891,-0.5828269223369658,-0.06880472008897923
1705061425221259300,9.04725927734375,-1.6224546327240763,-1.3337133864395319,1.6682554299123584
1705061425271673000,9.097673095703126,-0.05537093205952551,-1.9962407452180981,0.25121939794607456
1705061425322090500,9.148090576171874,-0.6323214594766497,-0.15478618216197937,-0.18471209547873585
1705061425372538400,9.198538330078126,3.160608641734719,1.1152620664335786,2.057127029465884
1705061425422963500,9.24896337890625,2.8022894168332217,0.16106842250293119,-2.0994318012319506
1705061425473378300,9.29937841796875,-2.0268366667509077,-1.9810934449687598,1.6189143297687172
1705061425523810300,9.349810302734374,0.6675043434735387,-2.573741650226712,1.7422573624514042
1705061425574226400,9.400226318359374,-1.0425894828021525,-2.3786478249326346,0.5806389473060145
1705061425624660200,9.45066015625,0.7485322291266173,1.860023617915064,-0.5254366269787774
1705061425675086300,9.50108642578125,0.45578182026594877,-0.5280360688874498,1.2812405641414224
1705061425725514500,9.551514404296874,-0.8029867998264729,-2.0774647379651663,3.3989126632019877
1705061425775915300,9.601915283203125,0.3117137602668255,-0.19876995652355253,1.674638408947736
1705061425826361300,9.652361328125,-0.27550067470567297,1.7255115409642456,-0.3170591764153913
1705061425876776200,9.702776123046876,0.569785508325696,0.98486780006513,-2.2255933984667062
1705061425927203300,9.753203369140625,-6.111185124501586,1.835294688719511,0.9280210735317319
1705061425977638100,9.80363818359375,0.2917894731403328,-0.41428752463255075,0.9629775283616036
1705061426028052200,9.85405224609375,-0.1560446943230927,2.4742455032080413,-0.5244161248246207
1705061426078468400,9.90446826171875,0.634766952932626,-1.9401196295455096,-1.0042170820489524
1705061426128900400,9.954900390625,0.16812679831553248,3.4587928391471503,1.4591810100607574
1705061426179342300,10.00534228515625,-0.6215053933646529,2.6792048889562485,2.0088941828250886
1705061426229757200,10.055757080078125,-0.19352922459216787,-2.1743990716718136,1.2335342255927622
1705061426280183300,10.106183349609376,-0.40111594490297137,1.8820619928523896,1.1573400437064467
1705061426330617000,10.1566171875,-0.8750362831234931,2.1533697276465595,1.8982725384190677
1705061426381049300,10.20704931640625,-1.079944157880172,-1.3360362764291465,1.768783111935854
1705061426431464200,10.257464111328124,9.896485169225931,-9.37570013091266,-0.624382629301399
1705061426481880000,10.307880126953124,1.3709914160847663,-6.8105825166463845,-0.32987832597810773
1705061426532297500,10.35829736328125,0.08820061769350432,-1.6152483546070753,1.9053543133735655
1705061426582740200,10.408740234375,-0.18767492733970284,0.41699948700498785,0.6543806580062955
1705061426633154300,10.459154296875,0.43331685394700614,2.385576309021562,0.981168872481957
1705061426683601400,10.509601318359374,0.2619444613063708,2.2450937793590127,-0.12152890506596303
1705061426734015200,10.56001513671875,0.028817913258948828,0.30954485526252534,0.015074221313395536
1705061426784431000,10.61043115234375,-1.6358458830863236,-1.4463964934200049,0.16210189373651518
1705061426834855400,10.66085546875,0.21110046405280009,-1.5710263510428368,0.39214229178726673
1705061426885284000,10.7112841796875,0.00544631010661833,-0.6681402302242815,-0.24312283819215372
1705061426935719200,10.76171923828125,-0.5090033785721286,0.9934970236573367,0.19189205184439195
1705061426986135300,10.81213525390625,-0.8805430638462305,0.39375663164872676,0.12360303532574325
1705061427036567300,10.8625673828125,-0.5604845960170031,-1.46374554149732,0.9555302810955792
1705061427086982100,10.912982177734374,-1.3511238093152642,1.983533677727729,2.7820602832749484
1705061427137427500,10.963427490234375,-3.594146481488645,1.1948826425720005,1.3378271053686737
1705061427187843300,11.01384326171875,3.468692594131827,0.42106454448681324,1.909076256506145
1705061427238267100,11.06426708984375,-3.5676866368472573,-1.1323258678287267,0.240239811835438
1705061427288687000,11.11468701171875,-0.03465379122202284,-1.9702751138344405,-1.7071268662288783
1705061427339118300,11.165118408203124,-2.378984071149677,1.3605417721323667,0.7886849374253302
1705061427389532400,11.215532470703126,-0.47068705538772043,-1.8295918009027838,2.059089707840979
1705061427439978200,11.265978271484375,-1.4190547513775527,-0.2815492158886045,1.21120943492949
1705061427490409500,11.316409423828125,-1.782542026566714,-2.1758719207033512,0.38355332714021206
1705061427540808200,11.36680810546875,-0.9070483550645411,-1.1754954397305846,1.024781365845725
1705061427591254300,11.417254150390624,-2.1295034066297114,-0.16666958524454384,0.17309306068709118
1705061427641663200,11.467663330078125,-0.7957823483403772,-1.6839292382538318,-0.5970429696181788
1705061427692096300,11.51809619140625,-0.019634542365721427,-1.3311229315549133,0.8774803152747451
1705061427742514400,11.568514404296875,0.07797989625930786,-0.1876699589036405,1.9512278835371135
1705061427792958200,11.618958251953124,0.7262857643965631,-0.29355560603002084,-1.5210202111192046
1705061427843390200,11.66939013671875,0.45750663476455955,-1.7235057540997862,-0.02633909748868318
1705061427893806300,11.719806396484374,-0.3208562671434134,-0.35157672837134446,1.1645153421632946
1705061427944220400,11.770220458984374,-0.5814318147167563,-0.11182094632633961,-0.1403851519689895
1705061427994666200,11.820666259765625,0.006522229959152173,1.462114287033677,1.85559235746935
1705061428045064200,11.871064208984375,-1.28137558869794,1.293103143631667,0.16863863856149836
1705061428095497500,11.92149755859375,-0.3469418351123109,-0.01398886691223597,1.7544881907321512
1705061428145942300,11.9719423828125,-1.0288150783412158,-0.5930138236999511,0.12384311855877748
1705061428196357400,12.022357421875,-1.1652593654636294,-0.31664807486385105,0.19433369110915807
1705061428246771500,12.072771484375,-2.543724405364692,0.3541544699048623,0.44331404142417014
1705061428297217300,12.12321728515625,-1.7904210893787442,-0.035032812568289225,2.0425611823663115
1705061428347633400,12.17363330078125,-1.6627818208068608,1.4720841846451163,2.1715702779866755
1705061428398061300,12.224061279296874,0.3111287999857217,-1.4146597312889992,2.6301667172819374
1705061428448476400,12.274476318359374,1.9233852062352002,-0.10011729285800829,-1.5148976365856825
1705061428498921500,12.32492138671875,0.6355332611300051,-1.9561267614945768,-2.070869577483833
1705061428549332500,12.37533251953125,-0.4825094124654308,-1.0452848593659698,0.727516767496243
1705061428599769300,12.425769287109375,-0.572892863223888,-0.08194268980990163,0.5406409911775961
1705061428650183200,12.47618310546875,-0.8057634979981929,1.0733095421712846,-0.44398331898786125
1705061428700613400,12.52661328125,-0.1468203543819487,2.1092470928035674,0.8739448346249759
1705061428751045000,12.577045166015624,-2.1552564181759952,0.7300015700493008,-0.20801289156731217
1705061428801460200,12.627460205078124,-1.2477752246521412,-0.18468581026000902,-0.5826081650197505
1705061428851875300,12.677875244140624,-2.0788402641020713,-0.842331333547458,-0.7101455075871199
1705061428902319000,12.728319091796875,-2.3204906733877957,-1.8474242485828696,-1.2680923287548125
1705061428952735200,12.7787353515625,-1.4026079128369688,-1.3982465027570723,0.36578919545598326
1705061429003161000,12.8291611328125,3.0243653570771216,-4.421864548598229,-0.22434037804454562
1705061429053595400,12.879595458984374,-0.32519371182583273,1.6728117780424654,1.6548451825886963
1705061429104011300,12.93001123046875,1.2725329415507614,-0.10135839722659438,1.3077062540017068
1705061429154442200,12.980442138671876,0.9383674032401293,0.550882472272031,0.15000535935992373
1705061429204853200,13.030853271484375,-0.22581171097243202,3.954767261330783,0.9862074511710553
1705061429255301000,13.081301025390625,-1.3509602893166244,2.7502979483112693,1.1199504434455185
1705061429305707300,13.131707275390625,0.06988451924889813,-0.19519341321103273,1.2227279502224175
1705061429356146400,13.182146484375,-1.1384373364463447,-2.6647625221058724,1.2429624175429344
1705061429406562300,13.232562255859374,-1.387762956535071,-0.39614385557882487,-0.670158803505078
1705061429457002500,13.28300244140625,-1.2169641259986907,-0.1461892168715596,-0.7259052406463772
1705061429507423500,13.333423583984375,-1.1784537780795246,-0.30745350900646295,-0.04916514992169104
1705061429557848300,13.383848388671876,-2.3353489275626838,-0.56809145429153,0.5952264947807416
1705061429608282400,13.434282470703126,-3.044942865681648,0.8238612455509603,2.018966079506278
1705061429658698200,13.4846982421875,-0.511618712169677,-1.3597905153736471,2.2287980397269127
1705061429709113300,13.53511328125,1.4705315483756363,-2.9985256901606916,0.6544332649763673
1705061429759559400,13.585559326171875,3.001419365775585,-0.28423158684037625,-0.3404735524136573
1705061429809973200,13.63597314453125,1.6602610701575875,-2.9114965182662007,0.03987658563791774
1705061429860401400,13.6864013671875,-1.066267441640049,-6.763129276075959,1.7998523500688373
1705061429910833400,13.73683349609375,-0.9540293750133365,-0.5245184161553159,1.983173612243682
1705061429961232100,13.787232177734374,-0.28951350929867475,5.472668025255203,1.048238083148375
1705061430011678200,13.83767822265625,-0.3820059515677392,4.544519160625338,0.9575273731969296
1705061430062110200,13.888110107421875,-2.055253490678966,2.051406605992466,-0.10040084077343345
1705061430112525300,13.938525390625,-2.4301890654690563,2.11801214466989,0.18560486133368684
1705061430162986500,13.988986572265626,-1.514915172242373,-1.215680515928939,0.8363594925962388
1705061430213430500,14.039430419921874,-1.9498343833521008,-3.976090327605605,1.0210840456977486
1705061430263853600,14.089853515625,-2.9729493503555653,-2.0850312276966867,2.162122942944616
1705061430314259500,14.140259521484374,3.6093788296729326,-0.418066970106028,0.8234135748486966
1705061430364705500,14.19070556640625,5.036996388342977,-4.3741725308358665,-1.6043398609712718
1705061430415121700,14.24112158203125,-0.6546784719090908,-2.0141738767936825,-0.13901405541202985
1705061430465536500,14.29153662109375,3.5287452040344474,-1.3472529592312872,0.3409706882808357
1705061430515963600,14.341963623046874,0.524613766288571,3.7727526978403327,0.5937354159727692
1705061430566395600,14.392395751953124,0.19023588213520123,4.017748033639789,0.48002972447890785
1705061430616810500,14.442810546875,-2.1588421677082774,1.275983666526526,0.4567732059234753
1705061430667263500,14.493263427734375,-1.5408409100070595,0.3297853869976476,1.4997835079535842
1705061430717685500,14.543685546875,-1.1448012454550713,-1.4810900595299898,0.3890266805173829
1705061430768100600,14.5941005859375,-2.825722607129812,-2.1904563263729213,0.6182584473326802
1705061430818515500,14.644515380859374,-3.6784903598219154,0.27433628883510824,-0.02659607249101391
1705061430868960500,14.69496044921875,0.5166567428695038,-4.5814384399607775,-0.12116655629328452
1705061430919362600,14.745362548828124,3.933042336256802,0.5367832197709008,2.4566820817276835
1705061430969807600,14.7958076171875,2.3528119574084876,-0.6635176119249314,0.18493163824724032
1705061431020222500,14.846222412109375,0.5003360514592379,-1.2117309015203266,-0.23287620599856598
1705061431070638300,14.896638427734375,0.42029038177654143,-0.5044812249725684,0.3656877078428864
1705061431121092600,14.947092529296874,0.017842076308245303,2.7425039334341883,0.6489017151385545
1705061431171499500,14.99749951171875,-1.4828982779957354,2.971079464830458,0.5223785545824096
1705061431221913600,15.04791357421875,-1.5592708851888775,1.5082421242192388,-0.8123849619645624
1705061431272359700,15.098359619140625,-1.718823879893869,0.14308558830041437,0.5746054758280515
1705061431322780700,15.14878076171875,-2.3049403452955186,-0.37593225767724214,-0.024475230712408664
1705061431373214500,15.19921435546875,-4.203886691322922,-0.7686255344107746,1.1733869231440126
1705061431423632600,15.249632568359376,-2.323436663711816,-2.2393128578700123,1.6949710028804839
1705061431474065700,15.300065673828126,4.604626131063699,-3.9670527424082156,-0.14224475356210023
1705061431524478500,15.350478515625,-0.13486483591124415,-2.0640916077814997,0.8312445607353002
1705061431574893600,15.4008935546875,0.6892441007904708,-3.503649048961699,-0.2252858787337318
1705061431625339400,15.45133935546875,1.2382179994948208,0.41033827555011954,-0.2946350170308724
1705061431675758600,15.501758544921875,0.4590322003640234,4.00310459125936,0.6754455848015845
1705061431726169600,15.552169677734375,-0.48130876797139643,5.035447405335307,1.2645740915007888
1705061431776593400,15.602593505859375,-1.7551558608606457,2.1871948403589427,1.0038825163323433
1705061431827034400,15.653034423828124,-1.292807229425013,0.25274324651248753,1.4935453442163764
1705061431877462500,15.703462646484375,-2.842830686058104,-2.653582079660892,0.05641134905712679
1705061431927877400,15.75387744140625,-4.090634406152367,-1.8739957369051872,0.4982900421822443
1705061431978322400,15.804322509765624,-4.993315067526698,-0.2852540252232924,-0.27575903338091445
1705061432028720600,15.854720703125,2.5632962440580127,-5.00901357191801,2.37655845143795
1705061432079153700,15.905153564453125,0.8261210802417248,-1.0143744650565087,0.2909952357564121
1705061432129598700,15.9555986328125,2.2203391312003133,-3.022760844489932,-1.2161354200895875
1705061432180027400,16.00602734375,0.37344135417696084,1.7539480925060809,1.5184126589693128
1705061432230441500,16.05644140625,-0.5779548593211918,6.414800991573929,2.106521759492904
1705061432280856600,16.106856689453124,-1.3253368954993783,2.973928716781735,1.1029747587252408
1705061432331301400,16.15730126953125,-0.746299866964668,2.353343287806213,-0.20671200156919656
1705061432381704400,16.207704345703124,-1.7556014126710593,0.20491770203094928,0.22795518927453085
1705061432432149500,16.2581494140625,0.45937469365876166,-1.3091814411208034,-0.8213588342759758
1705061432482564400,16.308564453125,-1.9804393649742007,-3.7164725922137496,-0.9152654176592826
1705061432532979500,16.3589794921875,-4.551849357382953,-1.2932133260078726,1.1952443885564803
1705061432583408600,16.40940869140625,4.247025575825572,-0.041704435819317584,-0.6019394729554652
1705061432633839600,16.459839599609374,0.6484131279040127,-3.706833241730928,0.5816230629725382
1705061432684255500,16.51025537109375,0.7800020839497447,-4.209886223998666,0.8323382011909037
1705061432734701300,16.560701416015625,1.267302347420901,1.732255900657922,1.2031642948355525
1705061432785115400,16.611115478515625,-0.05474925649722572,4.68039098162204,0.8236110701821744
1705061432835531500,16.661531494140625,-1.305665688084811,5.07177251816988,0.7869882165100425
1705061432885953500,16.71195361328125,-1.0949386056553572,1.4012167507395148,2.7953955656662584
1705061432936401700,16.762401611328126,-0.7028158222861588,-0.3858698239216581,1.346153911948204
1705061432986820400,16.8128203125,-1.5732660927936435,-2.711666312099993,-0.24432344615356996
1705061433037234400,16.863234375,-2.553862353019416,-1.2089672820258885,0.18436523653613401
1705061433087666400,16.91366650390625,-0.24981586955739185,-1.4911675091691314,0.4117738978438079
1705061433138095600,16.964095703125,2.7746897545069453,-3.5858509468302127,1.5957877212032674
1705061433188510500,17.014510498046874,2.9754142791643736,-0.08688809205652213,0.2324348189066164
1705061433238956500,17.06495654296875,1.106679677657783,-1.381392544720322,-0.6714045657824724
1705061433289356500,17.1153564453125,-0.6527636512637138,0.2386941715623252,1.4752762586846946
1705061433339803400,17.165803466796874,-0.73542308364138,3.5686762324064967,0.2645174170669168
1705061433390217500,17.216217529296873,-0.7349562698472291,3.376813059596717,0.6314273601811379
1705061433440632600,17.266632568359373,-1.628929820087552,2.0080429728232323,0.46945462751593436
1705061433491067400,17.3170673828125,-1.854831602229923,1.8822845495618878,0.9103164169497787
1705061433541507600,17.367507568359375,-0.5878381746277213,-3.0734491214588284,1.199168868523836
1705061433591909400,17.417909423828124,-3.4828269179463383,-3.1011013907551765,0.16059037492871284
1705061433642354400,17.4683544921875,0.9807867412965744,-1.178028026948124,-0.36552806030176577
1705061433692770600,17.5187705078125,8.001817669561504,-2.472057345513999,-1.1371559913989155
1705061433743215600,17.569215576171874,-1.4424984630681574,-2.973032352463901,0.3007925167473033
1705061433793614600,17.619614501953127,1.3953458128795027,-1.0662963024083525,1.830003596574068
1705061433844058600,17.67005859375,0.5058543034240603,0.42404125874266024,0.20361949718026442
1705061433894473500,17.720473388671873,1.3128531153708696,3.6681226950645445,0.8546387341957539
1705061433944888600,17.770888671875,-0.233171827944275,3.9277784243792295,1.4617705881625414
1705061433995321600,17.821321533203125,-1.5601923839479683,1.6813697630293667,1.4901672460854052
1705061434045765400,17.871765380859376,-1.3855065559104085,-1.283856007336825,2.6545734287858007
1705061434096171500,17.922171630859374,-1.6189841801345348,-1.4606851310133933,0.6128075980482622
1705061434146596400,17.972596435546876,-1.9542427013136445,-0.9831756091944873,0.5300610353764146
1705061434197041400,18.02304150390625,0.8059434576749801,-1.7697696387551725,1.0269205698315054
1705061434247457500,18.07345751953125,2.88526697524935,-1.5658298053130506,-1.0307759300854056
1705061434297872600,18.12387255859375,4.1205972904786465,-3.6566678195923563,0.8563126587573439
1705061434348317700,18.174317626953126,1.1767175288714469,-1.4966669833682475,-0.25574487601388246
1705061434398733600,18.224733642578126,0.6666776103258133,1.153356600093469,0.1037608369921334
1705061434449168400,18.27516845703125,-0.3905376330696046,2.7053894237875937,1.6394373317070305
1705061434499592400,18.325592529296873,-0.6354471902817488,3.1872713154718277,-0.3170205249054357
1705061434550008600,18.376008544921874,-1.1713209305249155,1.2579356763996183,0.4503558862270787
1705061434600427300,18.42642724609375,-0.9775551389642059,0.6657591803066432,-0.19527535587344316
1705061434650851600,18.4768515625,-1.0673886276897042,-2.314740293167531,0.4737588275158778
1705061434701288400,18.527288330078125,-2.625978910203278,-1.3686957063630223,0.7736536647710949
1705061434751712500,18.57771240234375,5.6937517395913595,-1.0861024613142012,-0.3352721843782812
1705061434802143500,18.6281435546875,0.7140744445338845,-3.1781478055566548,0.28367271084859963
1705061434852563700,18.678563720703124,0.3906494594136253,-2.1499526126794515,0.8212504054654389
1705061434902975500,18.7289755859375,2.268690489654243,-1.7838620231240987,0.9282978446464986
1705061434953420300,18.779420166015626,1.7428937606588004,1.8040869188986717,-0.9298559608086943
1705061435003835400,18.82983544921875,1.366463709527254,4.33721964149177,0.45709224527738984
1705061435054249500,18.88024951171875,-0.8266020686917006,1.8055819797620176,1.963049984886497
1705061435104695600,18.930695556640625,-0.8861210831742733,0.5051351953692734,3.205743960751593
1705061435155137800,18.9811376953125,0.16784944267887622,-0.1685819216718897,2.0185764956668018
1705061435205553000,19.031552978515624,-1.1460500764723867,-2.4101912564486265,0.2446523858469911
1705061435255999000,19.0819990234375,-2.246612221097946,0.8311801902621984,3.11958660325557
1705061435306428000,19.132427978515626,-0.38773693296778944,-1.2241361365199088,3.1886829358354207
1705061435356825900,19.182825927734374,4.838918286541104,-5.731152372702956,0.7985475022047758
1705061435407259000,19.2332587890625,4.0251986419066785,0.6558804681099951,-2.1156185275316237
1705061435457704000,19.283703857421877,3.681501232075691,-2.4476320754401386,-0.679520067698881
1705061435508104000,19.33410400390625,0.3118790338311344,-1.0918205467000603,1.1859043863464147
1705061435558549800,19.3845498046875,0.4425105064889416,1.824897943998128,1.3771657208055257
1705061435608966000,19.4349658203125,-0.09483552566333674,2.4621204733893274,0.6382645127248019
1705061435659393800,19.485393798828124,0.2275151356231421,2.235229095687717,-0.3869934576567262
1705061435709824800,19.53582470703125,-0.39061555714402346,2.3686029623888434,-0.20868436108808963
1705061435760239900,19.586239990234375,-0.47883013943079855,1.1642446354631333,1.5131220052152872
1705061435810655700,19.63665576171875,0.8355980797696858,-3.5309810002624986,0.13337568419887683
1705061435861101800,19.687101806640626,-2.2601871574640273,-2.2437701295398176,2.3041325360439715
1705061435911517000,19.737516845703126,-1.8499203031823037,-1.0672328526061028,1.9079224102959036
1705061435961939000,19.78793896484375,3.6133082780763504,-1.2323567062459886,0.21531455635018645
1705061436012376800,19.838376953125,0.5591324872883037,1.1130380337085575,0.4040867774073034
1705061436062792000,19.8887919921875,0.46599444059208034,-3.5440903649434445,1.8139480954386293
1705061436113227800,19.939227783203126,1.723289773261547,-1.8144538530036807,1.1792203054726123
1705061436163636000,19.989635986328125,0.7313575147029012,2.801177656199038,1.0634235234510152
1705061436214079700,20.040079833984375,-0.2294923539802432,4.392671771861613,0.2037389771077782
1705061436264495900,20.090495849609376,-0.9439337321303785,3.158432174478471,1.0461975902967153
1705061436314929000,20.140928955078124,-1.228254531624168,0.7095829783335328,2.184884371459484
1705061436365343700,20.19134375,-0.5136940206063911,-2.566122991916537,0.4953065693920478
1705061436415788800,20.241788818359375,-3.231716314136982,-2.132159766357392,0.14247187684886156
1705061436466203000,20.292202880859374,-2.4206596051014957,1.7007545547179876,0.9771072490662336
1705061436516620000,20.3426201171875,-1.2251253667529671,-5.868343751865625,3.768699623057246
1705061436567037700,20.39303759765625,2.5664167141661047,0.515835781875439,3.558880814579129
1705061436617479700,20.443479736328126,3.573619826288521,-0.9710304133705794,0.3692783162133768
1705061436667894800,20.493894775390626,1.676965975112468,-3.2231843403741713,0.4603803270373493
1705061436718339800,20.54433984375,-0.8961905687026679,1.9459787308372556,0.9168237530171871
1705061436768756000,20.594755859375,-0.37456330741159616,3.9720200094267724,3.1183059157952666
1705061436819171000,20.645171142578125,-1.062274207285419,2.676906548886001,1.3940952282965182
1705061436869610800,20.69561083984375,-0.6194241301111877,3.1932179489165544,-0.4145353619137779
1705061436920014800,20.746014892578124,-1.430681330154836,-1.9376015092447398,-0.1875363225866109
1705061436970460000,20.7964599609375,-0.6873099178574978,-3.6013472066476937,-1.6742825812473892
1705061437020892000,20.846891845703126,-3.4148233490392563,-2.647104992601275,1.278949238333851
1705061437071307000,20.89730712890625,1.826673429238051,-1.0091144256364553,2.3624784881591796
1705061437121721900,20.947721923828126,4.4344469667956234,-0.8827929616648703,-0.10543848788077011
1705061437172167700,20.998167724609374,0.05194788510855287,-5.642849819871783,1.1675247531123458
1705061437222581800,21.048581787109374,1.28498895688951,-3.161442462210357,2.299493331936002
1705061437272996900,21.098996826171874,3.342834509888291,3.2082810780137776,0.9338582552526146
1705061437323442000,21.14944189453125,-1.1424332742147147,5.880677163738012,1.490102656416595
1705061437373858000,21.199858154296876,-1.533483679112047,5.166311919564008,1.4905995000228285
1705061437424272000,21.25027197265625,-2.321665708516538,3.314332053503394,2.0233970476910472
1705061437474700800,21.30070068359375,0.6741486037936061,-2.5562708754658696,2.3733792368799445
1705061437525133800,21.3511337890625,-4.435078542697429,-3.248876123252511,0.61735660312213
1705061437575549000,21.401548828125,-1.9263593997403978,3.0609961748600005,1.1236623035755007
1705061437625988900,21.45198876953125,0.32790158254504204,-7.758982142144441,2.7284005892798304
1705061437676423000,21.5024228515625,3.448765073868632,-0.04943961034836247,1.5661350718699394
1705061437726838800,21.5528388671875,4.33696917386204,-3.4543270919099447,-0.20647948972126468
1705061437777252900,21.6032529296875,1.8483369795136153,-3.3511312135905027,0.1641123933087103
1705061437827684900,21.653684814453126,-0.34096327215936034,2.207185488986224,-0.2837383599633351
1705061437878099000,21.704098876953125,0.06658299805205314,3.5158410065367818,-0.5180852413026615
1705061437928546000,21.754546142578125,-0.8271450895272194,4.995513454353809,1.0063125199582428
1705061437978960000,21.8049599609375,-1.6903223002918064,6.226016203296184,0.9400404510188847
1705061438029375700,21.855375732421876,-3.8691388961449262,-0.3132763699410483,1.043830349708721
1705061438079820800,21.90582080078125,0.47286154988259077,-5.318911880260706,1.555425169546157
1705061438130236000,21.95623583984375,-3.9396228836908933,-4.2817397463321685,0.6225572405051439
1705061438180651800,22.00665185546875,4.586988183042407,1.3383495218075812,0.32056670961230993
1705061438231097000,22.05709716796875,6.327040875056386,-4.690347142969071,-0.04991039706473238
1705061438281511700,22.10751171875,1.221647826835513,-6.455105529433489,1.775570433988422
1705061438331939000,22.15793896484375,2.1970929879084227,-0.32810284073818474,2.0578611889593303
1705061438382350800,22.208350830078125,1.784949379969388,2.6856691165342927,-0.4218007498068735
1705061438432800800,22.25880078125,0.8352776156436651,6.978601580271125,0.4824475992755964
1705061438483216000,22.3092158203125,-1.5831721313886344,5.409978052586316,2.799310401022434
1705061438533646800,22.359646728515624,-3.0656223733559247,0.3718789271658286,2.914946366459131
1705061438584062700,22.410062744140625,-0.7119712617095559,-3.038257396568358,1.3224766837626696
1705061438634508800,22.4605087890625,-3.210767926393449,-1.2327733242228627,0.8096710998959838
1705061438684918000,22.51091796875,0.6343875982262194,0.13477295637670902,0.036919553330074996
1705061438735355000,22.56135498046875,4.120467526619136,-5.5100996380269525,4.095733482857049
1705061438785767700,22.611767578125,3.885400002855062,-2.2544164651080965,2.097218509096652
1705061438836182800,22.662182861328127,4.075075310231745,-3.9868385161131616,0.9642609923008829
1705061438886634000,22.712634033203123,0.19283536057649178,0.6447760865759105,-0.8191993912197649
1705061438937059800,22.763059814453126,-0.7951757607493549,5.373148497360944,2.4241394100412723
1705061438987458000,22.8134580078125,-0.5838813998259603,4.8617760150372975,0.8556447694331407
1705061439037890000,22.86389013671875,-0.9182374922726303,4.470369051787257,-2.464224459931254
1705061439088311000,22.91431103515625,-2.799903983001411,-0.06851264180722647,0.43780404583103955
1705061439138732800,22.96473291015625,0.11608882377073168,-6.790435216152668,1.15050603296794
1705061439189179000,23.015178955078124,-3.863041456052661,-3.150211750882864,-0.09287947795842774
1705061439239594000,23.065593994140624,3.8779599159821867,-1.5378722694598137,2.6925731968343256
1705061439290027800,23.11602783203125,2.5185250821784138,-1.300411420818418,1.8172241944998502
1705061439340441000,23.166441162109376,0.6915661139972508,-4.822800679954886,2.2436554171189664
1705061439390886700,23.21688671875,1.7914407878153025,0.44946021602898834,2.9699460768863557
1705061439441301800,23.2673017578125,1.868792176912725,4.608162780757248,-0.27593824413903056
1705061439491716900,23.317716796875,1.2814832868561148,5.971224280625582,0.09838951008417643
1705061439542163000,23.368162841796874,-1.29074269811064,3.1292323834791778,0.6018390447882935
1705061439592590800,23.4185908203125,-1.7122465473301707,-0.5183943803170695,3.1259871179476377
1705061439642991900,23.468991943359374,-1.9840027565442024,-2.130251156257093,2.272462263277918
1705061439693437700,23.519437744140625,-2.475650693830848,-0.23398186568552626,1.5387478832505643
1705061439743851800,23.569851806640624,0.5431285702096298,-1.1998346389561891,1.634980206167698
1705061439794267000,23.620266845703124,3.477261100512743,-3.253644360567629,3.5752994499385355
1705061439844697000,23.670697021484376,6.461971908071637,-3.0255873000875115,0.9654945526838302
1705061439895125800,23.721125732421875,3.0588495182201263,-2.92584010091722,0.5594382653018459
1705061439945557000,23.771556884765626,-0.1463723731524311,1.6822070906363427,0.635716581807658
1705061439995968800,23.82196875,0.1474454000782687,5.486057668182253,1.6543347488485276
1705061440046404900,23.87240478515625,-1.147588245825097,3.725578858733177,1.5480886891782284
1705061440096819000,23.92281884765625,-0.7479177504900842,2.3284032000780104,-0.15544119373830034
1705061440147324700,23.97332470703125,-1.9926643480360506,-1.2282473712310193,-1.1938004002932459
1705061440197752600,24.023752685546874,-0.9036298518579453,-3.1022888469740746,0.3928560295471921
1705061440248153300,24.0741533203125,-2.2251883247971533,-3.7605171933844685,0.2679459484771825
1705061440298600400,24.124600341796874,0.9835798791464417,-4.521043300230801,1.673470095820725
1705061440349015600,24.175015625,3.7437355699315664,1.3079684120692312,2.8631317158088088
1705061440399430400,24.225430419921874,1.575460826358944,-0.35579957023076714,-0.9564276683267205
1705061440449876500,24.27587646484375,1.7296246753714977,-3.473495318238437,1.6342613903738556
1705061440500304400,24.326304443359376,-0.8701113208767026,1.052981186022237,1.7520225312709807
1705061440550719500,24.376719482421876,2.79841345218271,4.559839187093079,1.7337565144792197
1705061440601135600,24.427135498046876,-1.5199696791529655,4.897965811054409,-0.19430294891102237
1705061440651579600,24.47757958984375,-0.8019920166354626,2.3306072859935463,1.4708162105359137
1705061440701995500,24.52799560546875,-1.3348320152059197,0.7392772017862648,1.2081217711124568
1705061440752406500,24.578406494140626,-1.876021689774841,-3.02311009631902,1.7623384658411143
1705061440802848500,24.6288486328125,-2.094160290569812,1.464803672248125,1.670657668748498
1705061440853270500,24.6792705078125,-0.619749343477562,0.32067155822627247,1.4668297712482512
1705061440903701500,24.729701416015626,5.00498621609807,-6.531618860271573,5.645123610022663
1705061440954116600,24.78011669921875,3.529665826010704,-1.7370606705911456,-0.024197541715612166
1705061441004563500,24.8305634765625,3.130820821714401,-4.843462651972472,-1.3094487137548625
1705061441054976500,24.8809765625,-1.096146739336103,2.5747066958665847,1.2229386703636496
1705061441105393400,24.931393310546873,0.021519161952368446,3.8787712323650716,3.314429084137082
1705061441155839500,24.981839599609376,-2.1501864214353263,7.250600658330321,-1.3074594396337866
1705061441206254600,25.032254638671876,-0.5078463174914941,2.78453807156533,0.8652557706043124
1705061441256668700,25.082668701171876,-2.24851688567549,-1.163664351357147,1.6789475043185054
1705061441307114500,25.133114501953123,-0.768291918542236,-3.900021525664627,0.713818497011438
1705061441357514500,25.183514404296876,-2.1863152810454367,-4.213109569959342,1.9034405887067316
1705061441407957500,25.23395751953125,7.8571888338744635,-2.8416841463714837,1.3505167833328247
1705061441458372600,25.28437255859375,0.987613372446224,-3.4633038868308064,-0.3717777683462947
1705061441508787500,25.334787353515626,2.3936434417515993,-4.320862673191726,0.08993865699986926
1705061441559215600,25.385215576171873,1.4560761759132146,1.3519886094510554,1.1121666577015072
1705061441609665300,25.435665283203125,2.327902703209966,6.765636290460825,0.6125323978360742
1705061441660092700,25.4860927734375,0.2546850830289535,6.249082606106996,0.7550292629957198
1705061441710496500,25.53649658203125,-1.8480572857894002,1.5341316216267644,2.7331857777297497
1705061441760940500,25.5869404296875,-1.0923587452299892,0.03273074160441756,2.4570959232255816
1705061441811356700,25.637356689453124,-2.4539032646641132,-3.081578944161534,1.4829919476285576
1705061441861770500,25.6877705078125,-2.8439640740022063,0.49203755765873936,0.05554780473008286
1705061441912217600,25.738217529296875,0.7780252309188246,-4.874399934288859,0.038989062213664875
1705061441962630400,25.78863037109375,2.0235804414339364,-3.4603345156311986,2.142074572780728
1705061442013046500,25.839046630859375,5.205478393304348,-2.6107503614112733,-0.47055239615738387
1705061442063492600,25.88949267578125,1.5023014821238816,-0.5334534542936832,-0.282888885260839
1705061442113901600,25.939901611328125,-0.6798362209759652,4.997304429423809,2.031223357402533
1705061442164336400,25.99033642578125,-0.18323086221134288,3.8762256395354866,1.0015083345469087
1705061442214752500,26.04075244140625,-0.31510416989009826,3.7652757860884067,-0.7322607471529394
1705061442265183500,26.09118359375,-2.182219536164403,-0.7386109929624944,0.8498904436901211
1705061442315611600,26.141611572265624,0.2747287952840328,-4.641322707559168,-0.03406453150842571
1705061442366044400,26.19204443359375,-3.6879201592072843,-3.62752998791337,0.29709711456177756
1705061442416459500,26.24245947265625,2.1225158858299253,-2.160016910576075,0.9172810683306306
1705061442466874600,26.29287451171875,6.326172860050201,-0.05015198726826347,1.287914050555974
1705061442517315600,26.343315673828126,1.7265848692841828,-3.393345092202723,-1.1178016679137945
1705061442567736600,26.393736572265624,2.9481185682207345,-3.126842565733194,3.4591616724595426
1705061442618148600,26.444148681640623,1.4915719983167945,2.6256623916000126,1.1942699175011366
1705061442668595500,26.494595458984374,2.0720890362761915,4.812867314961553,-0.9152785694018005
1705061442719009300,26.54500927734375,0.23325967062450945,5.474138682329654,0.502952006111294
1705061442769425400,26.59542529296875,-1.5468207150690256,1.8048222474358975,2.4254423093333837
1705061442819871500,26.64587158203125,-0.5321135839920491,-1.417225636254251,2.0824265981562435
1705061442870296600,26.696296630859376,-1.8474020367510615,-3.542027002672851,1.3617510017916559
1705061442920714500,26.746714599609376,-4.900899526418745,1.4338595217995345,0.10752092017801478
1705061442971129300,26.79712939453125,1.653722462169081,-2.314273260177672,0.48380734332147984
1705061443021561600,26.8475615234375,5.547682641968131,-2.4094617731302974,4.069847930972278
1705061443072007400,26.89800732421875,5.228269486305117,-2.3678180956214665,-0.27608008202882484
1705061443122422500,26.948422607421875,1.257833677329868,-2.0060851167537272,-0.4141879732482135
1705061443172837400,26.99883740234375,0.42399997688420116,4.15643549657911,2.4181815245501697
1705061443223283500,27.049283447265626,0.4740553993096575,4.5566728320166465,1.9722982902251183
1705061443273698600,27.099698486328126,1.1892999470688401,3.909317177276313,-1.6642625608839094
1705061443324112400,27.1501123046875,-1.839221360643953,-1.6980322901472449,-0.3101835550248623
1705061443374558500,27.200558349609373,-1.1016902718726544,-3.6041643098950384,0.46523379495050754
1705061443424972500,27.25097265625,-2.1766887900441882,-3.092964846050739,0.13076469798288307
1705061443475384600,27.301384521484376,3.1348601602330803,-1.271409928870201,0.983200451374799
1705061443525834500,27.35183447265625,6.8451312674582,-1.290388916236907,1.307517453431338
1705061443576249600,27.40224951171875,2.027710819236934,-2.5233280985459685,0.3810768905567005
1705061443626677500,27.452677490234375,2.3623696209572254,-1.880247783037275,2.2488411491937934
1705061443677092600,27.503092529296875,3.011992197716236,2.4062160692073404,0.21752277045156806
1705061443727538700,27.55353857421875,2.202532548613846,5.360040593984722,-0.2166004131759517
1705061443777954600,27.60395458984375,0.7651149690065533,3.940210912711918,1.2899236368127167
1705061443828368400,27.654368408203126,0.22593765717335043,0.7507811040319502,2.6200802075535057
1705061443878800400,27.70480029296875,-0.31972916280962527,-2.5063962529674173,2.6048677331134678
1705061443929215500,27.755215576171874,-0.8480385322131216,-1.959662534405291,1.1959640080679208
1705061443979661600,27.80566162109375,-2.5214567517161366,-0.24713430232321842,0.05765496504320763
1705061444030076400,27.856076416015625,0.10135539241875521,-3.8587864289566873,0.8110507907513529
1705061444080504300,27.90650439453125,5.323669888442755,0.5787751627281308,2.6355247371837494
1705061444130936600,27.9569365234375,6.0737634486019605,-3.5426278911754485,-0.7733584812168032
1705061444181351400,28.007351318359376,1.5504846444040536,-1.5740801856555044,0.31380642169713974
1705061444231766500,28.0577666015625,1.1034918414019048,1.1594045019555836,2.512276543177664
1705061444282211600,28.108211669921875,-0.2849817293542437,3.732953186893463,1.0026461794704198
1705061444332627500,28.15862744140625,0.3740172543687746,3.688438630123436,0.28334103120882065
1705061444383060500,28.209060546875,-0.48274471905864774,2.4774878461301326,-0.22971476455926892
1705061444433471500,28.259471435546875,-1.011797819501534,-0.06982936869529076,1.6172205314628778
1705061444483916500,28.30991650390625,0.7719189499329775,-5.646989403894543,-0.016302981081994947
1705061444534318300,28.360318359375,-3.0229765330672262,-1.0502337139450013,1.2280062559515237
1705061444584762600,28.4107626953125,4.96787375227809,-0.965118485913053,0.27773115543778987
1705061444635177700,28.461177734375,4.532293008519709,-1.408553377237916,1.9560425903424619
1705061444685605600,28.511605712890624,0.5594498096091672,-2.9445073919862508,1.2139287038255482
1705061444736033500,28.562033447265627,2.7837597806692123,-1.8634645521491764,2.016102360638231
1705061444786454500,28.61245458984375,2.3486247348517177,2.7537948505163192,0.31212157388273626
1705061444836898600,28.662898681640623,2.0169024249747394,5.18967701306045,0.5959957621201872
1705061444887314400,28.713314453125,-0.44558622413985427,3.230483265210688,2.2483412368476388
1705061444937730600,28.76373046875,-0.7077933184377849,1.3268871936812996,2.153810311020911
1705061444988166700,28.814166748046876,0.2578932131541893,-1.8372680346190928,1.9538358740784227
1705061445038590500,28.864590576171874,-2.0033698664456603,-3.361197849574685,1.8894838134162126
1705061445089022500,28.9150224609375,-0.30738110135737806,-3.8653555782139297,2.420569588730484
1705061445139447600,28.965447509765625,2.1184591577850282,2.3727622740253804,0.25549576009102165
1705061445189893400,29.015893310546875,3.334991102911532,-1.0377834707599132,3.273322874505818
1705061445240307500,29.066307373046875,2.4712308315619826,-0.8996296763058751,1.8292083545431495
1705061445290722600,29.11672265625,1.094772893699631,-1.2546759439513087,0.886411371357739
1705061445341156600,29.167156494140624,1.3524673328787087,3.267683699575066,1.5470222289904951
1705061445391569700,29.217569580078123,-0.09932692793160676,4.953804310393333,2.217861635170877
1705061445442015500,29.268015380859374,-0.6147594993010163,2.5489485697537657,1.528628201904893
1705061445492430300,29.318430419921874,-0.4515541926335543,1.1942978284213692,-1.2550114595159887
1705061445542844400,29.368844482421874,-0.31714959464520215,-0.5899685742525383,0.9340544354118406
1705061445593291500,29.41929150390625,-2.3139226931743324,-4.968353060227632,0.5886356451483443
1705061445643719400,29.469719482421876,-4.816593642008304,-2.562591018398106,2.561690270166099
1705061445694121500,29.52012158203125,7.199981647205353,-1.2887924408257008,1.999785139826685
1705061445744566500,29.57056640625,2.8123081220224497,-3.664999594607949,0.9740383630149065
1705061445794981400,29.6209814453125,0.43302806360088286,-2.8334800893887877,3.601151099553704
1705061445845410600,29.67141064453125,1.7115937825098633,0.09562414615722373,2.3704336849473417
1705061445895825700,29.72182568359375,2.2623516420215366,4.402925747111439,0.11860109885260461
1705061445946255400,29.77225537109375,0.2236859327238053,5.451088061609864,1.3712537202827633
1705061445996686300,29.822686279296875,-0.6438808182366192,2.0065724618792533,1.5738716574713587
1705061446047118300,29.873118408203126,-1.0851743866838515,0.37213107529599215,1.1995276188336312
1705061446097532400,29.923532470703126,-1.4199704049177466,-2.3474383015461266,4.544384428329765
1705061446147978500,29.973978515625,-3.225013017106056,-1.0272175800167023,0.8004335351470857
1705061446198393600,30.0243935546875,0.03292329818458529,-4.308800479476154,1.1424262599520385
1705061446248808700,30.07480859375,4.62066424267292,-2.9800585978388785,2.885613888990879
1705061446299254500,30.125254638671876,4.007347051134706,-3.12215060852468,0.12659875567615964
1705061446349668600,30.175668701171876,2.583027364966273,-0.5693244666852056,-0.1729292118948884
1705061446400096500,30.226096435546875,0.4367488742223009,4.227526217846572,2.262962759657204
1705061446450506500,30.276506591796874,0.1264134713702835,3.274760213832557,1.7135330800093709
1705061446500927500,30.326927490234375,-0.1461197592313867,3.9346205453589556,0.005861143122604698
1705061446551374300,30.377374267578126,-1.274794895133376,2.6768796608790755,0.6768487295977771
1705061446601788400,30.427788330078126,-0.7314962655864655,-2.416855682773888,1.7782568965934216
1705061446652215600,30.478215576171873,-2.7221675401091576,-5.008914203196763,0.11391110527231357
1705061446702648300,30.5286484375,-0.6602805296998471,-2.1737264331072566,0.7578804146431386
1705061446753063400,30.5790634765625,6.265125978413224,0.7664023054033517,1.8185737094126642
1705061446803509500,30.629509521484376,0.7706628854572772,-3.3148122382357714,1.125448894731328
1705061446853908500,30.679908447265625,2.6024673939734697,-2.548677936118841,1.9553385337263345
1705061446904354600,30.7303544921875,1.4877709985986352,1.3639781763218342,0.49601091826912014
1705061446954775600,30.780775634765625,2.4044322545304895,6.667533643627166,1.0804433395739643
1705061447005185500,30.831185546875,-0.1864679444364272,4.1687066568702456,1.6321169256910681
1705061447055631400,30.88163134765625,-0.4796928572073579,1.1826081212799995,2.1659946698114276
1705061447106047500,30.932047607421875,-0.9975566743116825,-2.6441969962000846,1.9046705688931047
1705061447156466400,30.982466552734376,-2.3018843187257647,-2.6467329444184897,1.138948939230293
1705061447206908400,31.032908447265626,-3.3548423430681225,1.8805353678070007,-0.1272571282533463
1705061447257322500,31.083322509765626,-1.0425368027668445,-7.876604312962293,1.7915145837038755
1705061447307750400,31.13375048828125,2.7927517731592055,0.056691841932362874,3.44286578669697
1705061447358183700,31.18418359375,3.6847304232552647,-4.312146282772719,-0.9651528265740722
1705061447408612600,31.234612548828125,1.0970282714109867,-1.2314056891314684,-0.054697508043679406
1705061447459026700,31.285026611328124,0.6172007549732923,4.353544168826938,1.2098006641101091
1705061447509440500,31.3354404296875,-1.0700249675426632,5.454709174716473,1.6875290163114667
1705061447559887400,31.385887451171875,-0.21358665484534575,1.4606449451334773,0.4458739550400525
1705061447610302500,31.436302490234375,-1.2764922005705535,1.423564483886957,-0.29949595586443317
1705061447660729300,31.486729248046874,-1.5346248119711876,-0.09325482320999726,0.7679253502521663
1705061447711150300,31.537150390625,-0.2279188210532069,-5.3001130717664955,0.6670243779368699
1705061447761579500,31.58757958984375,-3.282080765978992,-0.9570864975616336,2.8923893744751807
1705061447812010500,31.638010498046874,5.301773698455095,1.6669174593068659,1.3804462037809193
1705061447862424600,31.688424560546874,6.225513514471054,-5.46905684902072,-0.18904709247574208
1705061447912871700,31.73887158203125,-0.27824648454878476,-3.791081550735235,1.9562901353627442
1705061447963286300,31.789286376953125,1.8157177354596554,1.198155819023773,1.352691643153876
1705061448013701400,31.839701416015625,2.4699510208845137,5.00453788780868,0.03767994552660966
1705061448064145700,31.890145751953124,1.2576895926840603,6.14685498829782,1.4225592523671686
1705061448114560500,31.940560546875,-1.5864512991897761,1.3021299151740968,1.781073561449349
1705061448164976600,31.9909765625,-0.9564077945824712,-0.33973325544036925,2.2881069916553796
1705061448215421400,32.04142138671875,-1.9436800985060632,-2.5647926200956106,0.8564538938589393
1705061448265849600,32.091849609375,-2.074899855913222,-0.5985834770584478,1.9271474813781677
1705061448316267500,32.142267578125,1.2048149846520275,-1.9864453273907303,0.6295872852724045
1705061448366703600,32.19270361328125,8.40677501925826,-2.408081424687803,5.718904885548353
1705061448417127700,32.243127685546874,5.904032904884219,-2.3484343268461525,0.25672058917824175
1705061448467527400,32.29352734375,2.3688952233336864,-3.4895685011610387,-1.4797667019717395
1705061448517972500,32.34397241210937,0.38746761450711636,3.509091240015626,1.6616589542567728
1705061448568388400,32.39438842773438,-1.0243557608447968,5.218597987118363,3.1899726833850144
1705061448618803500,32.44480346679688,-0.24621669428795576,2.9815207793459293,0.7392019445929676
1705061448669249500,32.49524951171875,-0.8492476157419383,3.5399615945756433,-0.6493653140623122
1705061448719664600,32.54566455078125,-0.7522978652704506,-2.121193697315454,1.4346556406132875
1705061448770110700,32.59611083984375,-2.3598227129533886,-5.87238162907958,1.7860849598705768
1705061448820525300,32.646525390625,-1.9647766625486314,-0.255905181142129,1.1945466886159033
1705061448870940400,32.6969404296875,7.703074376961588,-0.5180433018570766,0.013863415043306303
1705061448921367300,32.7473671875,0.5746000324679539,-5.565055801573395,1.03734697903879
1705061448971800600,32.797800537109374,2.7725656019598244,-2.0490733407393096,2.1399930903315543
1705061449022228500,32.848228515625,2.643936591698229,1.9865096247985958,0.9506329375080764
1705061449072644400,32.89864428710938,2.568125856171548,6.127978438392281,-0.43113041328601537
1705061449123058400,32.94905834960937,0.878332840450853,6.551179300788045,0.8999745442207903
1705061449173494500,32.99949462890625,-0.43681616730485107,1.9001193353295325,2.0567077811405063
1705061449223934500,33.0499345703125,-0.7622189553041011,-3.0851497883856296,3.4101363602668044
1705061449274350300,33.100350341796876,-1.8304948872223494,-1.8858460414357483,2.4391578232139346
1705061449324766500,33.15076635742187,-2.6960928953930736,0.8944346649460494,-0.22973233674857765
1705061449375212500,33.20121264648437,7.179498246625065,-5.151480845656991,1.897886169449985
1705061449425627400,33.25162744140625,3.9841701736867425,-0.5904742222197353,1.6730748128928243
1705061449476042500,33.30204248046875,4.641214278748631,-4.708155186860263,-0.023033993811975233
1705061449526487600,33.35248754882812,0.7236384647581726,-0.026436575646942944,0.023223164275102317
1705061449576892700,33.402892578125,-0.7726618041895329,4.7112341559141875,2.9276594252988692
1705061449627317500,33.4533173828125,0.22495047276690602,3.5317438013285396,3.645416649998724
1705061449677763600,33.503763671875,1.0315282097574323,3.307002149006724,-0.4399000682622194
1705061449728178400,33.55417846679688,0.4482264729829505,0.8459943860996514,-2.1657851187139747
1705061449778606300,33.6046064453125,-1.9855179834127425,-1.284525577161461,0.8092252558246255
1705061449829022500,33.6550224609375,-0.9742436032634227,-2.3272582678265867,0.8632485224351286
1705061449879467500,33.705467529296875,-2.847866342137754,-2.208721904773265,2.3556365133099257
1705061449929880600,33.755880615234375,5.853238537192344,-0.4033006685309112,0.1577339260516688
1705061449980315400,33.8063154296875,4.391269503848254,-4.059415384285152,-0.2524175764883868
1705061450030729500,33.8567294921875,1.6320691410265862,-2.5531682332754135,2.8032109155923126
1705061450081174500,33.90717456054688,1.6898779175251721,-0.8907968199003488,1.8456088697239756
1705061450131589400,33.95758935546875,2.4962626892268656,4.469191240179539,-0.013653499761316924
1705061450182066700,34.008066650390624,1.2974131157852709,6.383724885308742,1.064296799154207
1705061450232512800,34.0585126953125,-0.6891688435971737,1.9824552348412572,2.3534419258750976
1705061450282927900,34.108927978515624,-1.224438115141168,0.741888041871786,3.2716350675493477
1705061450333342500,34.15934252929687,-0.6304297274459153,-2.5197394264042376,1.0439235078848899
1705061450383787500,34.20978759765625,-2.37445066550374,0.5004589106539264,0.8610715437222272
1705061450434202600,34.26020263671875,-1.8000947805225849,-1.3943275757476687,0.04188377444159705
1705061450484630500,34.31063061523437,9.780216751104593,-6.146759126707911,6.339952963599562
1705061450535042600,34.36104248046875,6.109529173988103,0.0023689928693136604,0.7782815437674522
1705061450585492700,34.41149267578125,4.441755828504264,-4.187010375323891,-0.32394184860121455
1705061450635906800,34.46190673828125,0.4801273031018674,1.9617687129043042,-0.01817411784927244
1705061450686321700,34.51232177734375,0.3397682902211323,5.713906054347754,1.7692076209582388
1705061450736754700,34.562754638671876,0.2917544566258788,3.74533306825608,0.6640540568891913
1705061450787163600,34.61316357421875,-0.5114934418221936,1.823364304690063,0.19085618772432206
1705061450837613600,34.66361352539062,-1.2481800060607493,-2.8053616638854146,0.7920045103020965
1705061450888028700,34.71402856445312,-1.093118696751818,-3.6457623946964737,-0.415742180420272
1705061450938444500,34.76444458007813,-3.292023191061616,-1.5036467592529952,1.7953407178632914
1705061450988890600,34.814890625,5.186517087724805,0.4976592334654182,0.36977618273291735
1705061451039305700,34.8653056640625,4.036421169927716,-4.015421928779781,1.039855162467435
1705061451089726700,34.91572680664063,0.6896841727081686,-4.045025039882958,1.6269554512746631
1705061451140171500,34.96617163085938,3.0381989443793893,0.5362602188101038,2.0153836909748613
1705061451190591500,35.016591552734376,2.172640975958109,5.052514859992265,0.2912471829571761
1705061451241025800,35.06702587890625,1.7357663929969072,6.3945952388912435,1.296390056347847
1705061451291424800,35.1174248046875,-1.0532586877893655,1.6699838611401616,2.2992950328849253
1705061451341869600,35.16786962890625,0.5050031664874405,-1.3303382109180093,2.3230945722758767
1705061451392299800,35.2182998046875,-0.38122853745445606,-3.1925609463125464,2.475006550708413
1705061451442703600,35.26870361328125,-2.0190636946618556,0.031611226922040804,0.9889642025332898
1705061451493131500,35.319131591796875,1.131488321026042,-4.053932276698947,-0.02522827300283825
1705061451543577600,35.36957763671875,4.665668044264614,-1.5496085922218858,2.133362420145422
1705061451593992700,35.41999267578125,6.679302991876006,-5.395165683379769,-0.3381959994031116
1705061451644408600,35.47040869140625,3.4690520750939844,-1.1132852134026587,0.24825837444970383
1705061451694836700,35.52083666992188,1.454836989507079,1.15292792635262,0.9279743848457932
1705061451745263600,35.571263671875,-0.7182513648923486,4.7246547785013915,1.4621408827796578
1705061451795683600,35.62168359375,0.3071322776954621,4.598753439638019,1.2533286209955812
1705061451846128600,35.67212866210937,-1.386789435327798,3.780426885730028,0.16310367292389272
1705061451896544800,35.722544677734376,-0.9504678100742399,0.10044012247105129,0.12623985923589207
1705061451946959600,35.772959716796876,1.5556075403757392,-6.037185822311043,1.3758528846412896
1705061451997395500,35.8233955078125,-3.3336414418682456,-3.1341458744838833,0.7981647864975034
1705061452047810600,35.873810546875,8.021855664461851,-1.3468451090827585,-0.5435195422885939
1705061452098247400,35.924247314453126,7.9645538145720955,-2.1857740137755868,0.8250663104917854
1705061452148686600,35.9746865234375,0.3546997922953218,-3.737874568943679,2.27499075884223
1705061452199095800,36.025095703125,2.3905150805979964,-0.859350053691864,2.169743793211877
1705061452249541600,36.075541748046874,2.7612425361737607,4.11410091419667,-0.8316509495791047
1705061452299940600,36.125940673828126,2.406718173510581,7.077445400860905,0.36801085356082763
1705061452350370600,36.17637060546875,0.549732900378108,3.9500536768123506,1.5724118140518664
1705061452400815600,36.22681567382813,-1.7418918901398777,-0.7380518977750092,3.2216759816378353
1705061452451231700,36.277231689453124,-0.9576753303002565,-2.9816201480671762,5.787316742995381
1705061452501645600,36.3276455078125,-2.284608189754188,-2.8865020700022574,0.5023000450085848
1705061452552092700,36.3780927734375,1.8564444442540406,-4.31102750787586,-0.6297481018573046
1705061452602516700,36.42851684570312,4.554762614481151,-1.1453611443601548,1.1727104121219367
1705061452652921600,36.478921630859375,6.990421197402477,-4.653614326116442,2.0871534805476664
1705061452703368700,36.52936865234375,4.330946552571654,-2.2481518517553805,-0.22300129319420084
1705061452753789700,36.57978979492187,1.8389792224511503,2.574313897156715,0.07787867350769229
1705061452804211700,36.63021166992188,0.5908730488115921,3.6539509618490933,1.8314336293771862
1705061452854627600,36.680627685546874,0.6030010743049904,3.132510674497485,1.4416199266679584
1705061452905054500,36.731054443359376,-0.9803030494328587,4.6194399615749715,-0.16530193188684061
1705061452955487700,36.78148779296875,-1.8690315386265515,0.9363869700126349,-0.19368943838886915
1705061453005919700,36.831919677734376,1.159741551890224,-5.180365579357743,1.2849281666129826
1705061453056334800,36.8823349609375,-3.1312337864294646,-3.2091677977204323,1.1262240438222884
1705061453106749400,36.93274951171875,6.3033186386853455,-1.4684899595454335,1.9308761465124784
1705061453157194500,36.98319458007813,4.8377515808492895,-4.097910242374241,0.2672173784743063
1705061453207623700,37.033623779296875,3.1313293557584285,-4.020663628825545,1.4199075688146054
1705061453258024700,37.08402465820313,2.4887954220861195,-0.2096914192387834,1.8268115225344894
1705061453308470800,37.134470703125,2.838744293527305,5.122878436028957,0.27756743450975047
1705061453358884600,37.18488452148438,1.9559179410494862,6.845159909030794,0.9799475870586931
1705061453409331500,37.23533154296875,0.36825909270085394,3.1317619019567964,2.6192700602144003
1705061453459746600,37.28574658203125,-0.6794537244644016,-0.4916462933188304,3.971334072989225
1705061453510183700,37.33618359375,-0.3955123527422547,-2.9417098702222106,3.093654874141514
1705061453560589600,37.38658959960937,-1.2460875638261437,-0.6263918502319604,1.4211075922541319
1705061453611004700,37.43700463867187,2.859876805666089,-3.9875171460270877,0.32088907343447204
1705061453661457700,37.48745776367188,6.35849575150609,-2.0481213007114825,1.7183267440266907
1705061453711882500,37.53788256835937,6.454414624559879,-3.4777746029928323,0.355485901171714
1705061453762296600,37.588296630859375,4.525291020803153,-4.489291194400191,0.7298744365382939
1705061453812728600,37.638728515625,1.7219943266235291,2.852795322972536,-0.4970869500027969
1705061453863141600,37.6891416015625,-0.12383113586003891,4.235813569198548,3.027419776211679
1705061453913573600,37.73957373046875,0.43496009110938755,3.39727570964992,2.09045266822353
1705061453963988500,37.789988525390626,0.11577649728539399,3.809384684666991,-0.01819332258995273
1705061454014432800,37.840432861328125,-0.35862807165496047,1.992094000802189,-0.315618037696369
1705061454064847600,37.89084765625,0.27121985558131706,-4.260089932321012,0.8071344210252165
1705061454115266600,37.9412666015625,-2.8299197665587066,-5.448108169016241,1.404594848870486
1705061454165709800,37.991709716796876,5.32856467474699,-2.658647838617861,2.5526532694905995
1705061454216124400,38.04212451171875,3.1365675486728546,3.1661437717691063,-0.8918949173353612
1705061454266542600,38.09254248046875,1.297416330655664,-3.742893858410418,0.1563420881007798
1705061454316967700,38.1429677734375,3.090169370113313,-3.372399042546749,3.5766558329835534
1705061454367414800,38.19341479492188,1.445140209748596,2.97661488712579,0.05890333026964217
1705061454417826600,38.24382666015625,2.7869372416615485,6.186182790079712,0.9016912850107998
1705061454468242700,38.29424267578125,0.2894659072972834,4.014320981800556,1.531513109691441
1705061454518674700,38.3446748046875,-0.09358371723764576,0.5828386127747595,2.9291312514171004
1705061454569120800,38.39512084960938,-0.8744743383917957,-0.5888723034484311,2.465856445047259
1705061454619535600,38.44553564453125,0.013126117169635835,-5.370581277221441,2.916927018882334
1705061454669951700,38.49595166015625,0.6454528898589312,-3.553457328225672,1.444496358887106
1705061454720380700,38.546380615234376,3.5135020421952006,-1.2302858913213013,-0.015851355723821323
1705061454770811600,38.596811767578124,4.487572700044512,-7.187541267827153,1.029400184752792
1705061454821226500,38.6472265625,2.4194006910815835,-0.8976382832929491,-0.363075114191696
1705061454871671600,38.697671630859375,2.985236292737722,-1.5396500927872956,-0.05554327925201505
1705061454922087700,38.74808764648437,1.8311495517387986,2.432234161430597,-0.11572895921608432
1705061454972502800,38.79850268554687,1.285404844214022,5.244479447349906,1.3292553841173649
1705061455022939600,38.84893969726563,-0.03962998589912895,4.321052642805874,0.4439508049577474
1705061455073376800,38.89937670898438,-0.3534723693922162,3.36917014362812,0.1430731215444859
1705061455123791600,38.94979150390625,1.3022021036274731,-6.242237270256877,1.636793831460923
1705061455174243000,39.0002431640625,-1.4255102111272513,-2.499240828254819,-1.1175046577285974
1705061455224659000,39.05065893554688,-0.6654133625436573,-1.9887970050834118,0.7542069868274033
1705061455275075000,39.101074951171874,5.823689202103019,-0.6103832204455509,1.4756177655987441
1705061455325503200,39.151503173828125,2.348643877943605,0.20165610641911624,0.23858689352925866
1705061455375936000,39.20193603515625,3.643113633753359,-3.377584920752048,1.9447795841805635
1705061455426380000,39.25238012695313,1.068753705497831,-2.503591132418811,2.2344345843091604
1705061455476797200,39.30279711914063,2.3721530560858546,2.510745680348575,-0.3014581593154929
1705061455527212000,39.3532119140625,2.0993743719562885,5.301588405016064,-0.2271081805237569
1705061455577657000,39.40365698242187,0.6156658004909753,4.348760441681742,1.2805828308850526
1705061455628056000,39.45405615234375,-1.1803249787788836,1.6700060729719697,2.4631585842654107
1705061455678487000,39.50448706054687,1.1912662056405097,0.6584040683034807,2.0714568758524954
1705061455728933000,39.55493310546875,-1.7496499569207429,-4.093601731525362,-0.6851398803420364
1705061455779355100,39.605355224609376,-3.417456035630405,-1.4342280628509818,1.4583091956622898
1705061455829776100,39.65577612304688,5.266132476231456,-4.883574589869379,2.696526610635221
1705061455880192000,39.70619189453125,4.567427742525935,0.14101421625330113,1.704659891593456
1705061455930631000,39.756630859375,4.091349276423454,-4.380575968137383,-0.32805242572519927
1705061455981051000,39.80705078125,1.6682627364359794,-1.2498460395768285,1.0043127975083888
1705061456031473000,39.857472900390626,1.5571392799876629,4.263953329750895,0.3662490315200761
1705061456081898000,39.90789794921875,0.20373273003008216,4.299121966026723,1.1085746245589108
1705061456132328000,39.95832788085937,1.0523729179307817,4.118415562525391,0.9581323533527553
1705061456182742000,40.008741943359375,0.04041113547261339,1.2709171769171952,-0.39319925349429247
1705061456233189000,40.05918920898438,-0.6185645176071674,-3.4723344577655193,0.8124773164231329
1705061456283603000,40.10960302734375,-1.4640497851409018,-1.1961239478699863,0.04984873913852498
1705061456334018000,40.16001806640625,-2.9293478167772293,-0.9498762008566409,1.6463229995675384
1705061456384449000,40.21044897460938,9.137208185657858,1.6713402441851795,1.6302422178603708
1705061456434895000,40.26089501953125,2.6826921465501186,-6.592643530076741,-0.3424333447119221
1705061456485311000,40.31131103515625,-0.15319430072749965,-3.3287589305236933,6.017659284064173
1705061456535741200,40.3617412109375,3.398662195572257,-0.6819619078930467,1.9777954263366757
1705061456586154000,40.41215405273437,2.943149255375564,2.821660472257435,-1.2074551969625056
1705061456636569000,40.46256909179687,3.1213457218825815,7.223647769474983,-0.1279137746643275
1705061456687015200,40.51301513671875,0.7647204167310148,4.234483197377622,1.2750515002429486
1705061456737446100,40.563446044921875,-0.521507068977505,-0.2949399730605073,1.947957775825262
1705061456787861000,40.613861083984375,0.23217976643331348,-2.7049741209849714,2.714448928555846
1705061456838290000,40.6642900390625,-1.399682234648615,-1.01476857894063,1.3943806211091576
1705061456888708000,40.7147080078125,2.4460756397783756,-4.820773558041453,2.361927868539095
1705061456939147000,40.76514697265625,6.093792091152071,-0.7021035092983394,1.6666005023121833
1705061456989553000,40.815552978515626,6.8447332080513235,-2.716483649253845,1.0892706430215389
1705061457039997200,40.8659970703125,4.1529023540168994,-3.558559912061691,0.39281350557971745
1705061457090411800,40.91641186523437,1.425902425315231,1.5876630130670963,0.015659770682966336
1705061457140841000,40.96684106445313,0.34791418727580453,5.677852744191885,2.5190929451942443
1705061457191274000,41.01727392578125,0.8606782335557043,4.521758462762833,1.3961005767695605
1705061457241689000,41.067689208984376,0.9576314180932939,3.8064427859961985,-0.9345952642902732
1705061457292112100,41.11811206054688,-0.4758061519671231,-1.8652197252534328,0.9554034398455172
1705061457342531800,41.16853173828125,0.3414630749076605,-4.986396666440368,0.9341322498884052
1705061457392972000,41.21897192382813,-2.6402169866532086,-3.732869015741348,1.161328455755487
1705061457443393000,41.26939306640625,6.505012008374929,0.27872560983523725,-0.31071557954233137
1705061457493809000,41.319808837890626,6.988567093968391,-1.820205402267724,1.0999379483126104
1705061457544239900,41.370239990234374,1.5639489600025116,-5.671308437114954,2.1430977783486247
1705061457594685200,41.42068530273438,2.750751245036721,0.28844173361500725,3.3105262314796446
1705061457645100000,41.47110009765625,3.2445831022337077,3.3916537781149145,-0.19413190319305285
1705061457695521000,41.52152099609375,2.0583039642907677,5.758787983125448,0.011382214378064963
1705061457745962000,41.5719619140625,-0.041909986595087684,4.057267266340554,2.468069152660668
1705061457796376000,41.6223759765625,0.037634935057815164,0.05132838323703035,2.7529715514346957
1705061457846791000,41.672791015625,1.607904421585053,-3.478771505075693,1.856275079036504
1705061457897236200,41.723236328125,-5.373093552303314,-1.1095037221025674,1.5221259804040193
1705061457947650800,41.77365087890625,2.176480407990515,-4.292616529655456,0.38071751919239755
1705061457998087000,41.8240869140625,7.074560200813412,-0.18245518339741973,2.978612198422849
1705061458048495000,41.8744951171875,7.519819165760278,-4.714190959893167,0.7414161135111004
1705061458098941200,41.92494116210938,4.678388117367029,-2.6116876422613857,0.32032548473495986
1705061458149356000,41.97535595703125,1.3590125167384743,0.9638959583807736,1.348764240577072
1705061458199772200,42.025772216796874,1.8957874436050652,4.141383765658736,1.7817156587451695
1705061458250203000,42.07620288085938,0.8285759260479361,4.961212540823221,1.095319056340307
1705061458300625200,42.12662524414063,0.6899046105258166,2.757601549322903,-2.069188054137677
1705061458351063000,42.17706298828125,-0.18347610567668451,-0.2813746447729878,0.6534441808737814
1705061458401479000,42.22747900390625,0.06668975549531168,-2.9214231612578034,1.6895878485374152
1705061458451894000,42.27789404296875,-2.4290095002956686,-3.997220209395885,0.9579207564286887
1705061458502340000,42.32834008789062,0.3917021102717146,-1.2550412701323628,1.712792783036083
1705061458552754000,42.37875390625,9.045663874426484,-0.18629293492939322,2.020898655004054
1705061458603196000,42.42919580078125,3.312356954038143,-3.3062744192540645,0.3920746333785355
1705061458653624000,42.4796240234375,3.137180127613246,-2.5656150423943993,3.078647859145701
1705061458704029200,42.530029296875,2.2396181244269013,1.5268983093723654,0.5498050157662481
1705061458754476000,42.58047607421875,3.3205580884113908,5.378298719730973,0.6554554476309568
1705061458804892200,42.63089208984375,0.9377669531289488,4.471590702536702,0.9501740147594362
1705061458855319000,42.68131909179687,0.08204790375004523,1.1664876651495695,2.3497284583099187
1705061458905734100,42.73173413085937,-0.8192684378679841,-1.4069520795211194,2.9374969287022945
1705061458956172000,42.782172119140625,0.44679143521115183,-2.379024257029593,3.5357968761116263
1705061459006581000,42.8325810546875,1.6647298861347137,-3.2936914165347813,0.47494898714851586
1705061459057025800,42.88302587890625,2.6794179471850392,1.668922369388491,2.2350268511138855
1705061459107442000,42.93344189453125,7.540127794295549,-3.378269395884871,1.9803765288710593
1705061459157857000,42.98385693359375,4.979002464535832,-3.3049498926520346,0.4309524263706058
1705061459208278800,43.03427880859375,1.468136616063118,0.10739495571078732,-0.6264247295882552
1705061459258717200,43.08471728515625,2.2087005697242916,3.428944228850305,0.9074147041589021
1705061459309133000,43.135133056640626,0.9047901278089732,4.54112981044799,2.101888254473358
1705061459359577900,43.18557788085938,0.21088848353624343,3.979711732973158,0.09673519440535455
1705061459409993000,43.23599291992188,-0.6168773682378232,1.2969143724828958,-0.2779523239078
1705061459460408800,43.28640893554687,0.4161415915340185,-2.592804370354116,0.8291429853461683
1705061459510837000,43.3368369140625,-2.0581347452037035,-4.5298359707564115,1.251240854936093
1705061459561265000,43.38726489257812,0.40966008402761067,1.7088371772781012,1.4333208848781882
1705061459611697000,43.43769677734375,7.43335376522839,1.2769916745252907,1.5356772436335682
1705061459662134000,43.488134033203124,4.619655065630376,-5.048048528233171,-3.293348302185535
1705061459712545000,43.538544921875,1.410591897328198,-5.160007850983739,2.8189605656489727
1705061459762990000,43.588989990234374,3.6949127945736047,1.2451714718945324,1.722369589676708
1705061459813388000,43.63938793945312,3.8404625444978473,5.287153636950254,-1.290154230698198
1705061459863819000,43.68981909179688,1.6721144434280693,5.792919385308027,0.48196127706337716
1705061459914266000,43.74026611328125,0.5205427174573763,1.8905131564639508,2.5187419397994875
1705061459964681000,43.79068090820312,-0.5261077677059919,-1.595853772176802,4.026404510565102
1705061460015095000,43.841094970703125,-0.38571770209986717,-3.3204631036043164,1.5848739668704568
1705061460065542000,43.8915419921875,0.08767329675061628,1.376400289390981,-1.537084626213461
1705061460115969800,43.9419697265625,2.764263637560606,-6.936854442387819,-0.8277128064125776
1705061460166424300,43.99242431640625,3.534988190077245,-1.982625330711156,4.223079759831727
1705061460216869400,44.04286938476562,6.373792104837298,-4.164364243751764,-0.02069656155706616
1705061460267292400,44.09329248046875,2.31433711919412,-3.747969554239511,0.19614812011998145
1705061460317700400,44.14370043945313,2.5120143851101395,4.8608857881993055,1.2330096171967684
1705061460368128300,44.194128173828126,0.8660315042171627,5.934650161466002,1.0428607740242033
1705061460418573300,44.2445732421875,0.7352779030170291,3.7332761352375146,0.17175920000113545
1705061460468996400,44.29499633789062,0.7321051181998104,0.981823902324587,0.5658865281257778
1705061460519420400,44.34542041015625,0.23698223481159655,-4.220519553954899,1.5330309669084845
1705061460569836300,44.395836181640625,-0.6695602530900389,-5.1070478296905755,-0.8267349012911319
1705061460620251400,44.44625146484375,3.5115865639626977,-2.5954443634688853,1.2914648749053477
1705061460670696400,44.49669653320313,7.315472066691518,1.896009123531729,1.4522639241486788
1705061460721124400,44.54712426757813,3.2114491866558788,-4.874210256935656,1.5568518413484096
1705061460771556400,44.59755639648437,3.2272067277580496,-3.42599736174345,3.6315596818208693
1705061460821972500,44.647972412109375,3.8300849428683517,2.211919093379378,0.007190803699122625
1705061460872386600,44.69838647460937,3.0034853583946823,4.575311481513083,-0.6032808776270597
1705061460922831400,44.74883129882812,2.053761644686013,5.465871204721927,2.117883549854159
1705061460973247200,44.799247314453126,-0.08939926202669739,1.8206908476971089,1.7453437841594217
1705061461023677400,44.84967749023438,-0.2324944949382916,-0.962511883611232,1.960431619081646
1705061461074091500,44.900091552734374,-2.3020270881973204,-2.445051557427645,4.698507945331931
1705061461124537300,44.95053735351563,-1.3037830892086029,0.2866598551669158,0.381481854628399
1705061461174951400,45.000951416015624,4.055255049735307,-2.8089737169027327,2.0546794901832937
1705061461225384400,45.05138452148437,7.235965399256348,-3.639500119431317,3.03449512142539
1705061461275788300,45.10178833007812,6.533906094425916,-2.2986304314963517,-0.21958912839684633
1705061461326214400,45.15221435546875,4.065988040673733,-3.647157648447156,0.36505525515824555
1705061461376659500,45.20265942382812,0.9563949351008981,2.4732950706154107,1.5071243722356855
1705061461427073500,45.25307348632813,2.8110233429089186,5.474570059484243,3.3050168204084036
1705061461477489400,45.30348950195312,1.2167789056248963,3.3207153247997163,1.7374718817405401
1705061461527934200,45.353934326171874,0.2915787712654099,3.5542917332231996,-2.214714569316804
1705061461578350300,45.40435034179688,0.2311002823672257,-0.6767324828069656,0.5205194461796433
1705061461628779500,45.454779541015625,-0.9294168387390672,-4.813834114167094,0.9017100627765059
1705061461679210500,45.50521044921875,1.1400057548068463,-4.900836398054659,0.9409393726199865
1705061461729625300,45.55562524414062,8.212506831133366,-2.638006617127359,2.837048303264379
1705061461780054300,45.60605419921875,4.460064223133028,2.0947319529779254,-0.3602562939113006
1705061461830470400,45.65647045898437,2.3160645275086162,-5.015893979081511,1.8613091276809572
1705061461880914400,45.70691455078125,1.3031626192227006,-0.0525951015374856,2.5461682913854715
1705061461931329500,45.75732958984375,2.805068526157737,5.847566921296715,1.2991186045289038
1705061461981761500,45.80776147460937,2.3757136711768805,4.879204411961138,0.9670108024656772
1705061462032177400,45.858177490234375,1.0917993577815592,3.3033257985815405,2.2795649348899722
1705061462082622200,45.908622314453126,0.049761951337638305,0.8580312992434949,2.974140021444857
1705061462133036300,45.95903637695312,0.05968981817194726,-3.4463244027182456,2.8897774384111163
1705061462183452400,46.009452392578126,-1.155519915607199,-2.340504556760192,2.5608947358742356
1705061462233898500,46.0598984375,3.1205908118620513,-3.1036992982938885,0.8080877762272953
1705061462284312600,46.1103125,6.2610892702430485,-4.719118479423225,2.376555236567557
1705061462334728400,46.160728515625,7.312587451165914,-3.2755393815115093,0.39685284409839655
1705061462385173200,46.21117333984375,2.861706651441753,-3.5695956853389736,-0.6776930714674294
1705061462435588400,46.26158837890625,2.4738839764192697,2.9979458444461224,0.7111017853986471
1705061462486016300,46.312016357421875,-0.24549053543787447,6.125889941680431,2.3537518686071035
1705061462536430300,46.36243041992188,0.5043877380028366,5.4533700350672,1.3990040431261062
1705061462586877400,46.41287744140625,0.8374458265282213,2.032381587526947,-0.5935815405853092
1705061462637292300,46.46329223632812,0.7036592143077403,-1.0673029952328652,0.6104528516156599
1705061462687708400,46.51370849609375,0.19952276591854168,-5.559087833079696,0.8856106494341045
1705061462738140400,46.56414038085938,-0.3170608934484422,-3.920926951049268,2.079176071927696
1705061462788555300,46.61455517578125,7.5927265810608855,0.03334160807833541,0.2984318885631859
1705061462838984400,46.664984375,3.877567409533262,-0.6186470813240855,0.7260880498673766
1705061462889410600,46.71541064453125,3.2396593820959327,-5.337282818731666,2.014240220028162
1705061462939861200,46.765861328125,2.8916350489765406,-0.6299452318646014,1.4841098457425832
1705061462990275300,46.816275390625,3.6458921585559843,4.270413757936656,-0.34676600362136956
1705061463040691500,46.86669140625,2.768513988481462,6.275263926067948,1.0139251138538121
1705061463091137500,46.917137451171875,0.048470715083857065,3.486676871372759,2.2877061557695266
1705061463141534200,46.9675341796875,-0.24111299620708448,0.7437117501676083,3.3155674405172464
1705061463191967500,47.017967529296875,0.6535599892731756,-4.650033837281168,2.3602825855500993
1705061463242411300,47.06841137695312,-0.9991452586773782,-1.74223237414062,-0.11058337648855522
1705061463292840400,47.11884033203125,1.3497327933482826,-4.85210305454582,0.16143679915759712
1705061463343256600,47.169256591796874,5.515386638519168,0.46208987090159204,4.133173863457143
1705061463393688300,47.21968823242187,7.951745770925283,-4.99284335836172,1.6776343758933245
1705061463444117200,47.2701171875,2.5872569653600452,-2.2325908561386165,0.23286400410411878
1705061463494539500,47.32053955078125,2.3643822759538886,3.1174308865264058,0.33856223889961834
1705061463544964400,47.37096435546875,1.1079271935008466,5.2954427418679,0.6342795347418636
1705061463595379500,47.42137939453125,0.7393018247708678,3.3879110844552516,2.3160250722810622
1705061463645793500,47.47179345703125,0.9108976509038358,1.8755324449531734,-0.24266630832999944
1705061463696239400,47.5222392578125,0.8730128144718706,-3.275112972792983,0.8179593280307949
1705061463746664200,47.572664306640625,-0.15559304156545548,-3.1606980735838412,-0.08927906057997606
1705061463797068300,47.623068359375,-2.473710373418033,-1.003027799199149,0.6837183961715548
1705061463847515400,47.67351538085938,8.403812077799438,-0.5447788946999237,2.294119968334585
1705061463897930500,47.72393041992188,4.5674581376641985,-3.5231355474591255,0.30234254093458873
1705061463948345300,47.77434545898438,0.9382862277626991,-5.472379271441698,3.3091204563349486
1705061463998791400,47.82479150390625,3.0708602740094064,0.36463407060410824,4.374797092474997
1705061464049221400,47.87522143554688,3.3234038332313296,3.9083050776243207,-1.4343800385423005
1705061464099635500,47.92563549804687,2.938421350070834,4.93040531462729,0.03496958602279192
1705061464150050300,47.97605029296875,1.1566245158482342,2.4896295348227024,3.2791756921872492
1705061464200480500,48.02648046875,0.009975675473321462,-0.2678456664404832,2.8623712528303265
1705061464250927400,48.07692724609375,-1.0464136442001908,-1.8929153953000901,2.4201291514866052
1705061464301335300,48.127335205078126,-0.6001362594584003,-2.029292535470426,1.3732751431077719
1705061464351765500,48.177765625,1.123062145725265,-1.3659779718369245,2.436968642606586
1705061464402185500,48.228185546875,3.663103113336861,-4.647544358552992,0.8539637575436383
1705061464452600600,48.2786005859375,7.0855135565042495,-2.1315549323320386,2.280955658596009
1705061464503027500,48.32902734375,5.351025512880087,-2.7423694933995604,0.38945758274793624
1705061464553467400,48.37946728515625,2.046394476918876,-1.0493570772409437,0.3049461110291071
1705061464603906300,48.42990625,1.0675487866874784,4.962932788744569,2.293685960831493
1705061464654321400,48.4803212890625,1.2667029202230273,3.7698622370958326,1.5937782810769974
1705061464704736500,48.530736572265624,0.6730951492179185,2.4979352986142036,-1.0111865557353943
1705061464755156200,48.58115625,0.32431568688228724,-0.823327430935204,1.1279350124586374
1705061464805599500,48.631599609375,0.42117677268963305,-5.997080021893978,1.2084402624770998
1705061464856012300,48.68201220703125,-1.9613914040245115,-1.52161189340204,0.9907623379964381
1705061464906458400,48.732458251953126,7.914353321120142,-1.396428639680147,2.2527311423696577
1705061464956859400,48.782859375,5.7186739994019264,-1.814606851608306,1.440361012648046
1705061465007311400,48.83331127929687,1.2155145117122679,-5.6741778550714255,1.1761846641037612
1705061465057733400,48.8837333984375,4.151132713995874,-0.5473239760728552,4.725466387145221
1705061465108134100,48.93413403320312,1.5318204220749436,3.9803398017436264,0.3543243100464344
1705061465158606300,48.9846064453125,2.459531041418016,6.207111011818051,0.3557538679255172
1705061465209020400,49.0350205078125,1.2244892608065157,3.9851679525524375,2.4012083240479227
1705061465259436300,49.08543627929687,0.5655652602821588,-1.054139854538068,4.43201857060492
1705061465309880300,49.13588037109375,0.05410652901374269,-3.8666935488194225,2.024041336943954
1705061465360296200,49.18629614257812,-0.7253915189705789,-1.772680703896284,0.5629290665596723
1705061465410741200,49.2367412109375,2.097055573619902,-4.857762395481765,3.7476875224277375
1705061465461157400,49.28715747070312,2.213973833952099,-1.8133444304570554,0.08667541742022149
1705061465511585300,49.33758520507813,5.360656095534563,-0.44699232807811345,3.3255373381286857
1705061465562003500,49.38800341796875,3.861724820496142,-2.6247449844941495,1.1502253893956542
1705061465612415200,49.43841528320313,2.9480364428952335,-0.983694664632529,-0.016067907384218413
1705061465662861300,49.488861328125,1.445437585259974,3.9432276301845905,1.387462512283772
1705061465713268200,49.53926831054687,0.8589430803261697,3.5424718238309025,2.4303319810710846
1705061465763707100,49.58970703125,0.18665524716945364,3.021333442035317,1.2851305573172866
1705061465814122200,49.64012231445312,1.4680147432491182,0.033308776671101804,-0.17155890992237255
1705061465864569000,49.690569091796874,1.4576558463200926,-7.70523476986587,0.7674310639292001
1705061465914983200,49.74098315429688,-0.4765086376806721,-2.2454531141906977,2.418249913611263
1705061465965399300,49.7913994140625,4.690768583251535,-0.017958903054369146,2.5935323923677203
1705061466015843000,49.84184301757813,6.539295386248827,-2.9326842677235603,2.930513645686209
1705061466066258200,49.89225805664063,2.106443433559686,-0.7731156854368746,0.8802071098901331
1705061466116675300,49.94267529296875,1.1891066895190625,-0.8558012751691043,3.870211786073446
1705061466167119400,49.99311938476563,1.9729314735621213,4.053360906551778,0.44581550285108384
1705061466217535200,50.04353515625,0.5700938070898875,7.612825366237759,-0.9308177915781736
1705061466267963100,50.09396313476562,-2.544684482568502,2.794742946976423,1.9062071308106183
1705061466318379300,50.14437915039063,-0.07564277681494132,-0.866329318119958,3.4805127957850694
1705061466368824300,50.19482421875,-1.5856845526009797,-6.495622833260893,3.9077071117311712
1705061466419241200,50.2452412109375,3.140455496022105,0.7005117100622504,-0.6057606021462008
1705061466469655300,50.2956552734375,6.674308836850524,-7.422429635632038,4.235416678835452
1705061466520100400,50.34610034179688,6.909301834073663,-4.316280606098473,2.3210573673598467
1705061466570531300,50.39653125,2.0310402559205887,-2.4077719203472134,-0.7240026949606836
1705061466620947500,50.44694750976562,1.2961511330254376,1.971734372732043,0.5727796121077612
1705061466671362000,50.49736206054688,0.3332500674335286,6.204534439328312,2.881124176356196
1705061466721808100,50.54780810546875,1.2708011493220925,5.908276533803344,0.7612313325062394
1705061466772230100,50.598230224609374,-1.1754870372284203,4.3905783067137,-0.7797047084383666
1705061466822658300,50.648658203125,1.8012177932031452,-3.048191930605471,1.9743834259361028
1705061466873083400,50.69908349609375,-2.2804352879837153,-9.22448840970397,1.3019015132457017
1705061466923497200,50.74949731445312,4.616013494257628,-2.813428358224034,1.7322431873068211
1705061466973912300,50.79991235351562,7.737993714651465,-1.9239561379909513,1.9246129944644867
1705061467024360200,50.85036010742188,3.2400007428795097,-2.4834908859372136,0.611854060183093
1705061467074788400,50.90078833007812,3.3961750549316405,-2.811705187693238,3.6628222505688663
1705061467125203500,50.95120336914062,2.87185745857805,2.9329505174443122,1.2219260592550039
1705061467175618000,51.0016181640625,2.7708783795252443,6.21558073399961,-0.13338957572691143
1705061467226050300,51.05205029296875,0.7975123139381408,4.673955687877536,2.1069728642612695
1705061467276465200,51.10246508789062,0.3832941282147541,1.5920879899024962,4.05802860610187
1705061467326909200,51.1529091796875,1.429294990362972,-0.9143876119114458,2.9618653540223834
1705061467377325300,51.2033251953125,-0.876135549602285,-2.63041367778033,0.539502817460522
1705061467427739100,51.2537392578125,2.2713195229835805,-2.1136172707118095,1.4448090780980885
1705061467478185200,51.304185302734375,6.756387400600314,-1.0814503977246581,2.4318255806297064
1705061467528601000,51.35460107421875,7.808776977404952,-5.265063970217108,0.9393656204972416
1705061467579015200,51.40501513671875,5.216176312929392,-5.052307354721426,1.0993727156452835
1705061467629461200,51.45546118164062,2.292150567957759,-0.47620932594053444,0.9487347757365554
1705061467679890200,51.50589013671875,2.2836196171082555,3.7205908411875366,1.6646774252951144
1705061467730291500,51.55629150390625,1.4671493585914372,5.777759810099005,2.010906253299862
1705061467780742100,51.6067421875,0.7118192860182374,3.7901387169271707,0.20444045817432924
1705061467831165400,51.65716552734375,0.0588560661949683,1.0427242150977254,0.18784593652505427
1705061467881581300,51.707581298828124,1.9322670163489877,-1.048692402787134,0.6994057215817272
1705061467931995100,51.7579951171875,-2.249967669005692,-4.927224346503615,2.601843416856229
1705061467982440200,51.80844018554688,2.654412685266137,0.6917153862748294,1.183677796338126
1705061468032856300,51.858856201171875,12.520255463469027,-1.4609708160869777,-0.12737253479394128
1705061468083288300,51.90928833007813,2.4549945670321582,-6.625885874465108,0.3390654391814023
1705061468133703200,51.959703125,3.0313147378236054,-3.3246684463396665,3.598625380468368
1705061468184148200,52.01014819335938,3.235934516353905,1.4546084414482117,0.5534120638148858
1705061468234563300,52.06056323242188,3.4006609681740403,6.169739604800939,0.25997641263641413
1705061468284992300,52.1109921875,1.146501108175516,5.322497922053933,2.4977532200455665
1705061468335425300,52.16142529296875,-0.09901682080281898,1.8093622289530933,3.034237931793928
1705061468385840000,52.21184008789062,1.8221533214651047,0.4720780713547021,2.801849271850288
1705061468436255200,52.26225512695312,-2.125851167732477,-3.6628541070118543,1.5618179393231868
1705061468486700300,52.3127001953125,-3.5157042284145947,-0.7756663928329944,0.735423741228506
1705061468537126400,52.36312646484375,8.214469071117042,-6.9055825212895865,2.5300547764524817
1705061468587543300,52.41354321289062,3.3144097949147224,-1.9681034688837824,1.0237401131644845
1705061468637958400,52.46395849609375,7.097757536527514,-4.607293012185394,-0.8513776865731925
1705061468688405200,52.5144052734375,1.8880263080842792,-0.7658532932184636,0.47643575510755176
1705061468738805200,52.56480517578125,1.795625818414986,5.620504132550955,1.862077043313533
1705061468789251300,52.61525122070312,1.6834055066406726,3.778910635948181,1.1351804535422474
1705061468839678200,52.66567822265625,0.5907226805554703,4.138253650939465,-0.4955450543230399
1705061468890081300,52.71608129882812,-0.37793844640050084,1.8973595152273772,0.3837313871208578
1705061468940522200,52.76652221679687,2.4129399706348775,-3.7793165864005682,1.0277696609415112
1705061468990942200,52.81694213867188,-1.863929831573367,-4.343520202940702,1.159531854662299
1705061469041356300,52.86735620117187,5.116327699211239,-1.1496537269875406,1.6653659920811652
1705061469091803400,52.917803466796876,10.30221701042652,-3.340255307050049,2.6677467986136674
1705061469142228500,52.968228515625,3.2981779142990706,-2.8867890702500936,-0.036430998061574064
1705061469192662300,53.01866235351562,5.061799990209937,-3.120076724860072,3.4715623043492436
1705061469243078100,53.069078125,1.9287708447963,2.28438563304469,0.768418029139936
1705061469293496300,53.119496337890624,3.6306472431510683,5.774525650483369,0.7127258794691413
1705061469343922400,53.16992236328125,1.1957903320014476,4.157543457821011,1.9339548233054578
1705061469394336300,53.220336181640626,0.9497126077927649,-0.5451717664750293,2.8771900517776605
1705061469444779300,53.270779296875,-0.04130166370470542,-3.6383778374031186,2.812472080412507
1705061469495217400,53.321217529296874,-1.3524598802246153,-1.4697941740117966,0.8915206771954893
1705061469545630200,53.37163012695312,0.8514234984762966,-3.570401448763907,3.357195628196001
1705061469596045300,53.42204541015625,6.255946062135696,-1.2115551065620034,2.929596238580346
1705061469646490400,53.472490478515624,6.1058244742512695,-4.446526111645996,0.48502851914688944
1705061469696905500,53.522905517578124,4.8663940302267665,-2.308223604749888,-1.2629377224706113
1705061469747322400,53.573322265625,2.6313740472450853,0.6580423953842371,0.18649477764442562
1705061469797765400,53.623765380859375,0.8220542691942304,4.675734680248796,2.2409657396435736
1705061469848180200,53.67418017578125,1.2060305709868668,3.821899006064236,2.238123648085445
1705061469898595300,53.72459521484375,0.4947217187087983,4.865841949301958,0.05188710853175726
1705061469949041400,53.77504150390625,0.2608705667308532,0.6696198012575507,0.34602307629957796
1705061469999457300,53.825457275390626,1.6285340987682342,-6.1102037122488015,1.6159202625192701
1705061470049873400,53.87587329101562,1.52714176273942,-2.8778695584744214,0.6400101873483508
1705061470100300300,53.92630029296875,5.415431057295203,-1.5093534464620053,1.1744481226347385
1705061470150779400,53.976779296875,6.114802730476856,1.2606615942321717,2.0715844477549195
1705061470201187600,54.0271875,4.830332244503498,-3.9501770109310743,0.962181263417378
1705061470251626500,54.07762646484375,2.3386118748813867,-3.4677845393761992,2.9809432717189193
1705061470302040600,54.12804052734375,3.24798297380507,2.7769623756140467,0.8987374036412685
1705061470352477400,54.1784775390625,3.552790096488595,6.328442558547854,0.5499660515468567
1705061470402901500,54.228901611328126,0.7685477929994463,3.761182087033987,1.858701429400593
1705061470453315600,54.27931567382812,0.5572205161871389,1.6222043112248181,3.097345545352995
1705061470503730400,54.32973046875,0.7337629684094339,-2.3795349830307067,3.1362136206686495
1705061470554177500,54.380177490234374,0.23236990044424308,-5.01395570449531,2.2550687915369867
1705061470604592600,54.430592529296874,1.81742936168313,-7.1961933608382935,0.9172626558911054
1705061470655026400,54.4810263671875,5.374509264320134,3.4884462191328405,0.046614743919670576
1705061470705453300,54.53145336914063,9.083259153327345,-5.438156099322438,1.7981158816650509
1705061470755868400,54.58186840820313,4.853208093178272,-1.4706268254436552,1.7140055198267101
1705061470806296600,54.63229663085937,1.8053573772259055,0.0552871627662098,1.1316292638666927
1705061470856711700,54.68271166992187,0.713876730004698,3.573651682731509,2.508849491338432
1705061470907156500,54.73315649414062,1.8955607952423392,5.119393516522646,2.323049856351316
1705061470957562400,54.78356225585937,1.1958422083191573,3.6587753132656213,0.2377306054934859
1705061471008007400,54.83400732421875,0.08536400602809154,-0.8822467259589583,-0.3024105098705739
1705061471058419500,54.88441943359375,1.2179586169287562,-4.953267134776711,1.1202432158470153
1705061471108865500,54.934865478515626,-3.8868186374813316,-1.6510034124687314,1.1871748446736483
1705061471159280600,54.98528076171875,5.396127806410193,-0.20824613406760617,2.9553213392063973
1705061471209695500,55.035695556640626,7.805697716090083,-3.155951755839586,2.6795462497398255
1705061471260124400,55.08612451171875,1.5445121458657085,-4.234072863011062,1.3740150016896426
1705061471310555400,55.136555419921876,3.8073601931020615,-2.2525388346679507,3.489898171506822
1705061471360970500,55.186970458984376,3.6040851071789857,2.0818283400021493,0.85592804335393
1705061471411416600,55.23741650390625,3.0711858527019618,6.875895823556184,0.02670346697180066
1705061471461831700,55.287831787109376,1.0766174246102571,4.793462941789627,1.7384483255572616
1705061471512246500,55.33824658203125,0.7567023107744753,-0.5969294993063434,3.835699567879736
1705061471562678500,55.388678466796875,1.1430433689370751,-2.9430720984861254,2.668849206897616
1705061471613120500,55.43912060546875,-1.633465417690575,-0.20699392378311604,0.5646531869385392
1705061471663534300,55.489534423828125,-0.07082286867809016,-4.227101854954659,1.7005336054436861
1705061471713973500,55.539973388671875,7.079760107544064,0.5056569176884368,2.779964772300422
1705061471764381400,55.59038134765625,7.453947640445828,-3.7936356191322207,-0.2580712183359079
1705061471814796500,55.64079663085938,4.020036436837912,-5.112777313253283,0.02334269443496596
1705061471865229600,55.6912294921875,1.34090198276937,1.6439986482731996,1.4453018300510942
1705061471915657500,55.741657470703124,1.934593705730885,4.364116708506644,4.089554794222116
1705061471966073600,55.79207348632813,2.117543065853417,4.2384860032781955,2.725042511023581
1705061472016517400,55.842517333984375,0.9730783588763325,4.763911853134632,-1.498193754544109
1705061472066933500,55.89293359375,0.3377935926146805,0.5013845375988633,0.13968986318120732
1705061472117379300,55.94337939453125,0.9394287488613278,-6.128528473490476,3.2641493879690766
1705061472167776500,55.99377661132812,-1.924909054801613,-2.404789397405088,1.9692004703402517
1705061472218209500,56.04420947265625,4.785431026503444,-2.384154167263955,1.3796158904366194
1705061472268655600,56.094655517578126,7.346298582109808,-2.1058495593197644,2.298221120043099
1705061472319078400,56.14507836914063,4.202898264807462,-3.372339129053056,2.7041031833693383
1705061472369498400,56.195498291015625,3.4398417627006768,-1.4937059416055678,2.6198852695032953
1705061472419913500,56.24591357421875,3.156282302968204,1.648361373527348,1.4625497558414935
1705061472470329600,56.29632958984375,4.039191219162941,5.92820113145709,1.8088889123529195
1705061472520770600,56.3467705078125,1.2685498632639647,3.820647544698417,2.1131161893218753
1705061472571189500,56.397189453125,1.2103827748470009,1.0308746412195264,2.581613991037011
1705061472621634600,56.447634521484375,-0.0423095895050792,-1.3502338747382163,3.712074357254803
1705061472672050400,56.49805053710938,-0.3003787483146414,-1.3877273006998,2.27686502828151
1705061472722464500,56.548464599609375,2.817169882839918,-2.9861501927122474,0.2650324173843488
1705061472772902400,56.59890234375,6.020547991243005,1.1478764151167125,2.6517390821427105
1705061472823326500,56.649326416015626,6.933376537144183,-0.7372096747972071,1.994925132574886
1705061472873757700,56.6997578125,4.498228534093499,-5.107645211061835,0.4086576655194163
1705061472924185600,56.750185546875,2.7035996177613733,0.21039739381736144,0.8290512884747236
1705061472974600400,56.80060034179687,1.5865652809582649,3.9727953777134415,1.330184920052439
1705061473025009400,56.85100952148437,1.9146587328135967,4.206812515641749,1.96741358692348
1705061473075457500,56.90145751953125,1.498620747784525,4.2165167480543255,0.6923001273602247
1705061473125882600,56.95188256835937,1.0080861785672603,1.1489411217387766,0.5717878611240536
1705061473176291600,57.00229150390625,1.2783017342105507,-4.26139926135391,1.046314567739889
1705061473226732500,57.05273266601562,-1.6179799715280532,-3.2816543572604653,0.4982540940860286
1705061473277138400,57.10313842773437,3.814131879194081,-1.7489046915113924,0.12347618494252674
1705061473327583500,57.15358349609375,9.403163307377696,-1.3837176266670226,2.178859265951067
1705061473378013700,57.204013671875,4.3918879280075425,-2.4995097083240747,1.693980968929827
1705061473428428300,57.25442822265625,4.027560110341012,-3.1350948457717895,1.5067730745799839
1705061473478842600,57.30484252929688,3.412109998427331,-0.8170379023369401,1.3911378397956489
1705061473529275400,57.355275390625,4.5848321740522975,5.0760284220486875,0.23340963702183215
1705061473579689500,57.405689453125,2.768566303190589,6.742822401106357,1.9564650535382329
1705061473630135600,57.456135498046876,1.5170954388909041,1.8371135747097431,2.1972370725542305
1705061473680563500,57.5065634765625,0.22045666847899556,-0.7692509728327394,2.9488512664094566
1705061473730995500,57.55699536132813,-0.9683302875664085,-2.7360873443901537,1.5327861983671784
1705061473781411300,57.607411376953124,-1.4436141692250966,-1.728734448533505,-1.6068885225407779
1705061473831839500,57.657839599609375,4.612684934356809,-1.3597456533186136,1.6401374428004025
1705061473882255600,57.70825561523438,9.779375039583444,-5.915963581174612,6.726547558131814
1705061473932677600,57.758677734375,4.672681137897074,1.6157951748348771,1.408121269430965
1705061473983115500,57.80911547851562,4.622102458782494,-5.384661240500211,1.8019215575583278
1705061474033531400,57.859531494140626,1.830944238425046,0.2157101132727228,0.5735047845771536
1705061474083962400,57.90996240234375,2.8375454391315578,6.04642419077754,3.8999309247717258
1705061474134377500,57.96037744140625,2.2442259104833004,2.7225325740292665,1.83212117324993
1705061474184823600,58.01082348632813,1.8804858295768498,0.846260416624695,-1.6568099067904054
1705061474235238700,58.06123876953125,0.23504454474728553,-1.583735902751237,1.7210541231639682
1705061474285659600,58.11165966796875,-0.08225708038816228,-4.049276267586648,1.9806730275996027
1705061474336097500,58.16209765625,-1.7270882887616752,-0.6699305477071553,2.633713011586666
1705061474386513400,58.21251342773437,7.537462959000468,-0.48549189887493843,1.7839428332753478
1705061474436928500,58.26292846679687,1.873792177157104,-4.421847305202484,1.1758180958136915
1705061474487374600,58.31337451171875,2.0528834005467593,-3.3320559262424707,3.0448551873981953
1705061474537788400,58.36378833007812,3.049889674434066,-3.585408756020665,3.475414303602278
1705061474588210700,58.41421069335937,4.0084900836899875,3.549294655588269,0.8161566625230013
1705061474638632400,58.46463256835938,3.505805057951808,7.731415505304932,1.5099593034006655
1705061474689079600,58.51507958984375,1.0482735197879374,3.089235304133594,2.902124586547911
1705061474739493600,58.56549365234375,0.9412892820362001,0.9480860295042395,3.5183868916273116
1705061474789925600,58.615925537109376,-0.7321386551432311,-2.735620895922184,3.1356618320047853
1705061474840340700,58.6663408203125,-0.6298808613914996,-3.1447999549672008,0.7916631495185196
1705061474890764500,58.7167646484375,-0.4971759434605017,-0.4711356759380549,0.5901818516770377
1705061474941200400,58.76720043945313,4.449877175639569,-3.9860947120085357,2.717973887811601
1705061474991610600,58.81761059570312,5.850879991367459,-2.1464941427886486,3.108655459396541
1705061475042030600,58.86803051757813,6.989741398444771,-4.728803714874386,0.3782484987303614
1705061475092477400,58.9184775390625,4.3096398529097435,-2.0996318538486958,0.9175080089543014
1705061475142960400,58.96896044921875,2.1501345451176164,2.3540414992034435,1.6008650244675575
1705061475193388300,59.01938818359375,1.279889441793412,4.38732281204909,3.3052547208175063
1705061475243802400,59.06980224609375,0.8970400982040911,3.699477910532057,2.4201944718077777
1705061475294235100,59.12023510742188,1.1780247390124947,2.374109596981108,0.1738023232012987
1705061475344654300,59.170654296875,2.699633929000795,-0.5771953096581622,1.1339550764657556
1705061475395078100,59.221078125,-1.5882356983885169,-4.105980736105144,1.4332548339046538
1705061475445524200,59.271524169921875,0.21172920867670325,-0.7746658374883234,2.20660476648882
1705061475495939300,59.321939208984375,10.29652727435231,-1.3923676738515496,2.6565233938097954
1705061475546378500,59.37237841796875,4.234253480274975,-4.5484828035593035,3.3197640154242514
1705061475596787200,59.422787109375,3.982699808873236,-4.640148110821843,3.501074522298574
1705061475647232300,59.473232177734374,3.4131516164347526,0.1179647189115174,2.494898415136337
1705061475697646300,59.52364624023438,2.5249805419281124,3.148737586677074,0.5964944323573261
1705061475748061400,59.5740615234375,1.5152952576011418,6.575888794630766,1.9745497224137185
1705061475798492200,59.6244921875,1.019690983904153,3.218577723361552,3.334571416194737
1705061475848922400,59.67492236328125,0.5214767834370956,1.100220272385329,3.251937848910689
1705061475899337200,59.725337158203125,0.285782049419079,-3.626675124649703,3.782713243101537
1705061475949782300,59.7757822265625,-1.2924769745573401,-1.5201998346470296,0.591730432825908
1705061476000197400,59.826197265625,3.030138679781556,-3.7080768120512366,1.1023057003572583
1705061476050613500,59.876613525390624,5.899348546460271,-2.9171839162528514,3.4684587853759523
1705061476101061400,59.92706127929687,5.969674713096023,-5.847132621532678,0.03442548747503897
1705061476151487200,59.9774873046875,4.537174643081427,-3.185430071519315,0.04870095734288916
1705061476201902300,60.02790234375,1.968289054583758,1.3657516157351433,2.3131138610094784
1705061476252318500,60.078318359375,2.7527576164230703,3.4712726737529036,2.531423142196238
1705061476302749400,60.12874951171875,2.3041626389212904,5.800837903347611,1.2897000571899115
1705061476353164300,60.17916430664062,1.0409854086063801,5.093115165928006,0.49406573901809747
1705061476403593200,60.22959326171875,-0.11289595514670946,2.948035566112399,0.8588892312470823
1705061476454024200,60.28002416992187,1.0696778346054254,-3.4288521666526792,2.7942306135401127
1705061476504439300,60.33043920898437,-2.1531867722950873,-8.122963338330388,2.800144806019962
1705061476554886400,60.380886474609376,6.0486196549952025,1.2504139025926588,1.1469284667421131
1705061476605301500,60.431301513671876,10.14546460622549,-3.230587894628942,3.648904784375429
1705061476655715300,60.48171533203125,2.5826982791423796,-6.01613485097587,2.116419614781439
1705061476706159400,60.532159423828126,4.175954143780469,-2.6011481280684468,2.2647743391238153
1705061476756577300,60.58257739257812,3.4354674931392073,2.1198810072816907,-0.04789623053099494
1705061476806992400,60.63299243164062,4.296921241112053,6.70874302137196,0.958801119459793
1705061476857439200,60.683439208984375,2.261994060755521,5.195149891513585,2.9146532287314533
1705061476907866000,60.7338662109375,0.28952474307874215,1.6640851584903895,3.8333436524033546
1705061476958281200,60.78428125,1.1509488082993775,-1.7795030972622334,3.4629689557880163
1705061477008696300,60.8346962890625,-2.10915429995358,-3.315400267256796,0.13899682114943862
1705061477059141400,60.88514135742187,6.426912285128235,-0.7937845255866647,7.340017894405126
1705061477109542400,60.93554248046875,2.0879363014884293,-2.7864722544983027,-1.9888681706234812
1705061477159988500,60.985988525390624,8.802124582654237,-3.351648515462875,1.9385086872175334
1705061477210403300,61.0364033203125,6.385555023345351,-4.989979201102257,0.09670228764959611
1705061477260819200,61.086819091796876,2.9398472912207243,-1.9359682089544832,0.07139378216753248
1705061477311248400,61.137248291015624,1.7152394455358384,4.015747799733281,1.8201656547792255
1705061477361679400,61.18767944335937,2.3647686449229717,4.681851117302477,2.535089263488352
1705061477412094500,61.23809448242187,2.2807655428513884,5.850028342974186,-0.915865794705227
1705061477462540300,61.288540283203126,0.8122480377119035,4.43207468470633,0.36078882988542316
1705061477512955100,61.338955078125,-0.32922508623376484,-2.450297056865692,4.487136938975751
1705061477563399400,61.3893994140625,1.627959075359255,-5.535627462515235,1.107038354902342
1705061477613802200,61.43980224609375,5.897244852179289,-4.82840741392076,0.1655028430201113
1705061477664243200,61.4902431640625,9.63077730026543,-0.40171898883003737,4.341847301292419
1705061477714658300,61.540658203125,5.6375517134636635,-5.4107583893090485,0.4985807322245091
1705061477765073400,61.59107348632813,3.29014073831588,-3.5292072685882445,3.747975399458408
1705061477815506200,61.641506103515624,3.297429141758382,1.155291148352623,1.859116293811798
1705061477865952300,61.6919521484375,3.7965079596981406,5.823240289291739,0.036448885344713924
1705061477916352300,61.74235229492187,2.648503753483295,6.380434027069807,1.8877067207410931
1705061477966781400,61.79278149414063,0.7381773507855832,0.9744402218140661,3.071865943920612
1705061478017227500,61.8432275390625,0.8550202808592468,0.7732314207710326,2.7270199485763906
1705061478067641300,61.89364135742188,1.0377060216095297,-3.7053038402065632,1.2010217298489063
1705061478118057200,61.94405712890625,0.5098569631941616,0.5701421032110229,1.6519579367145896
1705061478168503300,61.99450341796875,4.521257527503371,-3.14957491428405,1.1826673041213303
1705061478218931200,62.04493115234375,7.297627782443166,-3.8130224566474555,3.1147178281754253
1705061478269333200,62.09533325195312,9.373132326251268,-4.287335082121193,-0.026856951916904653
1705061478319778300,62.1457783203125,4.436187380722165,-5.9083595359116785,2.1652540805771947
1705061478370187300,62.19618725585938,1.9298394969411192,2.8836817518845197,1.9639418191596865
1705061478420623400,62.246623291015624,1.4723706003710626,4.6558077445074915,3.2568641993969676
1705061478471038500,62.29703857421875,2.4242685893788933,4.564809084460139,0.7207438392952085
1705061478521482200,62.34748217773438,0.28463054129639637,2.032456406328827,-0.2048253841049969
1705061478571902200,62.397902099609375,1.6617796580269932,-2.596951553161442,2.7074931180685757
1705061478622330000,62.448330078125,1.6617451712355016,-3.4918946060210465,1.961305333176255
1705061478672744200,62.498744140625,-1.2532462034091352,-2.341107783350348,3.5001179522261023
1705061478723160300,62.549160400390626,5.793346086287498,-0.10189192871456033,2.1788076818943023
1705061478773605400,62.59960546875,4.27006158349812,-4.9776767688900225,2.8446944341033698
1705061478824020500,62.6500205078125,3.8436853059366345,-4.329937960051,5.819916697826981
1705061478874435000,62.70043505859375,3.6619156571179627,0.01167840714593185,1.9761670944824814
1705061478924881200,62.750881103515624,3.242917214848101,4.918190560698509,0.36389015690162774
1705061478975296300,62.801296142578124,2.401418313536793,5.603825384950637,2.3312520136378705
1705061479025710300,62.85171044921875,0.956693625786528,0.7586926078088582,2.7442954930260774
1705061479076163300,62.902163330078125,0.46335634717345237,0.4133043222814798,2.7208301540255544
1705061479126588400,62.95258837890625,1.1285269870024173,-2.12626530149132,5.130774742236733
1705061479177001200,63.003001220703126,-0.7438897370830178,-0.04163674544454552,1.3768914339087903
1705061479227416300,63.053416259765626,2.46707663449198,-4.082863187628984,2.518128776337206
1705061479277847300,63.103847412109374,7.573418654000759,-1.7864548160962759,4.690544419106841
1705061479328262400,63.154262451171874,8.335424185749888,-2.070943227241933,1.6113655218243599
1705061479378690300,63.20469018554687,3.8043110346645115,-3.945305897763371,1.0356187670066952
1705061479429123300,63.25512329101562,2.3548854026816786,1.3737443680547177,1.1604455354411154
1705061479479537200,63.305537109375,-0.5738088455576449,4.613108128204941,3.7325942904531955
1705061479529983200,63.35598315429687,1.2355278836280106,3.8348786068856713,2.5920488758116957
1705061479580399400,63.4063994140625,1.0315941876657306,2.875309352597594,-0.12881147242272273
1705061479630813400,63.4568134765625,-0.29044874432217327,-0.5153092737833037,0.8983523498464375
1705061479681259500,63.50725952148437,0.31574944552369416,-5.113978505736589,3.1924680073320864
